Timestamp_Accel,SystemActivated,accelerometerXAxis,accelerometerYAxis,accelerometerZAxis,AccelX_KF,AccelY_KF,AccelZ_KF,gyroscopeXAxis,gyroscopeYAxis,gyroscopeZAxis,Timestamp_GPS,Speed,latitude,longitude,Altitude,VerticalAccuracy,HorizontalAccuracy,Course,Difcourse
21.98,0,0.058,-0.01,-0.077,-0.007,0.005,-0.083,-1.59,0.022,0.064,21.94,0.0,40.519276,-3.413055,618.0,10,165,-1.0,-1.0
22.08,0,0.038,0.017,-0.068,0.032,0.004,-0.075,-1.584,0.022,0.064,21.94,0.0,40.519276,-3.413055,618.0,10,165,-1.0,-1.0
22.19,0,-0.03,0.017,-0.057,0.011,0.015,-0.065,-1.58,0.022,0.064,21.94,0.0,40.519276,-3.413055,618.0,10,165,-1.0,-1.0
22.27,0,-0.083,0.016,-0.076,-0.038,0.015,-0.069,-1.577,0.023,0.065,21.94,0.0,40.519276,-3.413055,618.0,10,165,-1.0,-1.0
22.38,0,-0.081,0.022,-0.03,-0.075,0.019,-0.059,-1.575,0.024,0.065,21.94,0.0,40.519276,-3.413055,618.0,10,165,-1.0,-1.0
22.47,0,0.007,-0.017,0.031,-0.045,0.006,-0.015,-1.578,0.027,0.065,21.94,0.0,40.519276,-3.413055,618.0,10,165,-1.0,-1.0
22.58,0,0.003,-0.02,0.004,-0.01,-0.01,0.006,-1.581,0.031,0.066,21.94,0.0,40.519276,-3.413055,618.0,10,165,-1.0,-1.0
22.69,0,0.003,-0.009,-0.002,-0.0,-0.013,0.002,-1.582,0.031,0.067,21.94,0.0,40.519276,-3.413055,618.0,10,165,-1.0,-1.0
22.77,0,-0.027,-0.011,-0.006,-0.014,-0.01,-0.005,-1.582,0.031,0.067,21.94,0.0,40.519276,-3.413055,618.0,10,165,-1.0,-1.0
22.87,0,-0.02,-0.009,-0.012,-0.016,-0.01,-0.004,-1.587,0.029,0.068,21.94,0.0,40.519276,-3.413055,618.0,10,165,-1.0,-1.0
22.97,0,-0.036,-0.015,0.008,-0.026,-0.011,0.002,-1.591,0.025,0.069,22.94,0.0,40.519276,-3.413055,618.0,10,165,-1.0,-1.0
23.07,0,-0.052,-0.002,0.006,-0.04,-0.009,0.004,-1.593,0.026,0.07,22.94,0.0,40.519276,-3.413055,618.0,10,165,-1.0,-1.0
23.18,0,-0.01,-0.011,0.002,-0.03,-0.01,0.002,-1.592,0.025,0.07,22.94,0.0,40.519276,-3.413055,618.0,10,165,-1.0,-1.0
23.28,0,0.007,0.001,0.002,-0.003,-0.006,-0.004,-1.589,0.025,0.071,22.94,0.0,40.519276,-3.413055,618.0,10,165,-1.0,-1.0
23.38,1,-0.033,-0.014,-0.002,-0.015,-0.006,0.006,-1.583,0.03,0.071,22.94,0.0,40.519276,-3.413055,618.0,10,165,-1.0,-1.0
23.48,1,-0.055,-0.0,0.037,-0.037,-0.003,0.013,-1.583,0.031,0.072,22.94,0.0,40.519276,-3.413055,618.0,10,165,-1.0,-1.0
23.58,1,0.007,-0.025,0.017,-0.019,-0.016,0.016,-1.583,0.032,0.073,22.94,0.0,40.519276,-3.413055,618.0,10,165,-1.0,-1.0
23.68,1,-0.006,-0.022,0.019,-0.015,-0.018,0.023,-1.584,0.032,0.074,22.94,0.0,40.519276,-3.413055,618.0,10,165,-1.0,-1.0
23.78,1,-0.016,-0.007,0.026,-0.012,-0.016,0.018,-1.589,0.031,0.075,22.94,0.0,40.519276,-3.413055,618.0,10,165,-1.0,-1.0
23.88,1,-0.027,-0.009,0.028,-0.019,-0.004,0.03,-1.594,0.031,0.076,22.94,0.0,40.519276,-3.413055,618.0,10,165,-1.0,-1.0
23.98,1,-0.034,-0.015,0.021,-0.029,-0.016,0.024,-1.597,0.032,0.077,23.92,87.7,40.518543,-3.409576,624.2,8,10,324.5,35.508
24.08,1,0.024,-0.026,0.03,-0.007,-0.019,0.026,-1.598,0.033,0.078,23.92,87.7,40.518543,-3.409576,624.2,8,10,324.5,35.508
24.18,1,-0.047,0.001,0.021,-0.005,-0.017,0.021,-1.599,0.035,0.079,23.92,87.7,40.518543,-3.409576,624.2,8,10,324.5,35.508
24.28,1,-0.051,-0.048,0.013,-0.043,-0.024,0.016,-1.602,0.035,0.08,23.92,87.7,40.518543,-3.409576,624.2,8,10,324.5,35.508
24.38,1,-0.005,-0.025,0.023,-0.029,-0.03,0.028,-1.604,0.038,0.082,23.92,87.7,40.518543,-3.409576,624.2,8,10,324.5,35.508
24.48,1,0.023,-0.025,0.001,-0.006,-0.026,0.008,-1.603,0.035,0.084,23.92,87.7,40.518543,-3.409576,624.2,8,10,324.5,35.508
24.58,1,0.034,-0.014,0.03,0.022,-0.02,0.022,-1.607,0.033,0.086,23.92,87.7,40.518543,-3.409576,624.2,8,10,324.5,35.508
24.68,1,0.003,-0.033,0.0,0.027,-0.029,0.016,-1.611,0.039,0.088,23.92,87.7,40.518543,-3.409576,624.2,8,10,324.5,35.508
24.78,1,-0.019,-0.031,0.011,-0.006,-0.021,0.016,-1.61,0.042,0.089,23.92,87.7,40.518543,-3.409576,624.2,8,10,324.5,35.508
24.88,1,-0.043,0.005,0.018,-0.025,-0.013,0.006,-1.611,0.042,0.091,23.92,87.7,40.518543,-3.409576,624.2,8,10,324.5,35.508
24.98,1,-0.041,-0.031,-0.007,-0.029,-0.024,0.001,-1.613,0.044,0.093,24.95,90.6,40.51873,-3.409775,621.5,4,5,324.1,0.352
25.08,1,-0.051,-0.008,-0.031,-0.047,-0.022,-0.01,-1.613,0.047,0.095,24.95,90.6,40.51873,-3.409775,621.5,4,5,324.1,0.352
25.18,1,0.082,-0.008,0.033,-0.002,-0.011,-0.0,-1.616,0.049,0.096,24.95,90.6,40.51873,-3.409775,621.5,4,5,324.1,0.352
25.28,1,0.032,-0.016,-0.015,0.04,-0.008,0.007,-1.617,0.05,0.098,24.95,90.6,40.51873,-3.409775,621.5,4,5,324.1,0.352
25.38,1,0.048,-0.032,0.022,0.032,-0.015,0.0,-1.619,0.05,0.099,24.95,90.6,40.51873,-3.409775,621.5,4,5,324.1,0.352
25.48,1,0.059,-0.021,-0.016,0.048,-0.024,0.008,-1.622,0.048,0.101,24.95,90.6,40.51873,-3.409775,621.5,4,5,324.1,0.352
25.59,1,0.038,-0.004,-0.003,0.047,-0.017,-0.006,-1.618,0.043,0.101,24.95,90.6,40.51873,-3.409775,621.5,4,5,324.1,0.352
25.68,1,-0.024,0.025,-0.025,0.026,0.005,-0.014,-1.617,0.039,0.102,24.95,90.6,40.51873,-3.409775,621.5,4,5,324.1,0.352
25.78,1,-0.094,0.027,0.011,-0.037,0.017,-0.011,-1.619,0.037,0.103,24.95,90.6,40.51873,-3.409775,621.5,4,5,324.1,0.352
25.88,1,-0.038,-0.023,-0.003,-0.06,0.001,0.001,-1.618,0.034,0.104,24.95,90.6,40.51873,-3.409775,621.5,4,5,324.1,0.352
25.98,1,0.015,0.004,-0.005,-0.02,-0.005,-0.003,-1.614,0.036,0.104,25.93,92.2,40.518936,-3.409934,622.5,4,5,323.8,0.703
26.08,1,0.021,0.001,-0.012,0.005,0.003,-0.005,-1.614,0.037,0.105,25.93,92.2,40.518936,-3.409934,622.5,4,5,323.8,0.703
26.18,1,0.001,0.006,0.002,0.01,0.004,0.001,-1.618,0.037,0.105,25.93,92.2,40.518936,-3.409934,622.5,4,5,323.8,0.703
26.29,1,-0.014,0.03,0.01,-0.005,0.013,-0.003,-1.616,0.034,0.105,25.93,92.2,40.518936,-3.409934,622.5,4,5,323.8,0.703
26.38,1,0.004,0.025,-0.001,-0.004,0.023,0.009,-1.615,0.031,0.105,25.93,92.2,40.518936,-3.409934,622.5,4,5,323.8,0.703
26.48,1,-0.077,0.016,-0.022,-0.024,0.019,-0.014,-1.617,0.029,0.104,25.93,92.2,40.518936,-3.409934,622.5,4,5,323.8,0.703
26.58,1,-0.075,0.004,0.012,-0.068,0.012,0.001,-1.621,0.026,0.103,25.93,92.2,40.518936,-3.409934,622.5,4,5,323.8,0.703
26.68,1,-0.013,0.014,-0.023,-0.042,0.011,-0.006,-1.622,0.02,0.102,25.93,92.2,40.518936,-3.409934,622.5,4,5,323.8,0.703
26.78,1,0.028,0.054,0.016,-0.011,0.032,-0.001,-1.621,0.016,0.1,25.93,92.2,40.518936,-3.409934,622.5,4,5,323.8,0.703
26.88,1,0.044,0.027,0.005,0.019,0.035,0.002,-1.62,0.013,0.099,25.93,92.2,40.518936,-3.409934,622.5,4,5,323.8,0.703
26.99,1,0.026,0.037,-0.006,0.029,0.034,-0.0,-1.621,0.008,0.097,26.93,93.3,40.519135,-3.410124,623.0,3,5,323.1,1.055
27.09,1,-0.014,0.045,-0.007,0.019,0.041,0.0,-1.62,0.003,0.096,26.93,93.3,40.519135,-3.410124,623.0,3,5,323.1,1.055
27.19,1,-0.036,0.035,-0.02,-0.019,0.039,-0.014,-1.618,0.003,0.095,26.93,93.3,40.519135,-3.410124,623.0,3,5,323.1,1.055
27.29,1,-0.014,-0.003,0.012,-0.018,0.02,-0.001,-1.618,0.006,0.094,26.93,93.3,40.519135,-3.410124,623.0,3,5,323.1,1.055
27.39,1,-0.048,0.019,-0.018,-0.024,0.013,-0.01,-1.617,0.003,0.092,26.93,93.3,40.519135,-3.410124,623.0,3,5,323.1,1.055
27.49,1,-0.022,0.007,-0.009,-0.033,0.014,-0.011,-1.617,-0.002,0.09,26.93,93.3,40.519135,-3.410124,623.0,3,5,323.1,1.055
27.59,1,-0.03,0.019,-0.018,-0.03,0.009,-0.011,-1.617,-0.003,0.089,26.93,93.3,40.519135,-3.410124,623.0,3,5,323.1,1.055
27.69,1,0.013,-0.007,-0.003,-0.015,0.008,-0.01,-1.618,-0.003,0.088,26.93,93.3,40.519135,-3.410124,623.0,3,5,323.1,1.055
27.79,1,0.018,0.006,0.002,0.007,0.001,-0.002,-1.617,-0.002,0.087,26.93,93.3,40.519135,-3.410124,623.0,3,5,323.1,1.055
27.89,1,0.016,-0.03,-0.025,0.015,-0.008,-0.012,-1.616,0.001,0.087,26.93,93.3,40.519135,-3.410124,623.0,3,5,323.1,1.055
27.99,1,-0.015,-0.027,-0.035,-0.001,-0.021,-0.025,-1.614,0.005,0.087,27.94,94.7,40.519291,-3.410303,623.4,3,5,323.1,0.703
28.09,1,-0.027,-0.014,-0.003,-0.009,-0.016,-0.017,-1.612,0.006,0.087,27.94,94.7,40.519291,-3.410303,623.4,3,5,323.1,0.703
28.19,1,-0.059,-0.012,-0.024,-0.036,-0.017,-0.018,-1.611,0.008,0.087,27.94,94.7,40.519291,-3.410303,623.4,3,5,323.1,0.703
28.29,1,-0.043,-0.017,-0.025,-0.049,-0.014,-0.021,-1.61,0.007,0.086,27.94,94.7,40.519291,-3.410303,623.4,3,5,323.1,0.703
28.39,1,-0.002,-0.034,0.022,-0.028,-0.024,-0.004,-1.613,0.004,0.086,27.94,94.7,40.519291,-3.410303,623.4,3,5,323.1,0.703
28.49,1,-0.005,-0.003,-0.008,-0.004,-0.017,0.001,-1.613,0.003,0.085,27.94,94.7,40.519291,-3.410303,623.4,3,5,323.1,0.703
28.59,1,0.024,-0.024,-0.027,0.008,-0.019,-0.015,-1.613,0.004,0.086,27.94,94.7,40.519291,-3.410303,623.4,3,5,323.1,0.703
28.69,1,0.006,-0.022,-0.046,0.0,-0.02,-0.029,-1.611,0.007,0.086,27.94,94.7,40.519291,-3.410303,623.4,3,5,323.1,0.703
28.79,1,0.002,-0.031,-0.012,0.009,-0.025,-0.027,-1.61,0.007,0.086,27.94,94.7,40.519291,-3.410303,623.4,3,5,323.1,0.703
28.89,1,0.0,-0.018,-0.037,0.002,-0.027,-0.027,-1.608,0.008,0.086,27.94,94.7,40.519291,-3.410303,623.4,3,5,323.1,0.703
28.99,1,0.04,-0.013,-0.006,0.015,-0.015,-0.023,-1.604,0.008,0.085,28.96,96.0,40.519482,-3.410487,623.3,3,5,323.8,0.703
29.09,1,-0.077,-0.0,-0.048,-0.013,-0.007,-0.026,-1.602,0.01,0.086,28.96,96.0,40.519482,-3.410487,623.3,3,5,323.8,0.703
29.19,1,0.018,-0.04,-0.026,-0.021,-0.021,-0.034,-1.602,0.012,0.086,28.96,96.0,40.519482,-3.410487,623.3,3,5,323.8,0.703
29.29,1,0.01,-0.002,-0.032,0.015,-0.02,-0.025,-1.604,0.014,0.086,28.96,96.0,40.519482,-3.410487,623.3,3,5,323.8,0.703
29.39,1,-0.043,-0.017,-0.032,-0.027,-0.008,-0.036,-1.603,0.013,0.086,28.96,96.0,40.519482,-3.410487,623.3,3,5,323.8,0.703
29.49,1,0.007,0.001,-0.022,-0.014,-0.009,-0.028,-1.601,0.013,0.085,28.96,96.0,40.519482,-3.410487,623.3,3,5,323.8,0.703
29.59,1,0.013,-0.016,-0.021,0.011,-0.009,-0.016,-1.6,0.011,0.085,28.96,96.0,40.519482,-3.410487,623.3,3,5,323.8,0.703
29.69,1,-0.041,-0.013,-0.037,-0.009,-0.013,-0.029,-1.596,0.012,0.085,28.96,96.0,40.519482,-3.410487,623.3,3,5,323.8,0.703
29.79,1,0.006,0.01,-0.028,-0.009,-0.007,-0.031,-1.593,0.01,0.084,28.96,96.0,40.519482,-3.410487,623.3,3,5,323.8,0.703
29.9,1,-0.002,0.008,-0.012,-0.001,0.004,-0.026,-1.591,0.008,0.084,28.96,96.0,40.519482,-3.410487,623.3,3,5,323.8,0.703
29.99,1,-0.005,-0.02,0.015,-0.023,-0.001,-0.009,-1.589,0.008,0.084,29.96,91.4,40.519669,-3.410653,624.1,3,5,323.8,0.703
30.1,1,0.063,0.004,-0.018,0.028,-0.008,-0.002,-1.588,0.009,0.085,29.96,91.4,40.519669,-3.410653,624.1,3,5,323.8,0.703
30.2,1,-0.023,-0.013,-0.025,0.017,-0.004,-0.016,-1.585,0.01,0.085,29.96,91.4,40.519669,-3.410653,624.1,3,5,323.8,0.703
30.29,1,-0.01,-0.024,0.009,-0.007,-0.016,-0.009,-1.585,0.013,0.086,29.96,91.4,40.519669,-3.410653,624.1,3,5,323.8,0.703
30.39,1,-0.049,-0.004,-0.012,-0.026,-0.013,-0.002,-1.585,0.017,0.086,29.96,91.4,40.519669,-3.410653,624.1,3,5,323.8,0.703
30.49,1,0.022,0.002,0.003,-0.009,-0.004,-0.001,-1.585,0.017,0.086,29.96,91.4,40.519669,-3.410653,624.1,3,5,323.8,0.703
30.59,1,-0.019,0.003,-0.017,-0.005,0.001,-0.011,-1.584,0.015,0.087,29.96,91.4,40.519669,-3.410653,624.1,3,5,323.8,0.703
30.71,1,0.01,-0.009,0.016,-0.005,-0.003,-0.002,-1.585,0.014,0.087,29.96,91.4,40.519669,-3.410653,624.1,3,5,323.8,0.703
30.8,1,-0.005,-0.027,-0.015,0.002,-0.011,-0.001,-1.585,0.016,0.087,29.96,91.4,40.519669,-3.410653,624.1,3,5,323.8,0.703
30.9,1,-0.013,0.012,0.005,-0.003,-0.011,-0.005,-1.584,0.015,0.087,29.96,91.4,40.519669,-3.410653,624.1,3,5,323.8,0.703
31.0,1,-0.023,0.016,-0.017,-0.011,0.01,-0.004,-1.584,0.016,0.087,31.0,97.1,40.519848,-3.410844,625.1,3,5,324.1,0.352
31.2,1,0.015,0.017,0.006,-0.034,0.01,-0.006,-1.59,0.015,0.088,31.0,97.1,40.519848,-3.410844,625.1,3,5,324.1,0.352
31.3,1,0.02,-0.002,-0.008,0.008,0.016,-0.006,-1.59,0.015,0.087,31.0,97.1,40.519848,-3.410844,625.1,3,5,324.1,0.352
31.41,1,-0.009,0.01,0.012,-0.003,0.008,0.001,-1.589,0.013,0.087,31.0,97.1,40.519848,-3.410844,625.1,3,5,324.1,0.352
31.5,1,-0.005,-0.009,-0.01,-0.001,0.003,0.001,-1.59,0.011,0.087,31.0,97.1,40.519848,-3.410844,625.1,3,5,324.1,0.352
31.6,1,-0.02,-0.023,-0.021,-0.011,-0.013,-0.014,-1.589,0.011,0.087,31.0,97.1,40.519848,-3.410844,625.1,3,5,324.1,0.352
31.7,1,0.015,0.016,0.001,0.001,-0.005,-0.009,-1.588,0.01,0.087,31.0,97.1,40.519848,-3.410844,625.1,3,5,324.1,0.352
31.8,1,-0.021,0.025,-0.009,-0.004,0.011,-0.012,-1.582,0.011,0.087,31.0,97.1,40.519848,-3.410844,625.1,3,5,324.1,0.352
31.9,1,0.007,0.008,0.009,-0.006,0.019,0.003,-1.583,0.008,0.086,31.0,97.1,40.519848,-3.410844,625.1,3,5,324.1,0.352
32.0,1,-0.002,0.011,-0.019,0.006,0.007,-0.004,-1.58,0.007,0.086,31.0,97.1,40.519848,-3.410844,625.1,3,5,324.1,0.352
32.1,1,-0.009,0.03,-0.003,-0.013,0.018,-0.01,-1.579,0.005,0.086,31.92,96.7,40.520039,-3.411056,624.8,3,5,323.8,0.352
32.2,1,0.025,0.013,0.012,0.014,0.02,0.007,-1.582,0.005,0.085,31.92,96.7,40.520039,-3.411056,624.8,3,5,323.8,0.352
32.3,1,-0.044,0.013,0.008,-0.013,0.015,0.004,-1.584,0.004,0.084,31.92,96.7,40.520039,-3.411056,624.8,3,5,323.8,0.352
32.41,1,-0.038,-0.02,-0.0,-0.025,-0.0,0.004,-1.584,0.005,0.084,31.92,96.7,40.520039,-3.411056,624.8,3,5,323.8,0.352
32.5,1,-0.062,-0.021,-0.012,-0.044,-0.015,-0.004,-1.584,0.005,0.083,31.92,96.7,40.520039,-3.411056,624.8,3,5,323.8,0.352
32.61,1,-0.038,0.026,0.002,-0.051,0.003,-0.005,-1.586,0.002,0.082,31.92,96.7,40.520039,-3.411056,624.8,3,5,323.8,0.352
32.7,1,-0.031,0.014,0.019,-0.035,0.014,0.009,-1.588,0.001,0.082,31.92,96.7,40.520039,-3.411056,624.8,3,5,323.8,0.352
32.8,1,-0.071,0.001,-0.01,-0.053,0.004,0.005,-1.589,0.001,0.082,31.92,96.7,40.520039,-3.411056,624.8,3,5,323.8,0.352
32.9,1,-0.039,-0.005,0.011,-0.053,0.004,0.002,-1.589,0.001,0.081,31.92,96.7,40.520039,-3.411056,624.8,3,5,323.8,0.352
33.0,1,0.018,0.033,0.01,-0.015,0.011,0.004,-1.591,0.002,0.08,31.92,96.7,40.520039,-3.411056,624.8,3,5,323.8,0.352
33.11,1,0.072,-0.008,0.013,0.024,0.013,0.017,-1.591,0.003,0.08,32.94,96.8,40.520241,-3.411239,624.2,3,5,323.8,0.352
33.2,1,0.065,-0.023,-0.02,0.054,-0.01,-0.004,-1.589,0.004,0.08,32.94,96.8,40.520241,-3.411239,624.2,3,5,323.8,0.352
33.3,1,0.05,-0.009,-0.012,0.053,-0.01,-0.014,-1.586,0.006,0.08,32.94,96.8,40.520241,-3.411239,624.2,3,5,323.8,0.352
33.4,1,0.05,-0.028,0.015,0.053,-0.017,0.003,-1.587,0.005,0.079,32.94,96.8,40.520241,-3.411239,624.2,3,5,323.8,0.352
33.5,1,0.008,-0.022,-0.008,0.039,-0.021,-0.002,-1.585,0.004,0.079,32.94,96.8,40.520241,-3.411239,624.2,3,5,323.8,0.352
33.6,1,-0.095,-0.004,-0.022,-0.029,-0.018,-0.011,-1.58,0.005,0.079,32.94,96.8,40.520241,-3.411239,624.2,3,5,323.8,0.352
33.7,1,-0.092,0.008,0.011,-0.073,-0.004,-0.005,-1.58,0.003,0.079,32.94,96.8,40.520241,-3.411239,624.2,3,5,323.8,0.352
33.8,1,-0.005,0.018,0.005,-0.051,0.01,0.003,-1.58,0.002,0.079,32.94,96.8,40.520241,-3.411239,624.2,3,5,323.8,0.352
33.9,1,0.064,-0.003,-0.009,0.007,0.009,0.001,-1.579,0.004,0.079,32.94,96.8,40.520241,-3.411239,624.2,3,5,323.8,0.352
34.0,1,0.008,-0.02,-0.007,0.027,-0.008,-0.006,-1.578,0.004,0.079,32.94,96.8,40.520241,-3.411239,624.2,3,5,323.8,0.352
34.1,1,-0.099,-0.014,-0.022,-0.029,-0.014,-0.012,-1.579,0.004,0.079,33.93,96.9,40.520435,-3.41142,624.7,3,5,324.1,0.352
34.2,1,-0.165,0.017,-0.004,-0.11,-0.002,-0.013,-1.58,0.002,0.078,33.93,96.9,40.520435,-3.41142,624.7,3,5,324.1,0.352
34.31,1,-0.038,0.025,0.02,-0.098,0.012,0.004,-1.582,0.0,0.078,33.93,96.9,40.520435,-3.41142,624.7,3,5,324.1,0.352
34.41,1,0.124,0.047,0.024,0.01,0.034,0.02,-1.58,0.003,0.078,33.93,96.9,40.520435,-3.41142,624.7,3,5,324.1,0.352
34.51,1,0.115,0.022,-0.024,0.087,0.031,-0.003,-1.577,0.005,0.078,33.93,96.9,40.520435,-3.41142,624.7,3,5,324.1,0.352
34.61,1,0.035,0.001,0.003,0.074,0.013,-0.003,-1.578,0.008,0.077,33.93,96.9,40.520435,-3.41142,624.7,3,5,324.1,0.352
34.71,1,0.023,-0.009,-0.01,0.046,0.003,-0.007,-1.578,0.009,0.077,33.93,96.9,40.520435,-3.41142,624.7,3,5,324.1,0.352
34.81,1,-0.062,0.008,-0.015,-0.005,0.0,-0.01,-1.577,0.011,0.076,33.93,96.9,40.520435,-3.41142,624.7,3,5,324.1,0.352
34.91,1,-0.142,0.016,-0.03,-0.08,0.011,-0.022,-1.577,0.012,0.076,33.93,96.9,40.520435,-3.41142,624.7,3,5,324.1,0.352
35.01,1,-0.053,0.004,-0.008,-0.084,0.009,-0.015,-1.578,0.013,0.075,33.93,96.9,40.520435,-3.41142,624.7,3,5,324.1,0.352
35.12,1,-0.016,0.003,-0.016,-0.046,0.003,-0.013,-1.582,0.011,0.074,34.92,97.1,40.520664,-3.411603,624.9,3,5,324.5,0.703
35.21,1,-0.013,0.004,-0.006,-0.024,0.003,-0.009,-1.583,0.011,0.074,34.92,97.1,40.520664,-3.411603,624.9,3,5,324.5,0.703
35.31,1,0.023,0.001,-0.016,-0.003,0.004,-0.012,-1.582,0.01,0.074,34.92,97.1,40.520664,-3.411603,624.9,3,5,324.5,0.703
35.41,1,-0.025,0.008,-0.021,-0.006,0.005,-0.016,-1.579,0.012,0.074,34.92,97.1,40.520664,-3.411603,624.9,3,5,324.5,0.703
35.52,1,-0.004,-0.007,-0.023,-0.011,0.003,-0.019,-1.576,0.012,0.074,34.92,97.1,40.520664,-3.411603,624.9,3,5,324.5,0.703
35.61,1,0.041,0.002,0.011,0.007,-0.0,-0.012,-1.576,0.01,0.074,34.92,97.1,40.520664,-3.411603,624.9,3,5,324.5,0.703
35.71,1,-0.012,0.002,-0.009,0.019,0.001,-0.001,-1.575,0.009,0.074,34.92,97.1,40.520664,-3.411603,624.9,3,5,324.5,0.703
35.82,1,-0.092,0.023,-0.041,-0.031,0.012,-0.021,-1.572,0.008,0.074,34.92,97.1,40.520664,-3.411603,624.9,3,5,324.5,0.703
35.91,1,-0.095,0.013,-0.048,-0.063,0.012,-0.033,-1.57,0.009,0.074,34.92,97.1,40.520664,-3.411603,624.9,3,5,324.5,0.703
36.01,1,-0.058,-0.015,-0.003,-0.081,0.001,-0.03,-1.572,0.009,0.074,34.92,97.1,40.520664,-3.411603,624.9,3,5,324.5,0.703
36.11,1,-0.042,-0.024,-0.016,-0.062,-0.011,-0.018,-1.573,0.011,0.074,35.97,96.9,40.520874,-3.41181,626.7,3,5,324.5,0.352
36.21,1,0.011,-0.01,0.021,-0.027,-0.014,0.0,-1.574,0.015,0.075,35.97,96.9,40.520874,-3.41181,626.7,3,5,324.5,0.352
36.31,1,0.069,-0.022,-0.022,0.018,-0.016,-0.005,-1.573,0.016,0.075,35.97,96.9,40.520874,-3.41181,626.7,3,5,324.5,0.352
36.41,1,0.016,-0.01,-0.013,0.032,-0.017,-0.013,-1.572,0.017,0.075,35.97,96.9,40.520874,-3.41181,626.7,3,5,324.5,0.352
36.51,1,-0.057,0.004,-0.041,-0.006,-0.007,-0.019,-1.572,0.018,0.075,35.97,96.9,40.520874,-3.41181,626.7,3,5,324.5,0.352
36.61,1,-0.058,-0.01,-0.066,-0.054,-0.002,-0.049,-1.574,0.02,0.076,35.97,96.9,40.520874,-3.41181,626.7,3,5,324.5,0.352
36.72,1,0.025,-0.019,-0.04,-0.016,-0.012,-0.052,-1.57,0.022,0.076,35.97,96.9,40.520874,-3.41181,626.7,3,5,324.5,0.352
36.82,1,0.034,-0.024,-0.036,0.021,-0.016,-0.036,-1.57,0.024,0.077,35.97,96.9,40.520874,-3.41181,626.7,3,5,324.5,0.352
36.93,1,-0.009,-0.002,-0.045,0.011,-0.018,-0.044,-1.567,0.025,0.077,35.97,96.9,40.520874,-3.41181,626.7,3,5,324.5,0.352
37.02,1,-0.027,0.005,-0.039,-0.007,0.001,-0.039,-1.565,0.023,0.078,35.97,96.9,40.520874,-3.41181,626.7,3,5,324.5,0.352
37.11,1,-0.057,-0.004,-0.033,-0.028,-0.004,-0.042,-1.563,0.022,0.078,36.92,96.8,40.521034,-3.411976,632.4,3,5,324.5,0.0
37.21,1,-0.074,0.008,-0.034,-0.058,-0.003,-0.036,-1.563,0.021,0.077,36.92,96.8,40.521034,-3.411976,632.4,3,5,324.5,0.0
37.31,1,-0.099,-0.007,-0.008,-0.081,0.003,-0.021,-1.562,0.02,0.077,36.92,96.8,40.521034,-3.411976,632.4,3,5,324.5,0.0
37.42,1,0.004,-0.009,-0.009,-0.054,-0.006,-0.016,-1.56,0.024,0.077,36.92,96.8,40.521034,-3.411976,632.4,3,5,324.5,0.0
37.52,1,0.034,0.016,-0.004,-0.0,0.002,-0.007,-1.56,0.023,0.077,36.92,96.8,40.521034,-3.411976,632.4,3,5,324.5,0.0
37.61,1,-0.004,0.007,0.001,0.009,0.008,0.001,-1.563,0.021,0.077,36.92,96.8,40.521034,-3.411976,632.4,3,5,324.5,0.0
37.71,1,-0.05,0.006,-0.021,-0.022,0.004,-0.017,-1.562,0.02,0.077,36.92,96.8,40.521034,-3.411976,632.4,3,5,324.5,0.0
37.82,1,-0.075,0.019,0.015,-0.052,0.009,-0.002,-1.561,0.02,0.076,36.92,96.8,40.521034,-3.411976,632.4,3,5,324.5,0.0
37.91,1,0.014,-0.013,0.002,-0.032,0.007,0.003,-1.559,0.022,0.076,36.92,96.8,40.521034,-3.411976,632.4,3,5,324.5,0.0
38.02,1,0.02,-0.002,0.009,-0.002,-0.005,0.006,-1.562,0.02,0.076,36.92,96.8,40.521034,-3.411976,632.4,3,5,324.5,0.0
38.11,1,0.055,0.002,-0.004,0.03,-0.0,0.005,-1.561,0.019,0.076,37.92,95.0,40.521191,-3.412152,632.8,3,5,324.5,0.0
38.21,1,0.01,-0.02,-0.022,0.03,-0.007,-0.011,-1.56,0.019,0.077,37.92,95.0,40.521191,-3.412152,632.8,3,5,324.5,0.0
38.31,1,-0.038,-0.007,-0.007,-0.004,-0.008,-0.012,-1.561,0.018,0.076,37.92,95.0,40.521191,-3.412152,632.8,3,5,324.5,0.0
38.41,1,-0.056,0.004,0.029,-0.035,-0.004,0.009,-1.566,0.016,0.076,37.92,95.0,40.521191,-3.412152,632.8,3,5,324.5,0.0
38.51,1,-0.042,0.009,-0.012,-0.043,-0.002,-0.001,-1.567,0.016,0.076,37.92,95.0,40.521191,-3.412152,632.8,3,5,324.5,0.0
38.62,1,-0.003,0.016,-0.0,-0.022,0.01,0.004,-1.568,0.018,0.076,37.92,95.0,40.521191,-3.412152,632.8,3,5,324.5,0.0
38.71,1,-0.007,0.012,0.004,-0.021,0.016,-0.002,-1.566,0.018,0.076,37.92,95.0,40.521191,-3.412152,632.8,3,5,324.5,0.0
38.81,1,0.018,-0.018,0.002,0.003,-0.003,0.004,-1.564,0.02,0.076,37.92,95.0,40.521191,-3.412152,632.8,3,5,324.5,0.0
38.91,1,0.005,-0.01,-0.012,0.013,-0.004,-0.005,-1.564,0.018,0.075,37.92,95.0,40.521191,-3.412152,632.8,3,5,324.5,0.0
39.01,1,-0.04,0.023,0.01,-0.013,-0.0,0.001,-1.568,0.016,0.075,37.92,95.0,40.521191,-3.412152,632.8,3,5,324.5,0.0
39.11,1,-0.056,0.005,0.002,-0.043,0.013,0.005,-1.57,0.016,0.075,38.95,93.6,40.521442,-3.412376,624.7,3,5,324.8,0.352
39.21,1,0.004,0.0,0.004,-0.022,0.005,0.005,-1.57,0.018,0.074,38.95,93.6,40.521442,-3.412376,624.7,3,5,324.8,0.352
39.31,1,-0.04,-0.004,-0.032,-0.019,0.003,-0.01,-1.569,0.017,0.074,38.95,93.6,40.521442,-3.412376,624.7,3,5,324.8,0.352
39.42,1,-0.041,0.034,-0.005,-0.038,0.012,-0.018,-1.567,0.015,0.073,38.95,93.6,40.521442,-3.412376,624.7,3,5,324.8,0.352
39.51,1,-0.009,0.039,0.022,-0.026,0.027,0.004,-1.566,0.012,0.071,38.95,93.6,40.521442,-3.412376,624.7,3,5,324.8,0.352
39.61,1,0.016,0.053,0.018,-0.004,0.04,0.013,-1.563,0.01,0.07,38.95,93.6,40.521442,-3.412376,624.7,3,5,324.8,0.352
39.71,1,0.04,0.048,-0.015,0.02,0.043,-0.001,-1.565,0.006,0.068,38.95,93.6,40.521442,-3.412376,624.7,3,5,324.8,0.352
39.81,1,-0.015,0.023,-0.019,0.006,0.042,-0.009,-1.565,0.003,0.067,38.95,93.6,40.521442,-3.412376,624.7,3,5,324.8,0.352
39.92,1,-0.039,0.027,-0.001,-0.011,0.031,-0.008,-1.567,-0.001,0.065,38.95,93.6,40.521442,-3.412376,624.7,3,5,324.8,0.352
40.02,1,-0.063,0.018,-0.006,-0.041,0.022,-0.006,-1.571,-0.003,0.064,38.95,93.6,40.521442,-3.412376,624.7,3,5,324.8,0.352
40.12,1,-0.058,0.023,0.003,-0.053,0.02,-0.0,-1.572,-0.004,0.062,39.91,92.8,40.521629,-3.412551,625.4,3,5,325.2,0.352
40.21,1,0.003,0.038,0.026,-0.033,0.028,0.008,-1.57,-0.006,0.06,39.91,92.8,40.521629,-3.412551,625.4,3,5,325.2,0.352
40.31,1,0.053,0.011,0.01,0.015,0.025,0.012,-1.566,-0.008,0.059,39.91,92.8,40.521629,-3.412551,625.4,3,5,325.2,0.352
40.41,1,-0.006,-0.007,0.005,0.017,0.006,0.011,-1.567,-0.006,0.058,39.91,92.8,40.521629,-3.412551,625.4,3,5,325.2,0.352
40.51,1,-0.037,-0.016,-0.015,-0.022,-0.004,-0.003,-1.568,-0.005,0.058,39.91,92.8,40.521629,-3.412551,625.4,3,5,325.2,0.352
40.61,1,-0.013,-0.016,0.002,-0.015,-0.009,-0.003,-1.569,-0.004,0.057,39.91,92.8,40.521629,-3.412551,625.4,3,5,325.2,0.352
40.71,1,-0.014,-0.002,-0.007,-0.005,-0.009,-0.001,-1.569,-0.005,0.056,39.91,92.8,40.521629,-3.412551,625.4,3,5,325.2,0.352
40.81,1,-0.019,0.002,-0.011,-0.024,-0.002,-0.008,-1.57,-0.004,0.056,39.91,92.8,40.521629,-3.412551,625.4,3,5,325.2,0.352
40.91,1,0.015,-0.025,-0.026,-0.0,-0.012,-0.02,-1.571,-0.002,0.055,39.91,92.8,40.521629,-3.412551,625.4,3,5,325.2,0.352
41.12,1,-0.002,-0.002,0.002,-0.011,-0.015,-0.006,-1.567,0.003,0.055,39.91,92.8,40.521629,-3.412551,625.4,3,5,325.2,0.352
41.22,1,-0.014,-0.028,-0.01,-0.013,-0.016,-0.007,-1.562,0.006,0.055,40.94,92.0,40.521839,-3.412715,627.2,3,5,325.9,1.055
41.32,1,-0.032,-0.008,0.003,-0.013,-0.02,0.001,-1.562,0.008,0.055,40.94,92.0,40.521839,-3.412715,627.2,3,5,325.9,1.055
41.42,1,-0.015,-0.008,-0.016,-0.02,-0.012,-0.009,-1.562,0.01,0.055,40.94,92.0,40.521839,-3.412715,627.2,3,5,325.9,1.055
41.52,1,0.019,-0.047,-0.005,-0.007,-0.021,-0.005,-1.56,0.012,0.056,40.94,92.0,40.521839,-3.412715,627.2,3,5,325.9,1.055
41.62,1,-0.006,-0.023,0.003,-0.003,-0.028,-0.006,-1.559,0.015,0.056,40.94,92.0,40.521839,-3.412715,627.2,3,5,325.9,1.055
41.72,1,-0.065,-0.018,0.003,-0.024,-0.024,0.0,-1.559,0.015,0.057,40.94,92.0,40.521839,-3.412715,627.2,3,5,325.9,1.055
41.82,1,0.034,-0.039,-0.022,-0.016,-0.03,-0.011,-1.561,0.016,0.058,40.94,92.0,40.521839,-3.412715,627.2,3,5,325.9,1.055
41.92,1,0.009,-0.036,-0.003,0.007,-0.035,-0.008,-1.564,0.018,0.058,40.94,92.0,40.521839,-3.412715,627.2,3,5,325.9,1.055
42.02,1,-0.026,-0.029,-0.024,-0.005,-0.03,-0.011,-1.565,0.019,0.06,40.94,92.0,40.521839,-3.412715,627.2,3,5,325.9,1.055
42.12,1,0.01,-0.02,-0.029,-0.0,-0.024,-0.022,-1.565,0.02,0.061,40.94,92.0,40.521839,-3.412715,627.2,3,5,325.9,1.055
42.22,1,-0.019,-0.031,-0.006,-0.006,-0.028,-0.018,-1.563,0.025,0.063,41.94,91.0,40.522038,-3.412878,628.7,3,5,326.6,1.406
42.32,1,0.029,-0.034,-0.011,0.0,-0.03,-0.009,-1.563,0.033,0.065,41.94,91.0,40.522038,-3.412878,628.7,3,5,326.6,1.406
42.42,1,0.009,-0.04,-0.02,0.012,-0.037,-0.016,-1.562,0.036,0.068,41.94,91.0,40.522038,-3.412878,628.7,3,5,326.6,1.406
42.52,1,-0.067,-0.024,-0.013,-0.017,-0.034,-0.018,-1.562,0.037,0.07,41.94,91.0,40.522038,-3.412878,628.7,3,5,326.6,1.406
42.62,1,-0.049,-0.028,0.006,-0.045,-0.028,-0.004,-1.566,0.039,0.072,41.94,91.0,40.522038,-3.412878,628.7,3,5,326.6,1.406
42.72,1,-0.046,-0.049,-0.015,-0.045,-0.036,-0.012,-1.568,0.041,0.074,41.94,91.0,40.522038,-3.412878,628.7,3,5,326.6,1.406
42.82,1,-0.064,-0.057,-0.019,-0.048,-0.052,-0.019,-1.569,0.043,0.077,41.94,91.0,40.522038,-3.412878,628.7,3,5,326.6,1.406
42.92,1,-0.004,-0.019,0.022,-0.041,-0.037,0.008,-1.569,0.042,0.078,41.94,91.0,40.522038,-3.412878,628.7,3,5,326.6,1.406
43.02,1,-0.038,-0.015,-0.01,-0.025,-0.025,0.005,-1.574,0.039,0.08,41.94,91.0,40.522038,-3.412878,628.7,3,5,326.6,1.406
43.12,1,-0.096,-0.015,-0.041,-0.057,-0.016,-0.027,-1.576,0.037,0.083,41.94,91.0,40.522038,-3.412878,628.7,3,5,326.6,1.406
43.22,1,-0.059,-0.043,-0.033,-0.076,-0.023,-0.027,-1.576,0.038,0.085,42.93,90.4,40.522228,-3.413044,630.9,3,5,325.9,0.703
43.32,1,0.031,-0.044,-0.008,-0.018,-0.041,-0.026,-1.575,0.039,0.087,42.93,90.4,40.522228,-3.413044,630.9,3,5,325.9,0.703
43.42,1,-0.015,-0.02,-0.031,-0.01,-0.034,-0.026,-1.577,0.037,0.089,42.93,90.4,40.522228,-3.413044,630.9,3,5,325.9,0.703
43.53,1,0.013,0.004,-0.004,-0.006,-0.013,-0.009,-1.581,0.032,0.091,42.93,90.4,40.522228,-3.413044,630.9,3,5,325.9,0.703
43.62,1,-0.012,0.013,-0.02,0.002,0.001,-0.008,-1.581,0.031,0.094,42.93,90.4,40.522228,-3.413044,630.9,3,5,325.9,0.703
43.74,1,-0.002,-0.026,-0.014,-0.006,-0.007,-0.024,-1.579,0.031,0.096,42.93,90.4,40.522228,-3.413044,630.9,3,5,325.9,0.703
43.82,1,0.007,-0.029,-0.022,-0.004,-0.022,-0.018,-1.578,0.033,0.099,42.93,90.4,40.522228,-3.413044,630.9,3,5,325.9,0.703
43.92,1,-0.031,-0.019,0.021,-0.004,-0.023,0.001,-1.58,0.034,0.101,42.93,90.4,40.522228,-3.413044,630.9,3,5,325.9,0.703
44.02,1,-0.07,-0.034,-0.023,-0.048,-0.027,-0.011,-1.58,0.033,0.103,42.93,90.4,40.522228,-3.413044,630.9,3,5,325.9,0.703
44.12,1,0.016,-0.002,0.03,-0.024,-0.014,0.004,-1.58,0.033,0.105,42.93,90.4,40.522228,-3.413044,630.9,3,5,325.9,0.703
44.23,1,0.077,-0.046,0.013,0.027,-0.025,0.022,-1.582,0.036,0.108,43.91,91.1,40.52243,-3.413203,633.5,3,5,327.3,1.406
44.33,1,-0.004,-0.025,0.002,0.032,-0.032,0.008,-1.579,0.039,0.111,43.91,91.1,40.52243,-3.413203,633.5,3,5,327.3,1.406
44.42,1,-0.042,-0.039,0.005,-0.008,-0.033,0.001,-1.578,0.042,0.114,43.91,91.1,40.52243,-3.413203,633.5,3,5,327.3,1.406
44.53,1,-0.051,-0.048,-0.005,-0.032,-0.04,0.005,-1.58,0.044,0.118,43.91,91.1,40.52243,-3.413203,633.5,3,5,327.3,1.406
44.63,1,-0.033,-0.049,0.002,-0.045,-0.044,-0.005,-1.58,0.044,0.121,43.91,91.1,40.52243,-3.413203,633.5,3,5,327.3,1.406
44.73,1,-0.002,-0.036,0.031,-0.021,-0.044,0.013,-1.579,0.042,0.125,43.91,91.1,40.52243,-3.413203,633.5,3,5,327.3,1.406
44.83,1,-0.036,-0.014,0.007,-0.017,-0.028,0.018,-1.581,0.042,0.129,43.91,91.1,40.52243,-3.413203,633.5,3,5,327.3,1.406
44.94,1,-0.021,-0.04,0.01,-0.029,-0.03,0.01,-1.581,0.047,0.133,43.91,91.1,40.52243,-3.413203,633.5,3,5,327.3,1.406
45.03,1,0.001,-0.021,0.023,-0.015,-0.029,0.016,-1.582,0.051,0.137,43.91,91.1,40.52243,-3.413203,633.5,3,5,327.3,1.406
45.13,1,0.007,-0.005,0.022,-0.002,-0.02,0.018,-1.585,0.051,0.14,43.91,91.1,40.52243,-3.413203,633.5,3,5,327.3,1.406
45.23,1,0.023,-0.041,0.006,0.013,-0.027,0.014,-1.586,0.049,0.144,44.93,89.7,40.522602,-3.413379,633.8,3,5,323.8,3.516
45.33,1,-0.052,-0.012,-0.002,-0.008,-0.021,0.009,-1.587,0.049,0.148,44.93,89.7,40.522602,-3.413379,633.8,3,5,323.8,3.516
45.43,1,-0.016,-0.018,0.007,-0.027,-0.018,0.001,-1.587,0.05,0.152,44.93,89.7,40.522602,-3.413379,633.8,3,5,323.8,3.516
45.53,1,-0.036,-0.026,0.023,-0.031,-0.021,0.016,-1.584,0.053,0.156,44.93,89.7,40.522602,-3.413379,633.8,3,5,323.8,3.516
45.64,1,-0.044,-0.012,-0.008,-0.032,-0.019,0.006,-1.585,0.054,0.159,44.93,89.7,40.522602,-3.413379,633.8,3,5,323.8,3.516
45.74,1,0.001,-0.008,0.011,-0.024,-0.012,-0.0,-1.587,0.054,0.164,44.93,89.7,40.522602,-3.413379,633.8,3,5,323.8,3.516
45.83,1,-0.005,-0.008,0.028,-0.009,-0.009,0.019,-1.591,0.053,0.168,44.93,89.7,40.522602,-3.413379,633.8,3,5,323.8,3.516
45.93,1,0.005,-0.029,-0.019,0.0,-0.019,0.0,-1.59,0.054,0.173,44.93,89.7,40.522602,-3.413379,633.8,3,5,323.8,3.516
46.03,1,0.007,-0.024,0.003,0.007,-0.021,0.001,-1.589,0.058,0.177,44.93,89.7,40.522602,-3.413379,633.8,3,5,323.8,3.516
46.13,1,-0.035,-0.002,-0.012,-0.007,-0.016,-0.002,-1.588,0.057,0.182,44.93,89.7,40.522602,-3.413379,633.8,3,5,323.8,3.516
46.24,1,-0.035,-0.006,-0.002,-0.037,-0.006,-0.004,-1.589,0.055,0.186,45.92,86.5,40.52277,-3.413551,631.5,3,5,322.4,4.922
46.33,1,0.004,-0.029,-0.0,-0.021,-0.018,-0.007,-1.591,0.053,0.19,45.92,86.5,40.52277,-3.413551,631.5,3,5,322.4,4.922
46.43,1,-0.03,-0.0,0.023,-0.013,-0.009,0.013,-1.592,0.051,0.194,45.92,86.5,40.52277,-3.413551,631.5,3,5,322.4,4.922
46.53,1,-0.067,0.028,-0.011,-0.032,0.005,0.006,-1.594,0.046,0.198,45.92,86.5,40.52277,-3.413551,631.5,3,5,322.4,4.922
46.63,1,0.018,-0.011,-0.002,-0.021,0.004,-0.004,-1.597,0.044,0.201,45.92,86.5,40.52277,-3.413551,631.5,3,5,322.4,4.922
46.73,1,-0.03,0.033,0.016,-0.011,0.011,0.009,-1.601,0.04,0.203,45.92,86.5,40.52277,-3.413551,631.5,3,5,322.4,4.922
46.83,1,-0.062,0.025,-0.025,-0.05,0.022,-0.01,-1.602,0.039,0.206,45.92,86.5,40.52277,-3.413551,631.5,3,5,322.4,4.922
46.94,1,-0.051,0.012,0.005,-0.049,0.017,-0.008,-1.6,0.036,0.209,45.92,86.5,40.52277,-3.413551,631.5,3,5,322.4,4.922
47.03,1,-0.006,0.026,0.022,-0.038,0.024,0.011,-1.599,0.032,0.212,45.92,86.5,40.52277,-3.413551,631.5,3,5,322.4,4.922
47.13,1,0.029,0.026,-0.01,0.004,0.022,0.002,-1.597,0.028,0.214,45.92,86.5,40.52277,-3.413551,631.5,3,5,322.4,4.922
47.23,1,-0.013,-0.002,-0.006,-0.002,0.013,-0.003,-1.599,0.024,0.218,46.91,86.1,40.52293,-3.413735,632.7,3,5,320.3,3.516
47.33,1,-0.035,-0.009,-0.009,-0.014,0.001,-0.003,-1.599,0.021,0.221,46.91,86.1,40.52293,-3.413735,632.7,3,5,320.3,3.516
47.43,1,0.001,-0.005,0.025,-0.015,-0.001,0.005,-1.597,0.02,0.224,46.91,86.1,40.52293,-3.413735,632.7,3,5,320.3,3.516
47.53,1,0.005,-0.033,-0.001,0.001,-0.019,0.002,-1.593,0.022,0.228,46.91,86.1,40.52293,-3.413735,632.7,3,5,320.3,3.516
47.63,1,-0.014,-0.009,0.031,-0.008,-0.018,0.017,-1.593,0.021,0.231,46.91,86.1,40.52293,-3.413735,632.7,3,5,320.3,3.516
47.73,1,0.015,0.003,0.011,-0.002,-0.009,0.017,-1.593,0.019,0.235,46.91,86.1,40.52293,-3.413735,632.7,3,5,320.3,3.516
47.83,1,0.032,0.005,0.004,0.016,0.003,0.01,-1.593,0.016,0.238,46.91,86.1,40.52293,-3.413735,632.7,3,5,320.3,3.516
47.93,1,0.03,0.014,0.017,0.027,0.008,0.015,-1.594,0.015,0.242,46.91,86.1,40.52293,-3.413735,632.7,3,5,320.3,3.516
48.05,1,-0.019,-0.001,-0.001,0.012,0.009,0.007,-1.595,0.014,0.246,46.91,86.1,40.52293,-3.413735,632.7,3,5,320.3,3.516
48.15,1,-0.024,-0.019,-0.001,-0.008,-0.004,0.005,-1.595,0.014,0.25,46.91,86.1,40.52293,-3.413735,632.7,3,5,320.3,3.516
48.23,1,0.06,-0.039,0.028,0.013,-0.029,0.009,-1.592,0.016,0.253,47.97,85.7,40.52309,-3.413924,633.7,3,5,318.2,4.219
48.34,1,-0.026,0.019,0.035,0.005,-0.014,0.025,-1.591,0.014,0.256,47.97,85.7,40.52309,-3.413924,633.7,3,5,318.2,4.219
48.44,1,0.014,0.03,0.024,-0.002,0.017,0.025,-1.588,0.013,0.26,47.97,85.7,40.52309,-3.413924,633.7,3,5,318.2,4.219
48.54,1,0.071,0.003,-0.004,0.036,0.018,0.014,-1.584,0.012,0.264,47.97,85.7,40.52309,-3.413924,633.7,3,5,318.2,4.219
48.64,1,0.022,-0.01,0.002,0.05,-0.002,0.006,-1.583,0.013,0.268,47.97,85.7,40.52309,-3.413924,633.7,3,5,318.2,4.219
48.74,1,-0.092,-0.032,-0.011,-0.02,-0.014,-0.001,-1.587,0.014,0.271,47.97,85.7,40.52309,-3.413924,633.7,3,5,318.2,4.219
48.84,1,-0.111,-0.002,0.008,-0.077,-0.016,-0.0,-1.591,0.012,0.274,47.97,85.7,40.52309,-3.413924,633.7,3,5,318.2,4.219
48.94,1,-0.119,0.012,0.013,-0.104,-0.003,0.006,-1.596,0.01,0.277,47.97,85.7,40.52309,-3.413924,633.7,3,5,318.2,4.219
49.04,1,-0.046,0.007,0.008,-0.086,0.009,0.01,-1.6,0.011,0.28,47.97,85.7,40.52309,-3.413924,633.7,3,5,318.2,4.219
49.14,1,0.086,-0.005,0.018,-0.005,0.0,0.007,-1.602,0.012,0.284,47.97,85.7,40.52309,-3.413924,633.7,3,5,318.2,4.219
49.24,1,0.029,0.011,0.026,0.035,0.003,0.029,-1.6,0.013,0.286,48.94,85.5,40.523243,-3.414117,635.4,3,5,316.4,3.867
49.35,1,0.07,0.0,-0.015,0.044,0.003,0.004,-1.602,0.011,0.289,48.94,85.5,40.523243,-3.414117,635.4,3,5,316.4,3.867
49.44,1,0.048,0.018,-0.002,0.057,0.012,-0.001,-1.599,0.007,0.291,48.94,85.5,40.523243,-3.414117,635.4,3,5,316.4,3.867
49.54,1,-0.043,0.052,-0.033,0.01,0.026,-0.015,-1.596,0.004,0.292,48.94,85.5,40.523243,-3.414117,635.4,3,5,316.4,3.867
49.64,1,-0.095,0.061,0.012,-0.055,0.052,-0.009,-1.6,0.003,0.294,48.94,85.5,40.523243,-3.414117,635.4,3,5,316.4,3.867
49.75,1,-0.052,-0.006,-0.018,-0.055,0.027,-0.004,-1.6,0.004,0.296,48.94,85.5,40.523243,-3.414117,635.4,3,5,316.4,3.867
49.84,1,-0.059,0.001,-0.033,-0.055,0.005,-0.023,-1.599,0.005,0.298,48.94,85.5,40.523243,-3.414117,635.4,3,5,316.4,3.867
49.95,1,-0.005,0.018,0.025,-0.044,0.011,-0.004,-1.6,0.003,0.299,48.94,85.5,40.523243,-3.414117,635.4,3,5,316.4,3.867
50.04,1,0.044,0.039,-0.02,0.017,0.024,-0.004,-1.6,-0.002,0.301,48.94,85.5,40.523243,-3.414117,635.4,3,5,316.4,3.867
50.14,1,0.018,0.042,0.004,0.018,0.033,-0.007,-1.602,-0.001,0.303,48.94,85.5,40.523243,-3.414117,635.4,3,5,316.4,3.867
50.24,1,0.015,0.001,0.002,0.013,0.027,0.002,-1.603,-0.001,0.305,49.91,85.4,40.523396,-3.414317,636.0,3,5,314.3,3.867
50.34,1,0.007,0.042,0.026,0.012,0.03,0.014,-1.6,0.002,0.307,49.91,85.4,40.523396,-3.414317,636.0,3,5,314.3,3.867
50.44,1,0.033,-0.016,-0.007,0.017,0.013,0.005,-1.597,0.004,0.31,49.91,85.4,40.523396,-3.414317,636.0,3,5,314.3,3.867
50.55,1,-0.028,0.032,0.027,0.006,0.01,0.013,-1.595,0.004,0.312,49.91,85.4,40.523396,-3.414317,636.0,3,5,314.3,3.867
50.64,1,0.001,0.042,0.009,-0.014,0.028,0.01,-1.596,0.001,0.314,49.91,85.4,40.523396,-3.414317,636.0,3,5,314.3,3.867
50.74,1,0.065,0.0,0.012,0.028,0.023,0.015,-1.596,0.0,0.316,49.91,85.4,40.523396,-3.414317,636.0,3,5,314.3,3.867
50.84,1,-0.017,0.037,0.021,0.028,0.02,0.012,-1.592,-0.0,0.318,49.91,85.4,40.523396,-3.414317,636.0,3,5,314.3,3.867
50.95,1,-0.033,0.033,0.01,-0.015,0.03,0.017,-1.591,0.002,0.32,49.91,85.4,40.523396,-3.414317,636.0,3,5,314.3,3.867
51.14,1,-0.013,0.005,0.004,-0.011,0.007,0.006,-1.596,-0.004,0.324,49.91,85.4,40.523396,-3.414317,636.0,3,5,314.3,3.867
51.25,1,-0.011,0.013,0.02,-0.011,0.013,0.016,-1.598,-0.011,0.326,49.91,85.4,40.523396,-3.414317,636.0,3,5,314.3,3.867
51.34,1,0.026,-0.008,-0.01,-0.004,0.005,0.004,-1.599,-0.014,0.328,50.95,85.2,40.52354,-3.414523,637.1,3,5,312.9,3.516
51.44,1,-0.008,-0.003,-0.0,0.01,0.001,0.004,-1.6,-0.014,0.33,50.95,85.2,40.52354,-3.414523,637.1,3,5,312.9,3.516
51.55,1,-0.004,0.017,0.026,-0.009,0.001,0.008,-1.604,-0.016,0.332,50.95,85.2,40.52354,-3.414523,637.1,3,5,312.9,3.516
51.65,1,-0.02,0.0,0.027,-0.007,0.008,0.023,-1.604,-0.016,0.334,50.95,85.2,40.52354,-3.414523,637.1,3,5,312.9,3.516
51.75,1,-0.015,-0.014,-0.008,-0.012,-0.008,0.004,-1.607,-0.018,0.336,50.95,85.2,40.52354,-3.414523,637.1,3,5,312.9,3.516
51.84,1,-0.01,-0.003,0.009,-0.016,-0.006,0.006,-1.609,-0.018,0.338,50.95,85.2,40.52354,-3.414523,637.1,3,5,312.9,3.516
51.94,1,0.012,-0.025,0.007,0.002,-0.013,0.008,-1.608,-0.014,0.34,50.95,85.2,40.52354,-3.414523,637.1,3,5,312.9,3.516
52.04,1,0.037,-0.049,-0.027,0.015,-0.024,-0.003,-1.609,-0.011,0.343,50.95,85.2,40.52354,-3.414523,637.1,3,5,312.9,3.516
52.15,1,-0.052,0.021,0.022,0.0,-0.014,-0.0,-1.607,-0.006,0.346,50.95,85.2,40.52354,-3.414523,637.1,3,5,312.9,3.516
52.25,1,-0.006,-0.028,-0.003,-0.033,-0.011,0.003,-1.605,-0.004,0.349,50.95,85.2,40.52354,-3.414523,637.1,3,5,312.9,3.516
52.35,1,0.019,-0.049,0.0,0.008,-0.038,-0.003,-1.605,-0.001,0.352,51.94,85.3,40.523682,-3.41473,637.8,3,5,311.1,3.164
52.46,1,-0.07,-0.035,-0.004,-0.029,-0.032,-0.002,-1.605,-0.002,0.355,51.94,85.3,40.523682,-3.41473,637.8,3,5,311.1,3.164
52.55,1,-0.0,-0.021,0.031,-0.012,-0.03,0.009,-1.607,-0.002,0.359,51.94,85.3,40.523682,-3.41473,637.8,3,5,311.1,3.164
52.65,1,0.001,-0.014,-0.003,-0.007,-0.026,0.009,-1.608,-0.001,0.362,51.94,85.3,40.523682,-3.41473,637.8,3,5,311.1,3.164
52.75,1,0.046,-0.016,-0.011,0.012,-0.023,0.0,-1.609,0.0,0.365,51.94,85.3,40.523682,-3.41473,637.8,3,5,311.1,3.164
52.85,1,0.03,-0.024,-0.002,0.026,-0.017,-0.0,-1.61,-0.001,0.368,51.94,85.3,40.523682,-3.41473,637.8,3,5,311.1,3.164
52.95,1,0.027,-0.031,0.02,0.028,-0.025,0.008,-1.609,-0.002,0.371,51.94,85.3,40.523682,-3.41473,637.8,3,5,311.1,3.164
53.05,1,-0.056,0.006,-0.017,0.002,-0.012,-0.004,-1.61,-0.002,0.373,51.94,85.3,40.523682,-3.41473,637.8,3,5,311.1,3.164
53.15,1,-0.033,-0.017,-0.012,-0.038,-0.008,-0.008,-1.615,-0.004,0.375,51.94,85.3,40.523682,-3.41473,637.8,3,5,311.1,3.164
53.25,1,0.035,-0.03,0.022,-0.006,-0.021,0.003,-1.618,-0.005,0.378,51.94,85.3,40.523682,-3.41473,637.8,3,5,311.1,3.164
53.35,1,0.01,-0.001,0.014,0.012,-0.011,0.01,-1.621,-0.003,0.381,52.91,85.7,40.523819,-3.414949,638.2,3,5,309.4,3.516
53.46,1,0.008,0.009,-0.009,0.016,-0.002,0.005,-1.618,-0.004,0.383,52.91,85.7,40.523819,-3.414949,638.2,3,5,309.4,3.516
53.55,1,-0.065,0.001,-0.023,-0.02,-0.002,-0.008,-1.616,-0.003,0.386,52.91,85.7,40.523819,-3.414949,638.2,3,5,309.4,3.516
53.65,1,0.057,-0.008,0.015,-0.002,-0.001,-0.003,-1.617,-0.003,0.387,52.91,85.7,40.523819,-3.414949,638.2,3,5,309.4,3.516
53.75,1,0.015,-0.013,-0.026,0.019,-0.008,-0.01,-1.619,-0.004,0.39,52.91,85.7,40.523819,-3.414949,638.2,3,5,309.4,3.516
53.85,1,-0.028,-0.009,0.002,-0.0,-0.004,-0.009,-1.617,-0.004,0.391,52.91,85.7,40.523819,-3.414949,638.2,3,5,309.4,3.516
53.95,1,0.021,0.006,0.023,0.005,-0.003,0.008,-1.617,-0.006,0.393,52.91,85.7,40.523819,-3.414949,638.2,3,5,309.4,3.516
54.05,1,0.008,-0.016,-0.028,0.011,-0.006,-0.0,-1.611,-0.008,0.395,52.91,85.7,40.523819,-3.414949,638.2,3,5,309.4,3.516
54.16,1,-0.031,0.012,0.015,-0.009,-0.002,0.002,-1.611,-0.008,0.396,52.91,85.7,40.523819,-3.414949,638.2,3,5,309.4,3.516
54.26,1,-0.027,0.003,-0.018,-0.026,0.0,-0.012,-1.612,-0.008,0.398,52.91,85.7,40.523819,-3.414949,638.2,3,5,309.4,3.516
54.35,1,-0.009,-0.004,0.016,-0.018,0.001,0.004,-1.612,-0.005,0.4,53.98,86.3,40.523949,-3.415178,638.8,3,5,307.3,3.867
54.45,1,-0.019,-0.018,0.014,-0.021,-0.007,0.008,-1.614,-0.006,0.402,53.98,86.3,40.523949,-3.415178,638.8,3,5,307.3,3.867
54.55,1,0.017,-0.026,-0.009,-0.001,-0.023,0.004,-1.615,-0.007,0.404,53.98,86.3,40.523949,-3.415178,638.8,3,5,307.3,3.867
54.65,1,0.002,0.02,0.013,0.001,-0.001,0.005,-1.615,-0.012,0.405,53.98,86.3,40.523949,-3.415178,638.8,3,5,307.3,3.867
54.76,1,0.032,0.005,0.018,0.018,0.004,0.013,-1.615,-0.015,0.407,53.98,86.3,40.523949,-3.415178,638.8,3,5,307.3,3.867
54.86,1,0.027,0.001,0.008,0.021,0.007,0.013,-1.616,-0.013,0.408,53.98,86.3,40.523949,-3.415178,638.8,3,5,307.3,3.867
54.96,1,-0.01,0.001,-0.004,0.017,0.002,0.003,-1.616,-0.014,0.41,53.98,86.3,40.523949,-3.415178,638.8,3,5,307.3,3.867
55.05,1,-0.064,-0.003,-0.013,-0.023,-0.005,-0.007,-1.618,-0.014,0.411,53.98,86.3,40.523949,-3.415178,638.8,3,5,307.3,3.867
55.16,1,0.004,-0.005,0.002,-0.035,-0.001,0.002,-1.619,-0.011,0.413,53.98,86.3,40.523949,-3.415178,638.8,3,5,307.3,3.867
55.26,1,0.003,-0.005,0.011,0.001,-0.002,0.002,-1.618,-0.009,0.414,53.98,86.3,40.523949,-3.415178,638.8,3,5,307.3,3.867
55.36,1,0.048,-0.024,-0.022,0.013,-0.011,-0.005,-1.618,-0.008,0.416,54.92,87.2,40.524075,-3.415417,639.6,3,5,305.2,4.219
55.46,1,0.033,-0.006,-0.01,0.037,-0.02,-0.017,-1.616,-0.003,0.418,54.92,87.2,40.524075,-3.415417,639.6,3,5,305.2,4.219
55.56,1,-0.007,-0.017,-0.01,0.013,-0.011,-0.005,-1.615,-0.002,0.419,54.92,87.2,40.524075,-3.415417,639.6,3,5,305.2,4.219
55.66,1,-0.072,0.007,-0.009,-0.026,-0.0,-0.011,-1.616,-0.001,0.422,54.92,87.2,40.524075,-3.415417,639.6,3,5,305.2,4.219
55.76,1,-0.018,-0.027,0.002,-0.028,-0.018,-0.005,-1.616,0.002,0.424,54.92,87.2,40.524075,-3.415417,639.6,3,5,305.2,4.219
55.87,1,-0.018,-0.008,-0.016,-0.024,-0.01,-0.007,-1.615,0.004,0.426,54.92,87.2,40.524075,-3.415417,639.6,3,5,305.2,4.219
55.96,1,0.031,-0.035,0.0,-0.002,-0.02,-0.01,-1.614,0.006,0.428,54.92,87.2,40.524075,-3.415417,639.6,3,5,305.2,4.219
56.07,1,0.005,-0.016,-0.009,0.007,-0.025,-0.004,-1.613,0.008,0.431,54.92,87.2,40.524075,-3.415417,639.6,3,5,305.2,4.219
56.16,1,-0.003,0.001,-0.026,0.008,-0.011,-0.011,-1.615,0.008,0.434,54.92,87.2,40.524075,-3.415417,639.6,3,5,305.2,4.219
56.26,1,-0.093,0.003,-0.038,-0.033,-0.004,-0.033,-1.617,0.009,0.436,54.92,87.2,40.524075,-3.415417,639.6,3,5,305.2,4.219
56.36,1,-0.005,-0.046,-0.012,-0.038,-0.014,-0.026,-1.617,0.014,0.438,55.98,88.2,40.524193,-3.415658,638.9,3,5,303.4,3.867
56.46,1,-0.002,-0.043,-0.029,-0.015,-0.038,-0.017,-1.615,0.018,0.44,55.98,88.2,40.524193,-3.415658,638.9,3,5,303.4,3.867
56.57,1,0.021,0.005,-0.014,-0.005,-0.019,-0.018,-1.612,0.018,0.443,55.98,88.2,40.524193,-3.415658,638.9,3,5,303.4,3.867
56.66,1,0.099,-0.013,0.002,0.042,-0.009,-0.015,-1.608,0.019,0.445,55.98,88.2,40.524193,-3.415658,638.9,3,5,303.4,3.867
56.77,1,-0.01,-0.0,-0.007,0.045,-0.01,-0.003,-1.605,0.022,0.447,55.98,88.2,40.524193,-3.415658,638.9,3,5,303.4,3.867
56.87,1,-0.1,0.03,0.006,-0.032,0.008,0.004,-1.607,0.023,0.449,55.98,88.2,40.524193,-3.415658,638.9,3,5,303.4,3.867
56.96,1,0.014,-0.0,-0.015,-0.032,0.012,-0.009,-1.607,0.024,0.452,55.98,88.2,40.524193,-3.415658,638.9,3,5,303.4,3.867
57.06,1,-0.026,0.018,-0.006,-0.011,0.013,-0.004,-1.608,0.027,0.453,55.98,88.2,40.524193,-3.415658,638.9,3,5,303.4,3.867
57.16,1,-0.027,0.042,-0.015,-0.026,0.023,-0.019,-1.606,0.028,0.455,55.98,88.2,40.524193,-3.415658,638.9,3,5,303.4,3.867
57.26,1,0.019,0.006,-0.013,-0.01,0.022,-0.007,-1.606,0.026,0.456,55.98,88.2,40.524193,-3.415658,638.9,3,5,303.4,3.867
57.36,1,0.014,0.035,0.014,0.012,0.02,-0.004,-1.605,0.024,0.457,56.92,89.1,40.524307,-3.415904,640.2,3,5,301.3,3.867
57.46,1,0.046,0.034,-0.005,0.026,0.03,-0.002,-1.604,0.019,0.458,56.92,89.1,40.524307,-3.415904,640.2,3,5,301.3,3.867
57.56,1,-0.049,0.025,-0.013,0.001,0.03,-0.005,-1.603,0.018,0.46,56.92,89.1,40.524307,-3.415904,640.2,3,5,301.3,3.867
57.66,1,-0.075,0.009,-0.021,-0.038,0.019,-0.017,-1.602,0.018,0.461,56.92,89.1,40.524307,-3.415904,640.2,3,5,301.3,3.867
57.77,1,0.053,0.019,0.001,-0.017,0.02,-0.005,-1.601,0.017,0.462,56.92,89.1,40.524307,-3.415904,640.2,3,5,301.3,3.867
57.86,1,-0.0,0.04,-0.006,0.011,0.027,-0.001,-1.601,0.013,0.463,56.92,89.1,40.524307,-3.415904,640.2,3,5,301.3,3.867
57.97,1,-0.003,0.02,-0.006,0.0,0.027,-0.009,-1.6,0.008,0.463,56.92,89.1,40.524307,-3.415904,640.2,3,5,301.3,3.867
58.06,1,0.001,0.028,0.006,0.003,0.023,-0.004,-1.597,0.006,0.463,56.92,89.1,40.524307,-3.415904,640.2,3,5,301.3,3.867
58.16,1,-0.005,0.038,-0.044,-0.006,0.028,-0.016,-1.591,0.005,0.463,56.92,89.1,40.524307,-3.415904,640.2,3,5,301.3,3.867
58.26,1,-0.02,0.048,-0.004,-0.011,0.041,-0.022,-1.589,0.006,0.464,56.92,89.1,40.524307,-3.415904,640.2,3,5,301.3,3.867
58.37,1,-0.003,0.001,-0.02,-0.003,0.03,-0.012,-1.589,0.007,0.465,57.91,89.9,40.524418,-3.416164,640.4,3,5,299.2,4.219
58.47,1,-0.018,0.029,-0.037,-0.017,0.022,-0.025,-1.59,0.008,0.466,57.91,89.9,40.524418,-3.416164,640.4,3,5,299.2,4.219
58.56,1,-0.013,0.008,-0.024,-0.01,0.019,-0.025,-1.589,0.005,0.467,57.91,89.9,40.524418,-3.416164,640.4,3,5,299.2,4.219
58.67,1,-0.01,-0.025,-0.039,-0.017,-0.003,-0.033,-1.589,0.006,0.469,57.91,89.9,40.524418,-3.416164,640.4,3,5,299.2,4.219
58.77,1,0.032,-0.014,-0.037,0.004,-0.015,-0.037,-1.589,0.007,0.47,57.91,89.9,40.524418,-3.416164,640.4,3,5,299.2,4.219
58.86,1,0.004,-0.011,-0.027,0.018,-0.013,-0.029,-1.585,0.006,0.472,57.91,89.9,40.524418,-3.416164,640.4,3,5,299.2,4.219
58.96,1,-0.018,-0.007,-0.024,-0.008,-0.008,-0.03,-1.579,0.008,0.473,57.91,89.9,40.524418,-3.416164,640.4,3,5,299.2,4.219
59.06,1,-0.018,-0.003,-0.009,-0.009,-0.005,-0.019,-1.576,0.01,0.475,57.91,89.9,40.524418,-3.416164,640.4,3,5,299.2,4.219
59.17,1,-0.059,-0.013,-0.035,-0.035,-0.01,-0.023,-1.576,0.01,0.477,57.91,89.9,40.524418,-3.416164,640.4,3,5,299.2,4.219
59.27,1,-0.026,-0.022,-0.005,-0.039,-0.014,-0.019,-1.575,0.012,0.478,57.91,89.9,40.524418,-3.416164,640.4,3,5,299.2,4.219
59.37,1,0.049,-0.003,0.006,0.001,-0.014,-0.005,-1.573,0.015,0.48,58.91,90.6,40.524521,-3.416429,639.7,3,5,297.4,3.867
59.47,1,0.044,-0.001,-0.013,0.037,-0.007,-0.006,-1.572,0.016,0.481,58.91,90.6,40.524521,-3.416429,639.7,3,5,297.4,3.867
59.57,1,0.028,-0.018,-0.0,0.032,-0.005,-0.0,-1.574,0.017,0.483,58.91,90.6,40.524521,-3.416429,639.7,3,5,297.4,3.867
59.67,1,-0.021,-0.009,-0.007,0.012,-0.011,-0.007,-1.572,0.016,0.485,58.91,90.6,40.524521,-3.416429,639.7,3,5,297.4,3.867
59.77,1,-0.013,0.006,-0.014,-0.01,-0.006,-0.009,-1.567,0.019,0.487,58.91,90.6,40.524521,-3.416429,639.7,3,5,297.4,3.867
59.87,1,0.019,-0.02,-0.018,0.001,-0.009,-0.014,-1.562,0.025,0.489,58.91,90.6,40.524521,-3.416429,639.7,3,5,297.4,3.867
59.97,1,0.007,-0.027,-0.016,0.01,-0.018,-0.02,-1.557,0.027,0.491,58.91,90.6,40.524521,-3.416429,639.7,3,5,297.4,3.867
60.07,1,-0.014,-0.019,0.015,-0.004,-0.023,-0.001,-1.557,0.029,0.494,58.91,90.6,40.524521,-3.416429,639.7,3,5,297.4,3.867
60.17,1,0.022,-0.0,-0.0,0.009,-0.014,-0.004,-1.56,0.03,0.496,58.91,90.6,40.524521,-3.416429,639.7,3,5,297.4,3.867
60.27,1,-0.003,-0.009,-0.032,0.006,-0.004,-0.008,-1.563,0.03,0.499,58.91,90.6,40.524521,-3.416429,639.7,3,5,297.4,3.867
60.37,1,-0.028,0.008,0.026,-0.006,-0.0,0.002,-1.562,0.033,0.501,59.92,90.7,40.524624,-3.416697,640.0,3,5,295.7,3.516
60.47,1,0.036,0.002,-0.008,0.003,0.001,-0.0,-1.563,0.035,0.503,59.92,90.7,40.524624,-3.416697,640.0,3,5,295.7,3.516
60.57,1,0.061,-0.008,-0.015,0.027,-0.002,-0.004,-1.562,0.036,0.505,59.92,90.7,40.524624,-3.416697,640.0,3,5,295.7,3.516
60.67,1,0.046,-0.018,-0.022,0.049,-0.008,-0.013,-1.559,0.035,0.507,59.92,90.7,40.524624,-3.416697,640.0,3,5,295.7,3.516
60.77,1,-0.018,0.025,0.014,0.023,0.001,-0.0,-1.555,0.033,0.508,59.92,90.7,40.524624,-3.416697,640.0,3,5,295.7,3.516
60.87,1,-0.06,0.026,-0.028,-0.026,0.017,-0.017,-1.556,0.031,0.51,59.92,90.7,40.524624,-3.416697,640.0,3,5,295.7,3.516
61.08,1,0.009,0.04,-0.03,0.024,0.028,-0.006,-1.558,0.027,0.512,59.92,90.7,40.524624,-3.416697,640.0,3,5,295.7,3.516
61.18,1,-0.044,0.045,-0.015,-0.009,0.036,-0.022,-1.558,0.023,0.513,59.92,90.7,40.524624,-3.416697,640.0,3,5,295.7,3.516
61.27,1,0.017,0.031,-0.036,-0.009,0.037,-0.023,-1.556,0.024,0.513,59.92,90.7,40.524624,-3.416697,640.0,3,5,295.7,3.516
61.37,1,-0.007,0.015,0.001,-0.003,0.027,-0.019,-1.555,0.027,0.513,59.92,90.7,40.524624,-3.416697,640.0,3,5,295.7,3.516
61.47,1,0.03,0.024,-0.001,0.011,0.024,-0.006,-1.555,0.027,0.514,60.92,90.6,40.524715,-3.41697,639.2,3,5,292.9,4.57
61.57,1,-0.01,0.037,-0.027,0.007,0.028,-0.013,-1.552,0.028,0.514,60.92,90.6,40.524715,-3.41697,639.2,3,5,292.9,4.57
61.68,1,0.042,0.032,-0.046,0.015,0.034,-0.028,-1.549,0.028,0.514,60.92,90.6,40.524715,-3.41697,639.2,3,5,292.9,4.57
61.77,1,-0.0,0.034,-0.03,0.02,0.032,-0.034,-1.548,0.028,0.514,60.92,90.6,40.524715,-3.41697,639.2,3,5,292.9,4.57
61.87,1,-0.078,0.039,-0.025,-0.029,0.035,-0.033,-1.548,0.028,0.513,60.92,90.6,40.524715,-3.41697,639.2,3,5,292.9,4.57
61.97,1,-0.091,0.09,-0.015,-0.066,0.058,-0.021,-1.55,0.026,0.512,60.92,90.6,40.524715,-3.41697,639.2,3,5,292.9,4.57
62.08,1,0.023,0.038,0.023,-0.039,0.067,-0.004,-1.553,0.025,0.512,60.92,90.6,40.524715,-3.41697,639.2,3,5,292.9,4.57
62.18,1,0.106,-0.006,0.005,0.033,0.02,0.009,-1.551,0.026,0.511,60.92,90.6,40.524715,-3.41697,639.2,3,5,292.9,4.57
62.28,1,0.089,0.032,-0.016,0.079,0.016,-0.003,-1.549,0.026,0.51,60.92,90.6,40.524715,-3.41697,639.2,3,5,292.9,4.57
62.38,1,0.074,0.054,-0.002,0.079,0.039,-0.009,-1.547,0.024,0.509,60.92,90.6,40.524715,-3.41697,639.2,3,5,292.9,4.57
62.47,1,-0.077,0.063,-0.048,0.02,0.055,-0.019,-1.543,0.02,0.508,61.92,90.6,40.524799,-3.417249,638.8,3,5,290.7,4.922
62.57,1,-0.147,-0.004,-0.035,-0.069,0.033,-0.03,-1.542,0.023,0.509,61.92,90.6,40.524799,-3.417249,638.8,3,5,290.7,4.922
62.67,1,-0.109,-0.034,-0.004,-0.111,-0.003,-0.026,-1.545,0.024,0.508,61.92,90.6,40.524799,-3.417249,638.8,3,5,290.7,4.922
62.78,1,-0.05,-0.011,-0.035,-0.087,-0.019,-0.027,-1.544,0.025,0.508,61.92,90.6,40.524799,-3.417249,638.8,3,5,290.7,4.922
62.88,1,0.032,0.013,0.013,-0.032,-0.002,-0.009,-1.539,0.025,0.507,61.92,90.6,40.524799,-3.417249,638.8,3,5,290.7,4.922
62.98,1,0.055,0.064,-0.003,0.02,0.031,-0.0,-1.539,0.023,0.507,61.92,90.6,40.524799,-3.417249,638.8,3,5,290.7,4.922
63.08,1,0.065,0.029,0.002,0.049,0.036,-0.003,-1.536,0.023,0.507,61.92,90.6,40.524799,-3.417249,638.8,3,5,290.7,4.922
63.18,1,-0.012,0.017,-0.035,0.032,0.029,-0.014,-1.534,0.021,0.507,61.92,90.6,40.524799,-3.417249,638.8,3,5,290.7,4.922
63.28,1,-0.06,0.023,-0.028,-0.023,0.025,-0.023,-1.533,0.02,0.506,61.92,90.6,40.524799,-3.417249,638.8,3,5,290.7,4.922
63.38,1,-0.028,-0.001,-0.005,-0.027,0.009,-0.015,-1.532,0.022,0.505,61.92,90.6,40.524799,-3.417249,638.8,3,5,290.7,4.922
63.48,1,-0.046,0.038,-0.02,-0.033,0.019,-0.013,-1.531,0.019,0.504,62.92,90.4,40.524872,-3.417533,638.2,3,5,289.3,3.516
63.59,1,-0.045,0.037,-0.027,-0.05,0.033,-0.027,-1.529,0.019,0.503,62.92,90.4,40.524872,-3.417533,638.2,3,5,289.3,3.516
63.68,1,-0.033,0.006,-0.007,-0.039,0.026,-0.015,-1.529,0.021,0.502,62.92,90.4,40.524872,-3.417533,638.2,3,5,289.3,3.516
63.78,1,-0.017,0.027,0.011,-0.027,0.019,-0.01,-1.531,0.019,0.501,62.92,90.4,40.524872,-3.417533,638.2,3,5,289.3,3.516
63.88,1,-0.004,0.026,-0.029,-0.014,0.024,-0.009,-1.531,0.016,0.501,62.92,90.4,40.524872,-3.417533,638.2,3,5,289.3,3.516
63.98,1,0.012,0.003,-0.018,-0.002,0.017,-0.017,-1.531,0.018,0.5,62.92,90.4,40.524872,-3.417533,638.2,3,5,289.3,3.516
64.08,1,-0.006,0.029,0.004,-0.012,0.02,-0.01,-1.531,0.021,0.499,62.92,90.4,40.524872,-3.417533,638.2,3,5,289.3,3.516
64.18,1,0.006,0.024,-0.01,0.006,0.02,-0.005,-1.532,0.025,0.498,62.92,90.4,40.524872,-3.417533,638.2,3,5,289.3,3.516
64.28,1,-0.015,0.002,-0.012,-0.013,0.014,-0.012,-1.527,0.025,0.497,62.92,90.4,40.524872,-3.417533,638.2,3,5,289.3,3.516
64.38,1,0.008,0.017,-0.02,0.007,0.01,-0.013,-1.523,0.022,0.496,62.92,90.4,40.524872,-3.417533,638.2,3,5,289.3,3.516
64.48,1,-0.034,0.021,0.003,-0.008,0.017,-0.007,-1.522,0.019,0.494,63.92,89.9,40.52494,-3.417811,637.6,3,5,287.9,2.812
64.58,1,-0.01,0.002,0.012,-0.016,0.011,0.007,-1.52,0.017,0.493,63.92,89.9,40.52494,-3.417811,637.6,3,5,287.9,2.812
64.68,1,-0.024,0.017,0.001,-0.016,0.01,-0.001,-1.517,0.019,0.492,63.92,89.9,40.52494,-3.417811,637.6,3,5,287.9,2.812
64.79,1,-0.007,0.007,-0.003,-0.018,0.013,-0.001,-1.515,0.023,0.491,63.92,89.9,40.52494,-3.417811,637.6,3,5,287.9,2.812
64.88,1,-0.076,0.019,-0.019,-0.041,0.017,-0.005,-1.513,0.026,0.49,63.92,89.9,40.52494,-3.417811,637.6,3,5,287.9,2.812
64.98,1,-0.006,0.015,0.023,-0.038,0.016,-0.001,-1.517,0.027,0.488,63.92,89.9,40.52494,-3.417811,637.6,3,5,287.9,2.812
65.08,1,0.03,0.017,-0.003,0.009,0.014,0.013,-1.52,0.029,0.487,63.92,89.9,40.52494,-3.417811,637.6,3,5,287.9,2.812
65.18,1,0.009,0.036,0.017,0.001,0.023,0.005,-1.519,0.032,0.485,63.92,89.9,40.52494,-3.417811,637.6,3,5,287.9,2.812
65.28,1,0.021,0.02,-0.001,0.016,0.025,0.005,-1.515,0.034,0.483,63.92,89.9,40.52494,-3.417811,637.6,3,5,287.9,2.812
65.39,1,-0.047,0.043,0.009,-0.015,0.03,0.002,-1.516,0.033,0.481,63.92,89.9,40.52494,-3.417811,637.6,3,5,287.9,2.812
65.49,1,0.025,0.044,0.025,0.001,0.039,0.021,-1.517,0.031,0.478,64.92,89.2,40.525005,-3.418089,637.3,3,5,286.9,2.461
65.58,1,0.013,0.034,-0.007,0.012,0.041,0.004,-1.518,0.03,0.476,64.92,89.2,40.525005,-3.418089,637.3,3,5,286.9,2.461
65.68,1,0.036,0.029,0.015,0.02,0.034,0.008,-1.52,0.029,0.473,64.92,89.2,40.525005,-3.418089,637.3,3,5,286.9,2.461
65.78,1,0.066,0.02,0.021,0.05,0.026,0.016,-1.52,0.029,0.471,64.92,89.2,40.525005,-3.418089,637.3,3,5,286.9,2.461
65.88,1,-0.069,0.05,-0.025,0.008,0.035,0.004,-1.52,0.027,0.468,64.92,89.2,40.525005,-3.418089,637.3,3,5,286.9,2.461
65.99,1,-0.031,0.046,0.008,-0.035,0.044,-0.007,-1.521,0.027,0.465,64.92,89.2,40.525005,-3.418089,637.3,3,5,286.9,2.461
66.08,1,-0.039,0.033,-0.017,-0.034,0.042,-0.008,-1.522,0.026,0.461,64.92,89.2,40.525005,-3.418089,637.3,3,5,286.9,2.461
66.18,1,0.002,0.027,0.009,-0.025,0.032,0.0,-1.526,0.027,0.459,64.92,89.2,40.525005,-3.418089,637.3,3,5,286.9,2.461
66.28,1,-0.009,0.033,-0.029,-0.007,0.022,-0.01,-1.526,0.028,0.455,64.92,89.2,40.525005,-3.418089,637.3,3,5,286.9,2.461
66.38,1,-0.032,0.061,-0.016,-0.015,0.05,-0.02,-1.523,0.031,0.453,64.92,89.2,40.525005,-3.418089,637.3,3,5,286.9,2.461
66.48,1,0.068,0.042,-0.03,0.029,0.047,-0.023,-1.522,0.034,0.45,65.93,88.4,40.525066,-3.418365,637.1,3,5,285.8,2.109
66.59,1,-0.045,0.014,-0.031,-0.01,0.034,-0.029,-1.522,0.037,0.447,65.93,88.4,40.525066,-3.418365,637.1,3,5,285.8,2.109
66.69,1,-0.009,0.037,-0.018,-0.019,0.033,-0.021,-1.523,0.035,0.443,65.93,88.4,40.525066,-3.418365,637.1,3,5,285.8,2.109
66.78,1,-0.019,0.019,-0.062,-0.012,0.026,-0.04,-1.513,0.036,0.44,65.93,88.4,40.525066,-3.418365,637.1,3,5,285.8,2.109
66.89,1,0.015,0.033,0.005,-0.013,0.028,-0.023,-1.51,0.036,0.437,65.93,88.4,40.525066,-3.418365,637.1,3,5,285.8,2.109
66.99,1,0.029,0.028,0.026,0.006,0.031,-0.001,-1.511,0.031,0.434,65.93,88.4,40.525066,-3.418365,637.1,3,5,285.8,2.109
67.09,1,0.002,0.042,-0.007,0.022,0.032,0.004,-1.511,0.024,0.431,65.93,88.4,40.525066,-3.418365,637.1,3,5,285.8,2.109
67.19,1,-0.048,0.077,-0.01,-0.008,0.052,-0.005,-1.512,0.017,0.427,65.93,88.4,40.525066,-3.418365,637.1,3,5,285.8,2.109
67.29,1,-0.097,0.092,-0.016,-0.055,0.076,-0.008,-1.514,0.013,0.424,65.93,88.4,40.525066,-3.418365,637.1,3,5,285.8,2.109
67.39,1,-0.074,0.036,-0.025,-0.078,0.064,-0.017,-1.515,0.013,0.421,65.93,88.4,40.525066,-3.418365,637.1,3,5,285.8,2.109
67.49,1,0.016,0.011,0.016,-0.03,0.031,-0.003,-1.517,0.014,0.416,66.92,87.8,40.525124,-3.41864,636.8,3,5,285.5,1.406
67.59,1,0.011,0.04,0.003,-0.006,0.033,0.001,-1.518,0.012,0.413,66.92,87.8,40.525124,-3.41864,636.8,3,5,285.5,1.406
67.69,1,0.036,0.028,0.003,0.012,0.032,-0.001,-1.516,0.01,0.409,66.92,87.8,40.525124,-3.41864,636.8,3,5,285.5,1.406
67.79,1,0.013,0.025,0.002,0.022,0.026,0.001,-1.512,0.01,0.405,66.92,87.8,40.525124,-3.41864,636.8,3,5,285.5,1.406
67.9,1,-0.015,0.037,-0.007,-0.003,0.032,0.001,-1.51,0.011,0.401,66.92,87.8,40.525124,-3.41864,636.8,3,5,285.5,1.406
67.99,1,0.029,0.027,-0.001,0.011,0.031,-0.002,-1.511,0.012,0.398,66.92,87.8,40.525124,-3.41864,636.8,3,5,285.5,1.406
68.09,1,-0.076,0.031,-0.014,-0.017,0.032,-0.004,-1.514,0.015,0.394,66.92,87.8,40.525124,-3.41864,636.8,3,5,285.5,1.406
68.19,1,-0.024,0.027,-0.001,-0.04,0.029,-0.01,-1.514,0.015,0.39,66.92,87.8,40.525124,-3.41864,636.8,3,5,285.5,1.406
68.3,1,-0.007,0.024,-0.017,-0.018,0.024,-0.007,-1.515,0.017,0.386,66.92,87.8,40.525124,-3.41864,636.8,3,5,285.5,1.406
68.4,1,-0.007,0.038,-0.004,-0.013,0.031,-0.009,-1.514,0.017,0.382,66.92,87.8,40.525124,-3.41864,636.8,3,5,285.5,1.406
68.5,1,-0.009,0.046,-0.011,-0.007,0.038,-0.007,-1.512,0.015,0.378,67.96,86.0,40.525177,-3.418905,636.2,3,5,285.5,0.352
68.6,1,-0.071,0.026,-0.01,-0.033,0.038,-0.012,-1.512,0.014,0.374,67.96,86.0,40.525177,-3.418905,636.2,3,5,285.5,0.352
68.69,1,-0.0,0.017,0.011,-0.037,0.026,-0.005,-1.513,0.015,0.37,67.96,86.0,40.525177,-3.418905,636.2,3,5,285.5,0.352
68.79,1,0.002,0.019,0.006,-0.003,0.019,0.008,-1.515,0.014,0.365,67.96,86.0,40.525177,-3.418905,636.2,3,5,285.5,0.352
68.89,1,0.003,0.029,0.004,-0.008,0.023,0.003,-1.515,0.012,0.361,67.96,86.0,40.525177,-3.418905,636.2,3,5,285.5,0.352
68.99,1,0.004,0.031,-0.017,0.004,0.026,-0.0,-1.514,0.008,0.357,67.96,86.0,40.525177,-3.418905,636.2,3,5,285.5,0.352
69.1,1,-0.021,0.02,-0.001,-0.006,0.027,-0.009,-1.513,0.008,0.353,67.96,86.0,40.525177,-3.418905,636.2,3,5,285.5,0.352
69.19,1,0.019,0.02,0.004,-0.004,0.024,0.0,-1.513,0.009,0.349,67.96,86.0,40.525177,-3.418905,636.2,3,5,285.5,0.352
69.29,1,0.026,0.005,-0.009,0.019,0.015,-0.002,-1.511,0.01,0.345,67.96,86.0,40.525177,-3.418905,636.2,3,5,285.5,0.352
69.39,1,-0.047,0.005,-0.009,-0.008,0.008,-0.011,-1.51,0.012,0.341,67.96,86.0,40.525177,-3.418905,636.2,3,5,285.5,0.352
69.49,1,-0.047,0.015,0.021,-0.033,0.007,0.006,-1.513,0.014,0.337,68.91,85.1,40.52523,-3.419171,635.5,3,5,286.5,1.055
69.6,1,0.01,0.031,0.005,-0.015,0.021,0.009,-1.514,0.013,0.332,68.91,85.1,40.52523,-3.419171,635.5,3,5,286.5,1.055
69.69,1,-0.032,0.012,-0.001,-0.019,0.021,0.006,-1.514,0.013,0.328,68.91,85.1,40.52523,-3.419171,635.5,3,5,286.5,1.055
69.8,1,0.001,0.039,0.004,-0.013,0.019,0.003,-1.515,0.011,0.322,68.91,85.1,40.52523,-3.419171,635.5,3,5,286.5,1.055
69.89,1,0.003,0.043,0.007,-0.007,0.037,0.005,-1.513,0.01,0.318,68.91,85.1,40.52523,-3.419171,635.5,3,5,286.5,1.055
69.99,1,0.007,0.015,-0.004,0.004,0.032,-0.0,-1.513,0.01,0.313,68.91,85.1,40.52523,-3.419171,635.5,3,5,286.5,1.055
70.09,1,0.026,0.015,0.011,0.016,0.022,0.006,-1.512,0.009,0.308,68.91,85.1,40.52523,-3.419171,635.5,3,5,286.5,1.055
70.2,1,-0.035,0.002,-0.015,-0.005,0.011,-0.002,-1.509,0.009,0.304,68.91,85.1,40.52523,-3.419171,635.5,3,5,286.5,1.055
70.3,1,-0.043,0.025,-0.031,-0.026,0.011,-0.02,-1.506,0.009,0.3,68.91,85.1,40.52523,-3.419171,635.5,3,5,286.5,1.055
70.39,1,-0.045,0.011,-0.001,-0.04,0.019,-0.013,-1.506,0.009,0.295,68.91,85.1,40.52523,-3.419171,635.5,3,5,286.5,1.055
70.5,1,0.027,0.005,0.013,-0.012,0.009,0.0,-1.507,0.011,0.291,69.94,84.1,40.525295,-3.419441,635.2,3,5,287.6,2.109
70.6,1,-0.017,0.024,-0.003,0.001,0.013,0.005,-1.508,0.01,0.286,69.94,84.1,40.525295,-3.419441,635.2,3,5,287.6,2.109
70.7,1,-0.071,0.018,-0.014,-0.036,0.019,-0.005,-1.508,0.01,0.282,69.94,84.1,40.525295,-3.419441,635.2,3,5,287.6,2.109
70.8,1,-0.087,0.014,-0.021,-0.072,0.017,-0.016,-1.509,0.012,0.277,69.94,84.1,40.525295,-3.419441,635.2,3,5,287.6,2.109
70.9,1,-0.031,0.017,0.032,-0.057,0.016,0.002,-1.512,0.011,0.272,69.94,84.1,40.525295,-3.419441,635.2,3,5,287.6,2.109
71.1,1,0.043,0.007,-0.005,0.028,0.018,0.006,-1.508,0.01,0.263,69.94,84.1,40.525295,-3.419441,635.2,3,5,287.6,2.109
71.2,1,0.001,0.008,0.006,0.017,0.013,0.0,-1.505,0.01,0.258,69.94,84.1,40.525295,-3.419441,635.2,3,5,287.6,2.109
71.3,1,0.015,0.013,-0.013,0.013,0.012,-0.007,-1.506,0.011,0.253,69.94,84.1,40.525295,-3.419441,635.2,3,5,287.6,2.109
71.4,1,-0.076,0.023,-0.012,-0.021,0.016,-0.008,-1.506,0.011,0.248,69.94,84.1,40.525295,-3.419441,635.2,3,5,287.6,2.109
71.5,1,-0.029,0.009,-0.015,-0.044,0.016,-0.014,-1.506,0.01,0.243,69.94,84.1,40.525295,-3.419441,635.2,3,5,287.6,2.109
71.6,1,-0.015,0.007,0.005,-0.023,0.01,-0.001,-1.508,0.009,0.239,70.92,83.3,40.52536,-3.4197,635.3,3,5,288.6,2.109
71.7,1,-0.046,0.001,-0.027,-0.027,0.008,-0.013,-1.505,0.01,0.234,70.92,83.3,40.52536,-3.4197,635.3,3,5,288.6,2.109
71.8,1,-0.01,-0.011,-0.009,-0.032,-0.003,-0.016,-1.508,0.011,0.229,70.92,83.3,40.52536,-3.4197,635.3,3,5,288.6,2.109
71.9,1,-0.031,-0.01,0.014,-0.023,-0.008,-0.001,-1.51,0.014,0.224,70.92,83.3,40.52536,-3.4197,635.3,3,5,288.6,2.109
72.0,1,-0.035,-0.002,0.001,-0.032,-0.005,0.003,-1.512,0.016,0.22,70.92,83.3,40.52536,-3.4197,635.3,3,5,288.6,2.109
72.1,1,0.014,-0.017,0.01,-0.012,-0.006,0.003,-1.513,0.016,0.216,70.92,83.3,40.52536,-3.4197,635.3,3,5,288.6,2.109
72.21,1,-0.024,-0.021,-0.004,-0.008,-0.015,0.005,-1.514,0.018,0.212,70.92,83.3,40.52536,-3.4197,635.3,3,5,288.6,2.109
72.3,1,0.008,-0.041,-0.013,-0.006,-0.028,-0.005,-1.515,0.021,0.209,70.92,83.3,40.52536,-3.4197,635.3,3,5,288.6,2.109
72.4,1,0.009,-0.017,-0.006,0.003,-0.027,-0.006,-1.515,0.025,0.206,70.92,83.3,40.52536,-3.4197,635.3,3,5,288.6,2.109
72.5,1,-0.018,-0.011,-0.011,-0.006,-0.019,-0.01,-1.515,0.028,0.202,70.92,83.3,40.52536,-3.4197,635.3,3,5,288.6,2.109
72.6,1,-0.001,-0.022,-0.005,-0.006,-0.02,-0.009,-1.515,0.028,0.199,71.95,82.5,40.525429,-3.41996,635.1,3,5,290.4,2.812
72.7,1,-0.003,-0.011,-0.007,0.004,-0.016,-0.008,-1.515,0.026,0.195,71.95,82.5,40.525429,-3.41996,635.1,3,5,290.4,2.812
72.8,1,-0.024,-0.009,-0.004,-0.019,-0.009,-0.006,-1.515,0.028,0.192,71.95,82.5,40.525429,-3.41996,635.1,3,5,290.4,2.812
72.92,1,-0.033,0.006,0.002,-0.018,-0.007,-0.002,-1.513,0.028,0.189,71.95,82.5,40.525429,-3.41996,635.1,3,5,290.4,2.812
73.01,1,0.002,-0.026,-0.003,-0.023,-0.008,-0.007,-1.513,0.03,0.185,71.95,82.5,40.525429,-3.41996,635.1,3,5,290.4,2.812
73.1,1,-0.064,-0.008,-0.014,-0.027,-0.013,-0.0,-1.515,0.03,0.183,71.95,82.5,40.525429,-3.41996,635.1,3,5,290.4,2.812
73.2,1,-0.086,0.007,0.015,-0.063,-0.005,-0.0,-1.521,0.03,0.18,71.95,82.5,40.525429,-3.41996,635.1,3,5,290.4,2.812
73.3,1,0.035,-0.015,0.003,-0.033,-0.003,0.001,-1.524,0.031,0.176,71.95,82.5,40.525429,-3.41996,635.1,3,5,290.4,2.812
73.41,1,0.046,-0.012,0.011,0.023,-0.012,0.009,-1.521,0.029,0.172,71.95,82.5,40.525429,-3.41996,635.1,3,5,290.4,2.812
73.5,1,0.013,0.0,-0.021,0.02,-0.007,-0.005,-1.518,0.029,0.169,71.95,82.5,40.525429,-3.41996,635.1,3,5,290.4,2.812
73.6,1,-0.051,0.031,-0.022,-0.006,0.011,-0.014,-1.517,0.028,0.165,72.91,81.3,40.525501,-3.420217,633.5,3,5,291.4,2.812
73.7,1,-0.058,0.007,-0.015,-0.042,0.015,-0.018,-1.52,0.029,0.162,72.91,81.3,40.525501,-3.420217,633.5,3,5,291.4,2.812
73.81,1,-0.005,-0.006,-0.007,-0.03,0.0,-0.01,-1.522,0.029,0.159,72.91,81.3,40.525501,-3.420217,633.5,3,5,291.4,2.812
73.91,1,-0.006,0.001,0.006,-0.014,0.0,-0.006,-1.521,0.028,0.156,72.91,81.3,40.525501,-3.420217,633.5,3,5,291.4,2.812
74.0,1,0.018,0.021,-0.003,0.002,0.011,-0.004,-1.522,0.027,0.152,72.91,81.3,40.525501,-3.420217,633.5,3,5,291.4,2.812
74.11,1,-0.017,0.001,0.001,-0.006,0.01,0.0,-1.52,0.025,0.148,72.91,81.3,40.525501,-3.420217,633.5,3,5,291.4,2.812
74.22,1,0.016,0.004,0.019,0.006,0.004,0.01,-1.518,0.025,0.145,72.91,81.3,40.525501,-3.420217,633.5,3,5,291.4,2.812
74.3,1,-0.007,0.012,-0.021,0.002,0.01,0.002,-1.518,0.022,0.142,72.91,81.3,40.525501,-3.420217,633.5,3,5,291.4,2.812
74.41,1,-0.053,0.025,-0.015,-0.018,0.017,-0.01,-1.519,0.02,0.138,72.91,81.3,40.525501,-3.420217,633.5,3,5,291.4,2.812
74.51,1,-0.005,0.031,-0.001,-0.025,0.022,-0.011,-1.522,0.02,0.134,72.91,81.3,40.525501,-3.420217,633.5,3,5,291.4,2.812
74.61,1,-0.012,0.034,0.029,-0.016,0.028,0.007,-1.524,0.019,0.129,73.93,80.4,40.525589,-3.420452,632.6,3,5,293.2,2.812
74.71,1,-0.02,0.014,-0.014,-0.015,0.026,0.007,-1.524,0.015,0.125,73.93,80.4,40.525589,-3.420452,632.6,3,5,293.2,2.812
74.81,1,0.05,0.007,-0.006,-0.001,0.014,-0.005,-1.524,0.012,0.12,73.93,80.4,40.525589,-3.420452,632.6,3,5,293.2,2.812
74.91,1,-0.025,0.038,-0.029,0.004,0.027,-0.017,-1.525,0.012,0.116,73.93,80.4,40.525589,-3.420452,632.6,3,5,293.2,2.812
75.01,1,0.041,0.031,-0.003,0.023,0.029,-0.014,-1.525,0.014,0.111,73.93,80.4,40.525589,-3.420452,632.6,3,5,293.2,2.812
75.11,1,-0.073,0.011,-0.01,-0.007,0.02,-0.004,-1.527,0.013,0.107,73.93,80.4,40.525589,-3.420452,632.6,3,5,293.2,2.812
75.21,1,-0.119,0.002,0.004,-0.081,0.013,-0.002,-1.53,0.012,0.103,73.93,80.4,40.525589,-3.420452,632.6,3,5,293.2,2.812
75.31,1,-0.07,-0.005,-0.009,-0.082,0.001,-0.008,-1.533,0.009,0.099,73.93,80.4,40.525589,-3.420452,632.6,3,5,293.2,2.812
75.41,1,-0.05,0.015,0.002,-0.065,-0.004,-0.012,-1.536,0.007,0.095,73.93,80.4,40.525589,-3.420452,632.6,3,5,293.2,2.812
75.51,1,-0.024,0.004,0.001,-0.053,0.007,0.003,-1.539,0.005,0.092,73.93,80.4,40.525589,-3.420452,632.6,3,5,293.2,2.812
75.61,1,0.009,0.004,0.026,-0.012,0.015,0.012,-1.54,0.005,0.089,74.92,79.1,40.525673,-3.420694,631.0,3,5,294.3,2.812
75.71,1,0.031,-0.029,0.012,-0.0,-0.002,0.019,-1.539,0.005,0.085,74.92,79.1,40.525673,-3.420694,631.0,3,5,294.3,2.812
75.82,1,0.028,-0.009,-0.018,0.026,-0.017,-0.003,-1.537,-0.001,0.081,74.92,79.1,40.525673,-3.420694,631.0,3,5,294.3,2.812
75.91,1,0.008,-0.031,-0.012,0.017,-0.022,-0.009,-1.534,-0.004,0.078,74.92,79.1,40.525673,-3.420694,631.0,3,5,294.3,2.812
76.01,1,0.013,-0.031,0.011,0.012,-0.029,-0.003,-1.533,-0.006,0.074,74.92,79.1,40.525673,-3.420694,631.0,3,5,294.3,2.812
76.11,1,-0.028,-0.025,0.001,0.003,-0.027,0.009,-1.532,-0.007,0.071,74.92,79.1,40.525673,-3.420694,631.0,3,5,294.3,2.812
76.21,1,-0.001,-0.018,-0.006,-0.002,-0.025,-0.0,-1.532,-0.008,0.068,74.92,79.1,40.525673,-3.420694,631.0,3,5,294.3,2.812
76.31,1,-0.05,-0.002,-0.001,-0.022,-0.015,-0.002,-1.537,-0.007,0.066,74.92,79.1,40.525673,-3.420694,631.0,3,5,294.3,2.812
76.41,1,-0.02,-0.008,0.009,-0.038,-0.007,0.002,-1.542,-0.008,0.063,74.92,79.1,40.525673,-3.420694,631.0,3,5,294.3,2.812
76.51,1,0.01,-0.018,0.018,-0.008,-0.01,0.008,-1.546,-0.007,0.061,74.92,79.1,40.525673,-3.420694,631.0,3,5,294.3,2.812
76.62,1,0.002,-0.007,-0.012,-0.004,-0.012,0.001,-1.547,-0.005,0.058,75.93,78.2,40.525764,-3.42092,629.5,3,5,296.7,3.516
76.71,1,0.009,-0.021,0.004,0.007,-0.013,-0.001,-1.547,-0.007,0.055,75.93,78.2,40.525764,-3.42092,629.5,3,5,296.7,3.516
76.81,1,0.002,-0.028,-0.02,0.005,-0.024,-0.006,-1.549,-0.009,0.052,75.93,78.2,40.525764,-3.42092,629.5,3,5,296.7,3.516
76.92,1,-0.039,0.013,0.012,-0.016,-0.005,-0.004,-1.548,-0.009,0.049,75.93,78.2,40.525764,-3.42092,629.5,3,5,296.7,3.516
77.01,1,0.008,0.013,-0.001,-0.019,0.005,0.001,-1.548,-0.01,0.046,75.93,78.2,40.525764,-3.42092,629.5,3,5,296.7,3.516
77.11,1,0.033,-0.004,0.006,0.019,-0.001,0.003,-1.55,-0.01,0.042,75.93,78.2,40.525764,-3.42092,629.5,3,5,296.7,3.516
77.22,1,-0.031,-0.003,-0.013,-0.006,0.001,-0.004,-1.55,-0.009,0.039,75.93,78.2,40.525764,-3.42092,629.5,3,5,296.7,3.516
77.32,1,-0.047,-0.006,-0.01,-0.024,-0.004,-0.011,-1.553,-0.012,0.035,75.93,78.2,40.525764,-3.42092,629.5,3,5,296.7,3.516
77.41,1,-0.013,0.003,0.008,-0.024,0.001,0.001,-1.556,-0.015,0.031,75.93,78.2,40.525764,-3.42092,629.5,3,5,296.7,3.516
77.52,1,-0.012,0.017,0.004,-0.013,0.004,0.002,-1.556,-0.017,0.027,75.93,78.2,40.525764,-3.42092,629.5,3,5,296.7,3.516
77.61,1,0.004,0.012,-0.005,-0.01,0.01,0.002,-1.555,-0.019,0.023,76.91,78.1,40.525856,-3.421143,630.6,3,5,298.5,4.219
77.71,1,-0.024,-0.002,-0.003,-0.013,0.011,-0.001,-1.557,-0.02,0.018,76.91,78.1,40.525856,-3.421143,630.6,3,5,298.5,4.219
77.82,1,-0.031,-0.005,-0.014,-0.02,0.002,-0.008,-1.557,-0.02,0.014,76.91,78.1,40.525856,-3.421143,630.6,3,5,298.5,4.219
77.91,1,-0.068,0.038,-0.011,-0.045,0.013,-0.011,-1.558,-0.023,0.009,76.91,78.1,40.525856,-3.421143,630.6,3,5,298.5,4.219
78.01,1,0.083,0.029,0.036,-0.002,0.023,0.007,-1.561,-0.026,0.004,76.91,78.1,40.525856,-3.421143,630.6,3,5,298.5,4.219
78.12,1,0.002,0.021,-0.004,0.022,0.033,0.011,-1.563,-0.026,-0.0,76.91,78.1,40.525856,-3.421143,630.6,3,5,298.5,4.219
78.22,1,-0.026,0.002,-0.006,0.004,0.009,0.003,-1.568,-0.029,-0.005,76.91,78.1,40.525856,-3.421143,630.6,3,5,298.5,4.219
78.32,1,-0.051,0.014,0.008,-0.031,0.01,-0.003,-1.569,-0.029,-0.01,76.91,78.1,40.525856,-3.421143,630.6,3,5,298.5,4.219
78.43,1,0.023,0.004,0.033,-0.016,0.008,0.02,-1.571,-0.03,-0.015,76.91,78.1,40.525856,-3.421143,630.6,3,5,298.5,4.219
78.53,1,-0.006,0.006,0.022,0.011,0.005,0.023,-1.571,-0.032,-0.02,76.91,78.1,40.525856,-3.421143,630.6,3,5,298.5,4.219
78.62,1,-0.025,0.003,-0.004,-0.017,0.006,0.014,-1.572,-0.032,-0.024,77.92,78.5,40.525963,-3.421357,630.2,3,5,300.2,3.516
78.72,1,-0.034,0.006,0.013,-0.019,0.005,0.006,-1.574,-0.031,-0.029,77.92,78.5,40.525963,-3.421357,630.2,3,5,300.2,3.516
78.82,1,0.021,0.004,0.023,-0.01,0.005,0.017,-1.577,-0.032,-0.034,77.92,78.5,40.525963,-3.421357,630.2,3,5,300.2,3.516
78.92,1,-0.016,0.009,0.03,-0.006,0.002,0.023,-1.577,-0.033,-0.039,77.92,78.5,40.525963,-3.421357,630.2,3,5,300.2,3.516
79.02,1,-0.018,-0.014,0.009,-0.012,0.004,0.021,-1.578,-0.034,-0.043,77.92,78.5,40.525963,-3.421357,630.2,3,5,300.2,3.516
79.12,1,-0.032,-0.004,0.013,-0.021,-0.005,0.013,-1.581,-0.036,-0.048,77.92,78.5,40.525963,-3.421357,630.2,3,5,300.2,3.516
79.22,1,-0.05,0.012,0.019,-0.038,0.001,0.018,-1.584,-0.038,-0.052,77.92,78.5,40.525963,-3.421357,630.2,3,5,300.2,3.516
79.32,1,0.015,0.002,0.019,-0.02,0.004,0.014,-1.589,-0.04,-0.057,77.92,78.5,40.525963,-3.421357,630.2,3,5,300.2,3.516
79.42,1,-0.039,-0.005,0.003,-0.007,0.001,0.016,-1.588,-0.041,-0.061,77.92,78.5,40.525963,-3.421357,630.2,3,5,300.2,3.516
79.52,1,-0.073,-0.005,0.006,-0.046,-0.004,0.003,-1.59,-0.04,-0.065,77.92,78.5,40.525963,-3.421357,630.2,3,5,300.2,3.516
79.62,1,0.037,-0.03,0.016,-0.029,-0.013,0.009,-1.593,-0.042,-0.069,78.91,79.0,40.526066,-3.421577,629.5,3,5,303.8,5.273
79.73,1,-0.022,0.002,0.026,-0.01,-0.011,0.023,-1.595,-0.038,-0.073,78.91,79.0,40.526066,-3.421577,629.5,3,5,303.8,5.273
79.82,1,-0.007,-0.033,0.003,-0.012,-0.017,0.011,-1.597,-0.037,-0.077,78.91,79.0,40.526066,-3.421577,629.5,3,5,303.8,5.273
79.92,1,0.045,-0.036,0.018,0.013,-0.026,0.013,-1.596,-0.038,-0.081,78.91,79.0,40.526066,-3.421577,629.5,3,5,303.8,5.273
80.02,1,-0.033,-0.009,-0.006,0.006,-0.021,0.007,-1.599,-0.039,-0.085,78.91,79.0,40.526066,-3.421577,629.5,3,5,303.8,5.273
80.13,1,-0.052,0.014,0.003,-0.026,-0.006,0.005,-1.599,-0.038,-0.089,78.91,79.0,40.526066,-3.421577,629.5,3,5,303.8,5.273
80.22,1,0.019,-0.014,0.003,-0.024,-0.005,0.001,-1.598,-0.039,-0.092,78.91,79.0,40.526066,-3.421577,629.5,3,5,303.8,5.273
80.32,1,0.024,0.009,0.003,0.013,-0.001,0.005,-1.6,-0.041,-0.096,78.91,79.0,40.526066,-3.421577,629.5,3,5,303.8,5.273
80.42,1,0.004,-0.005,-0.026,0.011,-0.005,-0.012,-1.601,-0.04,-0.1,78.91,79.0,40.526066,-3.421577,629.5,3,5,303.8,5.273
80.52,1,0.023,-0.026,-0.021,0.016,-0.009,-0.018,-1.6,-0.038,-0.103,78.91,79.0,40.526066,-3.421577,629.5,3,5,303.8,5.273
80.62,1,-0.026,-0.003,-0.002,0.003,-0.009,-0.012,-1.599,-0.038,-0.107,79.93,81.0,40.526192,-3.421792,629.0,3,5,306.9,6.68
80.72,1,-0.064,-0.015,-0.036,-0.034,-0.004,-0.019,-1.598,-0.035,-0.11,79.93,81.0,40.526192,-3.421792,629.0,3,5,306.9,6.68
80.82,1,-0.038,-0.005,-0.036,-0.046,-0.018,-0.028,-1.597,-0.029,-0.114,79.93,81.0,40.526192,-3.421792,629.0,3,5,306.9,6.68
80.93,1,-0.018,-0.038,-0.003,-0.038,-0.023,-0.021,-1.599,-0.031,-0.118,79.93,81.0,40.526192,-3.421792,629.0,3,5,306.9,6.68
81.02,1,0.032,-0.023,-0.011,0.004,-0.022,-0.014,-1.601,-0.033,-0.121,79.93,81.0,40.526192,-3.421792,629.0,3,5,306.9,6.68
81.12,1,-0.021,-0.006,-0.024,0.006,-0.017,-0.016,-1.598,-0.039,-0.125,79.93,81.0,40.526192,-3.421792,629.0,3,5,306.9,6.68
81.22,1,0.001,-0.014,-0.021,-0.007,-0.015,-0.02,-1.596,-0.042,-0.129,79.93,81.0,40.526192,-3.421792,629.0,3,5,306.9,6.68
81.32,1,-0.053,-0.01,-0.03,-0.031,-0.009,-0.026,-1.594,-0.043,-0.132,79.93,81.0,40.526192,-3.421792,629.0,3,5,306.9,6.68
81.42,1,-0.015,-0.011,-0.015,-0.028,-0.011,-0.023,-1.591,-0.043,-0.135,79.93,81.0,40.526192,-3.421792,629.0,3,5,306.9,6.68
81.53,1,-0.011,-0.029,-0.006,-0.011,-0.017,-0.013,-1.592,-0.04,-0.139,79.93,81.0,40.526192,-3.421792,629.0,3,5,306.9,6.68
81.63,1,-0.012,-0.014,-0.02,-0.01,-0.018,-0.013,-1.591,-0.04,-0.143,80.95,82.7,40.526314,-3.422007,629.5,3,5,308.7,4.922
81.72,1,-0.015,-0.019,-0.021,-0.017,-0.021,-0.021,-1.589,-0.037,-0.146,80.95,82.7,40.526314,-3.422007,629.5,3,5,308.7,4.922
81.82,1,-0.012,-0.018,-0.025,-0.015,-0.017,-0.021,-1.587,-0.034,-0.149,80.95,82.7,40.526314,-3.422007,629.5,3,5,308.7,4.922
81.93,1,0.003,-0.016,-0.032,-0.009,-0.017,-0.025,-1.585,-0.033,-0.152,80.95,82.7,40.526314,-3.422007,629.5,3,5,308.7,4.922
82.03,1,-0.024,-0.008,-0.034,-0.01,-0.013,-0.032,-1.581,-0.033,-0.155,80.95,82.7,40.526314,-3.422007,629.5,3,5,308.7,4.922
82.13,1,-0.078,0.011,-0.012,-0.038,-0.0,-0.023,-1.578,-0.031,-0.158,80.95,82.7,40.526314,-3.422007,629.5,3,5,308.7,4.922
82.23,1,-0.028,0.003,-0.01,-0.043,0.001,-0.019,-1.577,-0.031,-0.161,80.95,82.7,40.526314,-3.422007,629.5,3,5,308.7,4.922
82.33,1,-0.025,-0.002,-0.018,-0.038,0.0,-0.012,-1.574,-0.029,-0.163,80.95,82.7,40.526314,-3.422007,629.5,3,5,308.7,4.922
82.43,1,-0.023,-0.023,-0.013,-0.027,-0.012,-0.017,-1.572,-0.026,-0.166,80.95,82.7,40.526314,-3.422007,629.5,3,5,308.7,4.922
82.53,1,-0.009,-0.036,-0.028,-0.018,-0.018,-0.019,-1.573,-0.026,-0.169,80.95,82.7,40.526314,-3.422007,629.5,3,5,308.7,4.922
82.63,1,-0.027,-0.028,-0.006,-0.018,-0.029,-0.017,-1.573,-0.025,-0.171,81.91,83.6,40.526447,-3.422211,628.7,3,5,311.1,4.219
82.73,1,-0.024,-0.019,-0.019,-0.019,-0.024,-0.014,-1.571,-0.023,-0.173,81.91,83.6,40.526447,-3.422211,628.7,3,5,311.1,4.219
82.84,1,0.003,-0.038,-0.033,-0.011,-0.03,-0.02,-1.569,-0.024,-0.175,81.91,83.6,40.526447,-3.422211,628.7,3,5,311.1,4.219
82.93,1,-0.008,-0.033,-0.014,-0.016,-0.035,-0.017,-1.568,-0.024,-0.177,81.91,83.6,40.526447,-3.422211,628.7,3,5,311.1,4.219
83.03,1,0.031,0.005,0.024,0.005,-0.013,0.0,-1.567,-0.022,-0.18,81.91,83.6,40.526447,-3.422211,628.7,3,5,311.1,4.219
83.13,1,-0.077,0.006,-0.035,-0.017,-0.005,-0.013,-1.568,-0.02,-0.182,81.91,83.6,40.526447,-3.422211,628.7,3,5,311.1,4.219
83.24,1,0.01,-0.028,-0.023,-0.024,-0.012,-0.025,-1.566,-0.02,-0.183,81.91,83.6,40.526447,-3.422211,628.7,3,5,311.1,4.219
83.33,1,-0.068,-0.009,-0.025,-0.023,-0.013,-0.023,-1.566,-0.019,-0.186,81.91,83.6,40.526447,-3.422211,628.7,3,5,311.1,4.219
83.43,1,-0.032,-0.018,-0.012,-0.044,-0.014,-0.021,-1.565,-0.019,-0.188,81.91,83.6,40.526447,-3.422211,628.7,3,5,311.1,4.219
83.53,1,0.001,-0.019,0.006,-0.029,-0.018,-0.008,-1.566,-0.018,-0.19,81.91,83.6,40.526447,-3.422211,628.7,3,5,311.1,4.219
83.63,1,-0.012,-0.008,-0.019,-0.01,-0.014,-0.006,-1.566,-0.019,-0.192,82.93,84.3,40.526588,-3.422411,628.8,3,5,313.9,5.273
83.73,1,-0.018,0.008,-0.023,-0.017,-0.005,-0.015,-1.564,-0.021,-0.194,82.93,84.3,40.526588,-3.422411,628.8,3,5,313.9,5.273
83.84,1,0.053,-0.006,-0.005,0.013,-0.001,-0.015,-1.56,-0.022,-0.196,82.93,84.3,40.526588,-3.422411,628.8,3,5,313.9,5.273
83.93,1,-0.006,-0.009,-0.009,0.025,-0.003,-0.01,-1.556,-0.021,-0.198,82.93,84.3,40.526588,-3.422411,628.8,3,5,313.9,5.273
84.04,1,-0.043,-0.014,-0.006,-0.015,-0.011,-0.008,-1.555,-0.018,-0.199,82.93,84.3,40.526588,-3.422411,628.8,3,5,313.9,5.273
84.13,1,-0.053,-0.01,-0.026,-0.044,-0.012,-0.015,-1.554,-0.016,-0.201,82.93,84.3,40.526588,-3.422411,628.8,3,5,313.9,5.273
84.23,1,0.012,-0.024,-0.015,-0.02,-0.016,-0.016,-1.555,-0.017,-0.204,82.93,84.3,40.526588,-3.422411,628.8,3,5,313.9,5.273
84.33,1,-0.043,-0.002,-0.009,-0.019,-0.014,-0.016,-1.557,-0.019,-0.206,82.93,84.3,40.526588,-3.422411,628.8,3,5,313.9,5.273
84.44,1,-0.051,0.011,-0.008,-0.042,-0.0,-0.013,-1.556,-0.019,-0.208,82.93,84.3,40.526588,-3.422411,628.8,3,5,313.9,5.273
84.53,1,-0.014,0.007,0.001,-0.03,0.005,-0.004,-1.557,-0.02,-0.211,82.93,84.3,40.526588,-3.422411,628.8,3,5,313.9,5.273
84.65,1,0.015,-0.009,-0.009,-0.007,0.001,-0.002,-1.558,-0.02,-0.213,83.91,84.8,40.526733,-3.422605,628.6,3,5,315.7,4.57
84.74,1,-0.031,-0.018,-0.032,-0.011,-0.01,-0.016,-1.559,-0.021,-0.216,83.91,84.8,40.526733,-3.422605,628.6,3,5,315.7,4.57
84.84,1,0.039,-0.008,-0.021,-0.001,-0.01,-0.028,-1.557,-0.024,-0.218,83.91,84.8,40.526733,-3.422605,628.6,3,5,315.7,4.57
84.94,1,0.007,-0.004,-0.022,0.003,-0.005,-0.023,-1.555,-0.027,-0.222,83.91,84.8,40.526733,-3.422605,628.6,3,5,315.7,4.57
85.03,1,0.0,0.002,-0.023,0.011,-0.004,-0.022,-1.554,-0.027,-0.225,83.91,84.8,40.526733,-3.422605,628.6,3,5,315.7,4.57
85.14,1,-0.061,0.003,-0.024,-0.015,-0.002,-0.025,-1.551,-0.029,-0.227,83.91,84.8,40.526733,-3.422605,628.6,3,5,315.7,4.57
85.24,1,-0.021,-0.01,-0.052,-0.027,-0.005,-0.034,-1.553,-0.03,-0.23,83.91,84.8,40.526733,-3.422605,628.6,3,5,315.7,4.57
85.34,1,0.021,0.02,-0.018,-0.007,0.005,-0.033,-1.554,-0.028,-0.233,83.91,84.8,40.526733,-3.422605,628.6,3,5,315.7,4.57
85.43,1,-0.03,0.034,-0.014,-0.009,0.022,-0.017,-1.552,-0.026,-0.236,83.91,84.8,40.526733,-3.422605,628.6,3,5,315.7,4.57
85.53,1,-0.076,0.025,-0.023,-0.04,0.031,-0.02,-1.552,-0.025,-0.239,83.91,84.8,40.526733,-3.422605,628.6,3,5,315.7,4.57
85.64,1,0.069,-0.01,-0.028,-0.006,0.006,-0.023,-1.551,-0.025,-0.243,84.93,85.0,40.526894,-3.422786,628.4,3,5,317.8,3.867
85.74,1,-0.022,0.012,-0.042,0.008,0.003,-0.036,-1.548,-0.023,-0.246,84.93,85.0,40.526894,-3.422786,628.4,3,5,317.8,3.867
85.85,1,-0.036,0.012,0.042,-0.028,0.013,0.0,-1.548,-0.019,-0.249,84.93,85.0,40.526894,-3.422786,628.4,3,5,317.8,3.867
85.95,1,0.025,-0.004,0.036,-0.006,0.006,0.02,-1.553,-0.02,-0.251,84.93,85.0,40.526894,-3.422786,628.4,3,5,317.8,3.867
86.04,1,-0.009,0.009,0.023,0.004,0.001,0.028,-1.554,-0.02,-0.254,84.93,85.0,40.526894,-3.422786,628.4,3,5,317.8,3.867
86.14,1,-0.022,0.007,0.002,-0.011,0.007,0.012,-1.553,-0.02,-0.256,84.93,85.0,40.526894,-3.422786,628.4,3,5,317.8,3.867
86.24,1,-0.018,0.002,0.014,-0.017,0.009,0.012,-1.552,-0.021,-0.259,84.93,85.0,40.526894,-3.422786,628.4,3,5,317.8,3.867
86.34,1,-0.048,0.018,0.015,-0.033,0.009,0.014,-1.555,-0.023,-0.262,84.93,85.0,40.526894,-3.422786,628.4,3,5,317.8,3.867
86.44,1,-0.015,0.007,0.015,-0.027,0.011,0.012,-1.556,-0.025,-0.265,84.93,85.0,40.526894,-3.422786,628.4,3,5,317.8,3.867
86.54,1,-0.008,0.009,0.02,-0.013,0.008,0.022,-1.557,-0.026,-0.267,84.93,85.0,40.526894,-3.422786,628.4,3,5,317.8,3.867
86.64,1,-0.034,0.01,0.004,-0.025,0.009,0.009,-1.558,-0.026,-0.27,85.92,84.5,40.527046,-3.422978,627.3,3,5,320.3,4.57
86.74,1,-0.013,0.021,0.028,-0.019,0.013,0.016,-1.559,-0.028,-0.273,85.92,84.5,40.527046,-3.422978,627.3,3,5,320.3,4.57
86.84,1,-0.016,0.005,0.0,-0.017,0.009,0.013,-1.562,-0.028,-0.276,85.92,84.5,40.527046,-3.422978,627.3,3,5,320.3,4.57
86.94,1,-0.006,-0.018,-0.001,-0.015,0.004,0.007,-1.564,-0.028,-0.278,85.92,84.5,40.527046,-3.422978,627.3,3,5,320.3,4.57
87.04,1,0.009,-0.015,0.011,-0.003,-0.007,0.005,-1.566,-0.026,-0.28,85.92,84.5,40.527046,-3.422978,627.3,3,5,320.3,4.57
87.14,1,-0.032,-0.006,0.007,-0.007,-0.009,0.007,-1.566,-0.026,-0.282,85.92,84.5,40.527046,-3.422978,627.3,3,5,320.3,4.57
87.24,1,-0.039,0.003,-0.011,-0.029,-0.005,0.0,-1.568,-0.023,-0.283,85.92,84.5,40.527046,-3.422978,627.3,3,5,320.3,4.57
87.34,1,-0.028,-0.015,0.016,-0.03,-0.011,0.006,-1.57,-0.023,-0.285,85.92,84.5,40.527046,-3.422978,627.3,3,5,320.3,4.57
87.44,1,0.014,-0.019,0.008,-0.02,-0.013,0.008,-1.571,-0.021,-0.286,85.92,84.5,40.527046,-3.422978,627.3,3,5,320.3,4.57
87.55,1,-0.041,-0.001,0.011,-0.018,-0.009,0.009,-1.573,-0.017,-0.288,85.92,84.5,40.527046,-3.422978,627.3,3,5,320.3,4.57
87.64,1,-0.042,0.004,0.014,-0.019,-0.005,0.015,-1.574,-0.017,-0.29,86.91,84.5,40.52721,-3.42315,626.2,3,5,322.7,4.922
87.74,1,-0.012,0.002,0.01,-0.033,0.003,0.009,-1.574,-0.019,-0.292,86.91,84.5,40.52721,-3.42315,626.2,3,5,322.7,4.922
87.84,1,0.006,0.015,0.02,-0.02,0.005,0.011,-1.574,-0.022,-0.294,86.91,84.5,40.52721,-3.42315,626.2,3,5,322.7,4.922
87.94,1,0.019,-0.005,0.024,0.015,0.0,0.023,-1.577,-0.023,-0.295,86.91,84.5,40.52721,-3.42315,626.2,3,5,322.7,4.922
88.04,1,-0.023,-0.004,0.005,0.008,0.004,0.013,-1.577,-0.023,-0.297,86.91,84.5,40.52721,-3.42315,626.2,3,5,322.7,4.922
88.14,1,-0.045,0.016,-0.002,-0.033,0.009,0.004,-1.576,-0.022,-0.299,86.91,84.5,40.52721,-3.42315,626.2,3,5,322.7,4.922
88.24,1,-0.03,-0.014,-0.014,-0.034,-0.003,-0.002,-1.577,-0.023,-0.301,86.91,84.5,40.52721,-3.42315,626.2,3,5,322.7,4.922
88.35,1,-0.017,0.0,0.021,-0.019,-0.007,0.005,-1.577,-0.023,-0.304,86.91,84.5,40.52721,-3.42315,626.2,3,5,322.7,4.922
88.44,1,-0.056,0.021,-0.003,-0.037,0.009,0.002,-1.576,-0.025,-0.306,86.91,84.5,40.52721,-3.42315,626.2,3,5,322.7,4.922
88.54,1,0.031,-0.012,-0.01,-0.022,0.007,-0.001,-1.577,-0.026,-0.308,86.91,84.5,40.52721,-3.42315,626.2,3,5,322.7,4.922
88.64,1,0.024,-0.001,0.008,0.02,-0.003,0.001,-1.578,-0.028,-0.31,87.93,85.8,40.527386,-3.423313,625.4,4,5,325.2,4.922
88.74,1,-0.016,0.001,-0.013,0.006,-0.0,-0.006,-1.577,-0.029,-0.311,87.93,85.8,40.527386,-3.423313,625.4,4,5,325.2,4.922
88.84,1,-0.034,-0.006,-0.006,-0.024,0.002,-0.006,-1.577,-0.031,-0.313,87.93,85.8,40.527386,-3.423313,625.4,4,5,325.2,4.922
88.94,1,-0.01,-0.011,-0.01,-0.021,-0.008,-0.01,-1.576,-0.027,-0.314,87.93,85.8,40.527386,-3.423313,625.4,4,5,325.2,4.922
89.05,1,-0.045,-0.007,-0.028,-0.022,-0.011,-0.013,-1.573,-0.027,-0.316,87.93,85.8,40.527386,-3.423313,625.4,4,5,325.2,4.922
89.14,1,-0.041,-0.003,-0.01,-0.038,-0.003,-0.016,-1.573,-0.028,-0.317,87.93,85.8,40.527386,-3.423313,625.4,4,5,325.2,4.922
89.24,1,0.021,-0.015,0.006,-0.015,-0.01,-0.009,-1.576,-0.029,-0.319,87.93,85.8,40.527386,-3.423313,625.4,4,5,325.2,4.922
89.34,1,0.012,-0.006,-0.009,0.008,-0.013,-0.003,-1.576,-0.028,-0.321,87.93,85.8,40.527386,-3.423313,625.4,4,5,325.2,4.922
89.45,1,-0.043,-0.017,-0.022,-0.012,-0.012,-0.013,-1.574,-0.031,-0.322,87.93,85.8,40.527386,-3.423313,625.4,4,5,325.2,4.922
89.55,1,-0.033,0.003,-0.016,-0.028,-0.006,-0.017,-1.573,-0.034,-0.323,87.93,85.8,40.527386,-3.423313,625.4,4,5,325.2,4.922
89.65,1,-0.027,-0.007,0.01,-0.029,-0.003,-0.005,-1.574,-0.037,-0.325,88.97,86.7,40.527565,-3.423473,624.9,4,5,327.3,4.57
89.75,1,0.008,-0.023,-0.022,-0.015,-0.014,-0.009,-1.576,-0.038,-0.326,88.97,86.7,40.527565,-3.423473,624.9,4,5,327.3,4.57
89.85,1,0.012,-0.014,-0.023,0.0,-0.013,-0.013,-1.578,-0.042,-0.328,88.97,86.7,40.527565,-3.423473,624.9,4,5,327.3,4.57
89.95,1,-0.01,-0.025,-0.015,-0.002,-0.018,-0.017,-1.577,-0.042,-0.329,88.97,86.7,40.527565,-3.423473,624.9,4,5,327.3,4.57
90.06,1,-0.051,-0.018,-0.021,-0.022,-0.024,-0.023,-1.579,-0.044,-0.33,88.97,86.7,40.527565,-3.423473,624.9,4,5,327.3,4.57
90.15,1,0.03,-0.024,-0.029,-0.015,-0.022,-0.024,-1.582,-0.047,-0.331,88.97,86.7,40.527565,-3.423473,624.9,4,5,327.3,4.57
90.26,1,0.03,-0.037,-0.023,0.022,-0.028,-0.024,-1.58,-0.048,-0.332,88.97,86.7,40.527565,-3.423473,624.9,4,5,327.3,4.57
90.35,1,-0.028,-0.015,-0.026,0.007,-0.025,-0.019,-1.576,-0.047,-0.332,88.97,86.7,40.527565,-3.423473,624.9,4,5,327.3,4.57
90.45,1,-0.046,-0.027,-0.035,-0.03,-0.022,-0.038,-1.575,-0.045,-0.332,88.97,86.7,40.527565,-3.423473,624.9,4,5,327.3,4.57
90.55,1,-0.016,-0.047,-0.009,-0.02,-0.034,-0.018,-1.575,-0.041,-0.332,88.97,86.7,40.527565,-3.423473,624.9,4,5,327.3,4.57
90.65,1,-0.026,-0.031,0.0,-0.028,-0.036,-0.013,-1.572,-0.037,-0.333,89.92,87.6,40.527744,-3.423625,624.8,3,5,329.4,4.219
90.76,1,-0.053,-0.017,-0.027,-0.034,-0.028,-0.013,-1.574,-0.037,-0.333,89.92,87.6,40.527744,-3.423625,624.8,3,5,329.4,4.219
90.85,1,-0.053,-0.025,-0.03,-0.05,-0.023,-0.024,-1.576,-0.038,-0.333,89.92,87.6,40.527744,-3.423625,624.8,3,5,329.4,4.219
90.95,1,-0.02,-0.019,-0.024,-0.035,-0.023,-0.026,-1.578,-0.041,-0.333,89.92,87.6,40.527744,-3.423625,624.8,3,5,329.4,4.219
91.05,1,-0.003,-0.041,-0.033,-0.022,-0.029,-0.031,-1.58,-0.043,-0.334,89.92,87.6,40.527744,-3.423625,624.8,3,5,329.4,4.219
91.15,1,0.017,-0.029,-0.023,0.003,-0.03,-0.023,-1.579,-0.046,-0.334,89.92,87.6,40.527744,-3.423625,624.8,3,5,329.4,4.219
91.25,1,-0.055,-0.009,-0.02,-0.018,-0.023,-0.023,-1.576,-0.044,-0.333,89.92,87.6,40.527744,-3.423625,624.8,3,5,329.4,4.219
91.35,1,-0.037,-0.045,-0.055,-0.038,-0.026,-0.036,-1.579,-0.042,-0.333,89.92,87.6,40.527744,-3.423625,624.8,3,5,329.4,4.219
91.46,1,0.007,-0.061,-0.008,-0.017,-0.045,-0.027,-1.578,-0.04,-0.332,89.92,87.6,40.527744,-3.423625,624.8,3,5,329.4,4.219
91.55,1,-0.026,-0.041,-0.025,-0.016,-0.049,-0.02,-1.578,-0.038,-0.331,89.92,87.6,40.527744,-3.423625,624.8,3,5,329.4,4.219
91.65,1,-0.044,-0.056,-0.01,-0.027,-0.048,-0.024,-1.573,-0.034,-0.33,90.93,88.1,40.527935,-3.42376,624.6,3,5,331.5,4.219
91.75,1,-0.025,-0.04,-0.019,-0.034,-0.048,-0.022,-1.574,-0.034,-0.329,90.93,88.1,40.527935,-3.42376,624.6,3,5,331.5,4.219
91.85,1,0.031,-0.05,-0.024,-0.003,-0.043,-0.014,-1.576,-0.032,-0.327,90.93,88.1,40.527935,-3.42376,624.6,3,5,331.5,4.219
91.95,1,0.001,-0.048,-0.031,0.009,-0.048,-0.022,-1.576,-0.029,-0.326,90.93,88.1,40.527935,-3.42376,624.6,3,5,331.5,4.219
92.05,1,-0.032,-0.05,-0.01,-0.012,-0.055,-0.024,-1.572,-0.026,-0.324,90.93,88.1,40.527935,-3.42376,624.6,3,5,331.5,4.219
92.16,1,-0.014,-0.045,-0.02,-0.028,-0.046,-0.019,-1.568,-0.023,-0.323,90.93,88.1,40.527935,-3.42376,624.6,3,5,331.5,4.219
92.26,1,0.003,-0.031,0.009,-0.012,-0.035,-0.005,-1.566,-0.02,-0.321,90.93,88.1,40.527935,-3.42376,624.6,3,5,331.5,4.219
92.35,1,-0.03,-0.011,-0.01,-0.01,-0.03,-0.011,-1.567,-0.021,-0.32,90.93,88.1,40.527935,-3.42376,624.6,3,5,331.5,4.219
92.45,1,-0.008,-0.03,-0.029,-0.01,-0.029,-0.017,-1.569,-0.026,-0.318,90.93,88.1,40.527935,-3.42376,624.6,3,5,331.5,4.219
92.55,1,0.016,-0.041,-0.042,-0.005,-0.026,-0.025,-1.569,-0.028,-0.316,90.93,88.1,40.527935,-3.42376,624.6,3,5,331.5,4.219
92.65,1,0.029,-0.047,-0.032,0.011,-0.04,-0.032,-1.569,-0.029,-0.315,91.94,88.3,40.52813,-3.423892,624.0,3,5,332.6,3.164
92.75,1,0.002,-0.054,-0.01,0.019,-0.049,-0.024,-1.573,-0.028,-0.313,91.94,88.3,40.52813,-3.423892,624.0,3,5,332.6,3.164
92.85,1,-0.063,-0.043,-0.044,-0.017,-0.046,-0.026,-1.573,-0.026,-0.311,91.94,88.3,40.52813,-3.423892,624.0,3,5,332.6,3.164
92.95,1,-0.012,-0.035,-0.001,-0.037,-0.037,-0.026,-1.574,-0.025,-0.309,91.94,88.3,40.52813,-3.423892,624.0,3,5,332.6,3.164
93.05,1,-0.052,-0.049,-0.034,-0.026,-0.047,-0.022,-1.575,-0.025,-0.307,91.94,88.3,40.52813,-3.423892,624.0,3,5,332.6,3.164
93.15,1,-0.029,-0.049,-0.043,-0.045,-0.043,-0.029,-1.578,-0.024,-0.304,91.94,88.3,40.52813,-3.423892,624.0,3,5,332.6,3.164
93.26,1,0.013,-0.028,-0.019,-0.009,-0.039,-0.032,-1.572,-0.023,-0.302,91.94,88.3,40.52813,-3.423892,624.0,3,5,332.6,3.164
93.37,1,0.034,-0.037,-0.0,0.02,-0.04,-0.016,-1.57,-0.023,-0.3,91.94,88.3,40.52813,-3.423892,624.0,3,5,332.6,3.164
93.47,1,-0.011,-0.049,-0.053,0.0,-0.038,-0.024,-1.573,-0.023,-0.298,91.94,88.3,40.52813,-3.423892,624.0,3,5,332.6,3.164
93.56,1,0.036,-0.053,-0.051,0.02,-0.049,-0.039,-1.575,-0.024,-0.296,91.94,88.3,40.52813,-3.423892,624.0,3,5,332.6,3.164
93.66,1,-0.011,-0.041,-0.008,0.006,-0.044,-0.029,-1.572,-0.025,-0.293,92.94,88.4,40.528313,-3.424028,623.0,3,5,333.3,1.758
93.76,1,-0.02,-0.031,-0.015,-0.007,-0.037,-0.02,-1.57,-0.025,-0.291,92.94,88.4,40.528313,-3.424028,623.0,3,5,333.3,1.758
93.86,1,-0.022,-0.024,-0.009,-0.013,-0.037,-0.021,-1.568,-0.022,-0.289,92.94,88.4,40.528313,-3.424028,623.0,3,5,333.3,1.758
93.96,1,-0.017,-0.012,-0.005,-0.021,-0.021,-0.01,-1.563,-0.018,-0.286,92.94,88.4,40.528313,-3.424028,623.0,3,5,333.3,1.758
94.06,1,-0.037,-0.007,-0.018,-0.021,-0.013,-0.012,-1.56,-0.013,-0.284,92.94,88.4,40.528313,-3.424028,623.0,3,5,333.3,1.758
94.16,1,-0.038,-0.039,-0.014,-0.032,-0.021,-0.016,-1.565,-0.016,-0.281,92.94,88.4,40.528313,-3.424028,623.0,3,5,333.3,1.758
94.26,1,0.01,-0.03,-0.006,-0.015,-0.031,-0.011,-1.563,-0.013,-0.279,92.94,88.4,40.528313,-3.424028,623.0,3,5,333.3,1.758
94.36,1,-0.034,-0.017,0.008,-0.016,-0.025,0.003,-1.559,-0.012,-0.276,92.94,88.4,40.528313,-3.424028,623.0,3,5,333.3,1.758
94.46,1,-0.021,-0.041,-0.0,-0.035,-0.027,0.0,-1.554,-0.01,-0.273,92.94,88.4,40.528313,-3.424028,623.0,3,5,333.3,1.758
94.56,1,0.006,-0.04,-0.012,-0.005,-0.037,-0.001,-1.554,-0.01,-0.269,92.94,88.4,40.528313,-3.424028,623.0,3,5,333.3,1.758
94.66,1,-0.029,-0.027,-0.019,-0.016,-0.032,-0.012,-1.556,-0.01,-0.266,93.93,88.5,40.528519,-3.42415,622.7,3,5,333.6,1.055
94.76,1,0.013,-0.023,0.005,-0.01,-0.029,-0.01,-1.558,-0.007,-0.263,93.93,88.5,40.528519,-3.42415,622.7,3,5,333.6,1.055
94.86,1,0.01,-0.026,-0.002,0.011,-0.029,-0.005,-1.556,-0.003,-0.26,93.93,88.5,40.528519,-3.42415,622.7,3,5,333.6,1.055
94.96,1,0.001,-0.029,-0.013,0.005,-0.027,-0.004,-1.553,0.003,-0.256,93.93,88.5,40.528519,-3.42415,622.7,3,5,333.6,1.055
95.07,1,-0.005,-0.016,-0.007,-0.004,-0.021,-0.006,-1.552,0.001,-0.253,93.93,88.5,40.528519,-3.42415,622.7,3,5,333.6,1.055
95.16,1,0.015,-0.004,-0.003,0.01,-0.014,-0.01,-1.551,0.001,-0.249,93.93,88.5,40.528519,-3.42415,622.7,3,5,333.6,1.055
95.26,1,-0.005,0.007,-0.012,-0.002,-0.002,-0.004,-1.548,0.002,-0.246,93.93,88.5,40.528519,-3.42415,622.7,3,5,333.6,1.055
95.36,1,-0.061,-0.017,-0.003,-0.025,-0.008,-0.003,-1.544,0.005,-0.243,93.93,88.5,40.528519,-3.42415,622.7,3,5,333.6,1.055
95.46,1,-0.039,-0.007,0.015,-0.035,-0.013,-0.004,-1.542,0.007,-0.239,93.93,88.5,40.528519,-3.42415,622.7,3,5,333.6,1.055
95.56,1,-0.061,-0.008,-0.01,-0.048,-0.009,-0.0,-1.543,0.006,-0.236,93.93,88.5,40.528519,-3.42415,622.7,3,5,333.6,1.055
95.67,1,-0.046,-0.016,-0.026,-0.056,-0.006,-0.01,-1.548,0.006,-0.233,94.91,88.6,40.528717,-3.424284,622.7,3,5,333.6,0.352
95.76,1,-0.023,-0.009,-0.006,-0.03,-0.011,-0.008,-1.553,0.004,-0.23,94.91,88.6,40.528717,-3.424284,622.7,3,5,333.6,0.352
95.88,1,0.012,-0.0,0.001,-0.02,-0.008,-0.015,-1.551,0.001,-0.226,94.91,88.6,40.528717,-3.424284,622.7,3,5,333.6,0.352
95.96,1,0.055,-0.003,-0.007,0.024,-0.003,0.002,-1.544,0.002,-0.224,94.91,88.6,40.528717,-3.424284,622.7,3,5,333.6,0.352
96.06,1,-0.064,0.028,0.006,-0.002,0.007,-0.002,-1.544,-0.001,-0.22,94.91,88.6,40.528717,-3.424284,622.7,3,5,333.6,0.352
96.16,1,0.027,-0.014,-0.002,-0.006,0.004,-0.009,-1.545,-0.002,-0.217,94.91,88.6,40.528717,-3.424284,622.7,3,5,333.6,0.352
96.26,1,0.014,-0.004,-0.016,0.011,0.002,0.003,-1.545,-0.001,-0.214,94.91,88.6,40.528717,-3.424284,622.7,3,5,333.6,0.352
96.36,1,-0.034,0.0,0.018,-0.014,0.0,-0.001,-1.542,0.0,-0.211,94.91,88.6,40.528717,-3.424284,622.7,3,5,333.6,0.352
96.48,1,0.001,-0.003,0.008,-0.014,-0.002,0.003,-1.541,0.0,-0.208,94.91,88.6,40.528717,-3.424284,622.7,3,5,333.6,0.352
96.57,1,0.028,-0.002,0.013,0.004,-0.003,0.014,-1.538,0.002,-0.205,94.91,88.6,40.528717,-3.424284,622.7,3,5,333.6,0.352
96.66,1,0.009,0.001,-0.005,0.017,-0.003,0.003,-1.538,0.001,-0.202,96.0,88.3,40.528915,-3.424413,622.9,3,5,333.3,0.352
96.76,1,-0.012,0.005,0.004,0.007,0.0,0.007,-1.542,-0.001,-0.199,96.0,88.3,40.528915,-3.424413,622.9,3,5,333.3,0.352
96.86,1,-0.024,0.007,-0.013,-0.012,0.007,-0.003,-1.545,-0.005,-0.196,96.0,88.3,40.528915,-3.424413,622.9,3,5,333.3,0.352
96.96,1,-0.042,0.009,-0.014,-0.026,0.007,-0.008,-1.549,-0.009,-0.192,96.0,88.3,40.528915,-3.424413,622.9,3,5,333.3,0.352
97.07,1,0.009,-0.004,-0.007,-0.02,0.004,-0.012,-1.551,-0.009,-0.189,96.0,88.3,40.528915,-3.424413,622.9,3,5,333.3,0.352
97.17,1,-0.031,-0.0,-0.038,-0.015,0.003,-0.02,-1.551,-0.009,-0.186,96.0,88.3,40.528915,-3.424413,622.9,3,5,333.3,0.352
97.27,1,-0.106,-0.07,-0.043,-0.052,-0.026,-0.032,-1.549,-0.008,-0.182,96.0,88.3,40.528915,-3.424413,622.9,3,5,333.3,0.352
97.37,1,-0.101,0.03,0.013,-0.081,-0.022,-0.022,-1.553,-0.013,-0.178,96.0,88.3,40.528915,-3.424413,622.9,3,5,333.3,0.352
97.47,1,0.028,0.024,0.002,-0.048,0.007,0.003,-1.553,-0.016,-0.175,96.0,88.3,40.528915,-3.424413,622.9,3,5,333.3,0.352
97.57,1,0.115,-0.024,0.012,0.033,0.001,0.003,-1.549,-0.017,-0.171,96.0,88.3,40.528915,-3.424413,622.9,3,5,333.3,0.352
97.67,1,0.084,-0.028,-0.016,0.078,-0.014,-0.005,-1.545,-0.016,-0.167,96.97,88.3,40.529106,-3.424542,622.6,3,5,332.9,0.703
97.77,1,0.022,-0.022,-0.009,0.057,-0.022,-0.009,-1.539,-0.012,-0.163,96.97,88.3,40.529106,-3.424542,622.6,3,5,332.9,0.703
97.87,1,-0.077,0.006,-0.012,-0.001,-0.01,-0.007,-1.542,-0.014,-0.16,96.97,88.3,40.529106,-3.424542,622.6,3,5,332.9,0.703
97.97,1,-0.077,0.007,0.0,-0.059,0.001,-0.007,-1.543,-0.014,-0.156,96.97,88.3,40.529106,-3.424542,622.6,3,5,332.9,0.703
98.07,1,-0.042,-0.016,0.004,-0.057,-0.0,-0.0,-1.543,-0.014,-0.152,96.97,88.3,40.529106,-3.424542,622.6,3,5,332.9,0.703
98.18,1,0.001,-0.014,-0.003,-0.031,-0.011,0.0,-1.542,-0.015,-0.148,96.97,88.3,40.529106,-3.424542,622.6,3,5,332.9,0.703
98.27,1,0.107,-0.012,0.006,0.035,-0.015,-0.0,-1.54,-0.015,-0.145,96.97,88.3,40.529106,-3.424542,622.6,3,5,332.9,0.703
98.37,1,0.087,-0.016,0.005,0.076,-0.018,0.005,-1.541,-0.017,-0.142,96.97,88.3,40.529106,-3.424542,622.6,3,5,332.9,0.703
98.47,1,-0.026,0.021,0.008,0.039,0.001,0.008,-1.537,-0.018,-0.138,96.97,88.3,40.529106,-3.424542,622.6,3,5,332.9,0.703
98.57,1,-0.001,0.016,-0.005,0.006,0.009,-0.002,-1.533,-0.02,-0.135,96.97,88.3,40.529106,-3.424542,622.6,3,5,332.9,0.703
98.67,1,-0.032,-0.014,-0.044,-0.006,0.002,-0.024,-1.529,-0.022,-0.131,98.01,87.9,40.529312,-3.424672,622.7,3,5,332.2,1.055
98.77,1,-0.192,-0.051,-0.024,-0.096,-0.021,-0.021,-1.531,-0.02,-0.127,98.01,87.9,40.529312,-3.424672,622.7,3,5,332.2,1.055
98.87,1,-0.153,-0.045,-0.002,-0.142,-0.039,-0.014,-1.537,-0.019,-0.122,98.01,87.9,40.529312,-3.424672,622.7,3,5,332.2,1.055
98.98,1,-0.051,-0.064,0.043,-0.11,-0.043,0.007,-1.544,-0.017,-0.117,98.01,87.9,40.529312,-3.424672,622.7,3,5,332.2,1.055
99.07,1,0.056,-0.047,0.047,-0.036,-0.066,0.04,-1.544,-0.016,-0.112,98.01,87.9,40.529312,-3.424672,622.7,3,5,332.2,1.055
99.17,1,0.148,-0.052,0.013,0.068,-0.045,0.026,-1.541,-0.015,-0.108,98.01,87.9,40.529312,-3.424672,622.7,3,5,332.2,1.055
99.27,1,0.121,-0.026,0.008,0.108,-0.036,0.023,-1.537,-0.015,-0.103,98.01,87.9,40.529312,-3.424672,622.7,3,5,332.2,1.055
99.38,1,-0.008,0.014,-0.01,0.069,-0.016,-0.003,-1.536,-0.015,-0.1,98.01,87.9,40.529312,-3.424672,622.7,3,5,332.2,1.055
99.47,1,-0.026,-0.028,-0.022,0.005,-0.014,-0.011,-1.534,-0.016,-0.096,98.01,87.9,40.529312,-3.424672,622.7,3,5,332.2,1.055
99.58,1,-0.068,-0.025,-0.016,-0.026,-0.023,-0.015,-1.534,-0.016,-0.092,98.01,87.9,40.529312,-3.424672,622.7,3,5,332.2,1.055
99.67,1,-0.063,0.008,0.029,-0.052,-0.009,0.005,-1.535,-0.015,-0.089,98.94,87.3,40.529507,-3.424811,622.7,3,5,331.5,1.406
99.77,1,0.024,-0.022,0.008,-0.026,-0.008,0.008,-1.533,-0.011,-0.085,98.94,87.3,40.529507,-3.424811,622.7,3,5,331.5,1.406
99.87,1,0.018,-0.01,0.036,0.001,-0.012,0.025,-1.536,-0.01,-0.081,98.94,87.3,40.529507,-3.424811,622.7,3,5,331.5,1.406
99.97,1,0.004,-0.021,-0.01,0.021,-0.021,0.014,-1.533,-0.008,-0.077,98.94,87.3,40.529507,-3.424811,622.7,3,5,331.5,1.406
100.07,1,-0.01,-0.011,0.019,-0.007,-0.012,0.01,-1.53,-0.005,-0.073,98.94,87.3,40.529507,-3.424811,622.7,3,5,331.5,1.406
100.18,1,-0.057,0.024,0.012,-0.022,0.001,0.013,-1.529,-0.005,-0.07,98.94,87.3,40.529507,-3.424811,622.7,3,5,331.5,1.406
100.27,1,-0.079,0.011,-0.007,-0.062,0.012,0.0,-1.531,-0.003,-0.066,98.94,87.3,40.529507,-3.424811,622.7,3,5,331.5,1.406
100.37,1,-0.035,-0.023,0.023,-0.055,-0.003,0.006,-1.534,0.0,-0.062,98.94,87.3,40.529507,-3.424811,622.7,3,5,331.5,1.406
100.47,1,-0.073,-0.002,0.023,-0.057,-0.008,0.018,-1.536,0.003,-0.058,98.94,87.3,40.529507,-3.424811,622.7,3,5,331.5,1.406
100.57,1,-0.042,-0.003,0.003,-0.056,-0.003,0.016,-1.535,0.006,-0.054,98.94,87.3,40.529507,-3.424811,622.7,3,5,331.5,1.406
100.67,1,0.009,0.006,0.052,-0.023,-0.001,0.028,-1.535,0.008,-0.05,99.91,86.7,40.52969,-3.424949,622.7,3,5,330.5,1.758
100.78,1,0.035,-0.007,0.045,0.009,0.001,0.044,-1.535,0.011,-0.046,99.91,86.7,40.52969,-3.424949,622.7,3,5,330.5,1.758
100.88,1,0.026,0.019,0.047,0.024,0.0,0.041,-1.535,0.009,-0.043,99.91,86.7,40.52969,-3.424949,622.7,3,5,330.5,1.758
101.07,1,0.041,0.019,0.036,0.049,0.019,0.037,-1.535,0.005,-0.037,99.91,86.7,40.52969,-3.424949,622.7,3,5,330.5,1.758
101.18,1,-0.061,-0.001,0.011,-0.0,0.01,0.026,-1.537,0.006,-0.033,99.91,86.7,40.52969,-3.424949,622.7,3,5,330.5,1.758
101.28,1,-0.006,-0.004,0.042,-0.019,0.005,0.031,-1.541,0.011,-0.029,99.91,86.7,40.52969,-3.424949,622.7,3,5,330.5,1.758
101.38,1,0.005,0.0,0.015,-0.002,-0.003,0.025,-1.543,0.015,-0.025,99.91,86.7,40.52969,-3.424949,622.7,3,5,330.5,1.758
101.48,1,-0.009,0.014,0.016,-0.005,0.005,0.018,-1.545,0.015,-0.022,99.91,86.7,40.52969,-3.424949,622.7,3,5,330.5,1.758
101.58,1,-0.014,-0.01,0.015,-0.01,0.005,0.021,-1.549,0.015,-0.017,99.91,86.7,40.52969,-3.424949,622.7,3,5,330.5,1.758
101.68,1,-0.067,-0.055,0.005,-0.022,-0.029,0.006,-1.551,0.018,-0.013,99.91,86.7,40.52969,-3.424949,622.7,3,5,330.5,1.758
101.78,1,-0.135,-0.015,-0.018,-0.081,-0.04,0.001,-1.554,0.018,-0.007,100.91,87.2,40.529881,-3.425097,621.4,3,5,329.1,2.461
101.88,1,-0.128,0.014,0.103,-0.101,-0.006,0.021,-1.558,0.018,-0.002,100.91,87.2,40.529881,-3.425097,621.4,3,5,329.1,2.461
101.98,1,-0.121,0.01,0.002,-0.135,0.009,0.046,-1.562,0.018,0.003,100.91,87.2,40.529881,-3.425097,621.4,3,5,329.1,2.461
102.08,1,-0.029,0.008,0.025,-0.089,0.013,0.028,-1.565,0.016,0.009,100.91,87.2,40.529881,-3.425097,621.4,3,5,329.1,2.461
102.18,1,-0.009,-0.003,-0.009,-0.044,0.004,0.018,-1.564,0.016,0.014,100.91,87.2,40.529881,-3.425097,621.4,3,5,329.1,2.461
102.28,1,0.014,-0.039,-0.0,-0.014,-0.01,-0.001,-1.562,0.02,0.018,100.91,87.2,40.529881,-3.425097,621.4,3,5,329.1,2.461
102.38,1,0.045,-0.035,-0.001,0.019,-0.028,0.003,-1.561,0.023,0.023,100.91,87.2,40.529881,-3.425097,621.4,3,5,329.1,2.461
102.49,1,-0.0,0.023,-0.013,0.018,-0.012,-0.008,-1.561,0.019,0.027,100.91,87.2,40.529881,-3.425097,621.4,3,5,329.1,2.461
102.59,1,0.018,0.02,0.003,0.012,0.009,-0.003,-1.558,0.019,0.032,100.91,87.2,40.529881,-3.425097,621.4,3,5,329.1,2.461
102.69,1,-0.015,0.008,0.004,0.009,0.013,0.001,-1.553,0.02,0.036,100.91,87.2,40.529881,-3.425097,621.4,3,5,329.1,2.461
102.78,1,-0.004,-0.017,0.005,-0.007,0.002,0.005,-1.55,0.023,0.04,101.91,87.8,40.530067,-3.425252,619.2,3,5,328.0,2.461
102.88,1,0.001,0.004,0.024,-0.006,-0.004,0.012,-1.549,0.022,0.045,101.91,87.8,40.530067,-3.425252,619.2,3,5,328.0,2.461
102.98,1,-0.006,-0.01,0.001,0.003,-0.007,0.017,-1.553,0.021,0.05,101.91,87.8,40.530067,-3.425252,619.2,3,5,328.0,2.461
103.08,1,-0.073,-0.01,-0.008,-0.03,-0.008,-0.002,-1.558,0.02,0.054,101.91,87.8,40.530067,-3.425252,619.2,3,5,328.0,2.461
103.18,1,-0.085,0.015,-0.011,-0.066,-0.002,-0.016,-1.559,0.021,0.059,101.91,87.8,40.530067,-3.425252,619.2,3,5,328.0,2.461
103.29,1,0.012,-0.003,0.001,-0.045,0.006,-0.006,-1.558,0.021,0.064,101.91,87.8,40.530067,-3.425252,619.2,3,5,328.0,2.461
103.38,1,0.101,-0.009,0.037,0.027,-0.004,0.018,-1.556,0.022,0.068,101.91,87.8,40.530067,-3.425252,619.2,3,5,328.0,2.461
103.48,1,0.054,-0.007,-0.011,0.062,-0.006,0.012,-1.553,0.022,0.073,101.91,87.8,40.530067,-3.425252,619.2,3,5,328.0,2.461
103.58,1,0.034,0.019,-0.028,0.045,0.006,-0.008,-1.549,0.021,0.077,101.91,87.8,40.530067,-3.425252,619.2,3,5,328.0,2.461
103.68,1,0.031,0.039,0.009,0.043,0.02,-0.009,-1.547,0.019,0.081,101.91,87.8,40.530067,-3.425252,619.2,3,5,328.0,2.461
103.79,1,-0.043,0.014,-0.021,0.007,0.023,-0.008,-1.547,0.019,0.087,102.97,87.8,40.530247,-3.425406,619.6,3,5,326.2,2.812
103.88,1,-0.028,-0.002,-0.028,-0.028,0.016,-0.021,-1.544,0.02,0.092,102.97,87.8,40.530247,-3.425406,619.6,3,5,326.2,2.812
103.99,1,0.003,-0.028,0.002,-0.01,-0.008,-0.015,-1.544,0.024,0.097,102.97,87.8,40.530247,-3.425406,619.6,3,5,326.2,2.812
104.08,1,-0.082,0.008,-0.028,-0.039,-0.008,-0.014,-1.546,0.027,0.102,102.97,87.8,40.530247,-3.425406,619.6,3,5,326.2,2.812
104.18,1,-0.064,0.007,-0.003,-0.063,0.002,-0.014,-1.549,0.028,0.107,102.97,87.8,40.530247,-3.425406,619.6,3,5,326.2,2.812
104.28,1,0.041,-0.007,0.016,-0.019,0.002,0.002,-1.552,0.029,0.112,102.97,87.8,40.530247,-3.425406,619.6,3,5,326.2,2.812
104.38,1,0.027,0.018,-0.026,0.014,0.005,-0.003,-1.549,0.03,0.117,102.97,87.8,40.530247,-3.425406,619.6,3,5,326.2,2.812
104.49,1,0.02,0.029,-0.006,0.013,0.02,-0.016,-1.548,0.028,0.121,102.97,87.8,40.530247,-3.425406,619.6,3,5,326.2,2.812
104.58,1,0.042,0.028,0.007,0.034,0.022,0.002,-1.545,0.025,0.125,102.97,87.8,40.530247,-3.425406,619.6,3,5,326.2,2.812
104.68,1,-0.024,0.026,0.004,0.015,0.024,0.001,-1.542,0.025,0.129,102.97,87.8,40.530247,-3.425406,619.6,3,5,326.2,2.812
104.78,1,-0.059,0.051,-0.012,-0.025,0.033,-0.007,-1.538,0.024,0.133,103.91,88.5,40.530426,-3.425574,619.7,3,5,324.5,3.516
104.89,1,-0.051,0.017,-0.004,-0.046,0.03,-0.007,-1.54,0.022,0.136,103.91,88.5,40.530426,-3.425574,619.7,3,5,324.5,3.516
104.99,1,-0.005,0.025,0.025,-0.028,0.026,0.015,-1.539,0.019,0.139,103.91,88.5,40.530426,-3.425574,619.7,3,5,324.5,3.516
105.09,1,-0.061,0.044,-0.021,-0.044,0.037,-0.0,-1.539,0.019,0.142,103.91,88.5,40.530426,-3.425574,619.7,3,5,324.5,3.516
105.19,1,0.033,0.032,0.031,-0.016,0.031,0.009,-1.54,0.019,0.145,103.91,88.5,40.530426,-3.425574,619.7,3,5,324.5,3.516
105.29,1,0.029,0.002,0.015,0.018,0.026,0.014,-1.539,0.016,0.149,103.91,88.5,40.530426,-3.425574,619.7,3,5,324.5,3.516
105.39,1,0.065,0.023,0.023,0.037,0.021,0.018,-1.541,0.017,0.152,103.91,88.5,40.530426,-3.425574,619.7,3,5,324.5,3.516
105.49,1,0.026,0.018,0.005,0.04,0.017,0.012,-1.54,0.013,0.155,103.91,88.5,40.530426,-3.425574,619.7,3,5,324.5,3.516
105.59,1,-0.015,0.019,-0.019,0.024,0.015,0.001,-1.531,0.012,0.158,103.91,88.5,40.530426,-3.425574,619.7,3,5,324.5,3.516
105.69,1,-0.063,0.021,-0.002,-0.029,0.023,-0.01,-1.529,0.012,0.162,103.91,88.5,40.530426,-3.425574,619.7,3,5,324.5,3.516
105.8,1,-0.043,0.002,0.011,-0.043,0.012,0.004,-1.531,0.013,0.165,104.91,87.2,40.530594,-3.425742,619.9,3,5,322.7,3.516
105.89,1,0.006,0.013,0.012,-0.018,0.013,0.008,-1.531,0.011,0.169,104.91,87.2,40.530594,-3.425742,619.9,3,5,322.7,3.516
105.99,1,-0.051,0.009,-0.012,-0.027,0.008,-0.002,-1.532,0.01,0.173,104.91,87.2,40.530594,-3.425742,619.9,3,5,322.7,3.516
106.09,1,-0.017,-0.004,-0.006,-0.038,0.007,-0.007,-1.533,0.009,0.176,104.91,87.2,40.530594,-3.425742,619.9,3,5,322.7,3.516
106.19,1,0.045,-0.018,0.014,0.015,-0.008,0.008,-1.534,0.011,0.18,104.91,87.2,40.530594,-3.425742,619.9,3,5,322.7,3.516
106.29,1,0.006,0.016,-0.019,0.011,-0.001,-0.004,-1.534,0.01,0.184,104.91,87.2,40.530594,-3.425742,619.9,3,5,322.7,3.516
106.4,1,-0.016,0.006,0.013,0.001,0.006,0.0,-1.537,0.01,0.187,104.91,87.2,40.530594,-3.425742,619.9,3,5,322.7,3.516
106.49,1,-0.022,0.008,0.011,-0.008,0.006,0.007,-1.535,0.014,0.191,104.91,87.2,40.530594,-3.425742,619.9,3,5,322.7,3.516
106.59,1,-0.006,0.006,-0.009,-0.019,0.008,-0.0,-1.532,0.015,0.194,104.91,87.2,40.530594,-3.425742,619.9,3,5,322.7,3.516
106.69,1,-0.035,0.016,0.004,-0.022,0.012,0.004,-1.538,0.013,0.198,104.91,87.2,40.530594,-3.425742,619.9,3,5,322.7,3.516
106.79,1,-0.051,0.032,-0.003,-0.043,0.019,-0.003,-1.539,0.012,0.2,105.91,87.9,40.530766,-3.425926,618.8,3,5,321.3,3.164
106.89,1,0.008,0.022,-0.011,-0.012,0.023,-0.008,-1.54,0.013,0.203,105.91,87.9,40.530766,-3.425926,618.8,3,5,321.3,3.164
106.99,1,-0.033,0.033,0.002,-0.016,0.025,-0.003,-1.545,0.012,0.206,105.91,87.9,40.530766,-3.425926,618.8,3,5,321.3,3.164
107.1,1,0.004,0.021,0.009,-0.013,0.025,0.003,-1.55,0.01,0.209,105.91,87.9,40.530766,-3.425926,618.8,3,5,321.3,3.164
107.2,1,-0.031,0.001,-0.007,-0.017,0.015,-0.003,-1.554,0.008,0.211,105.91,87.9,40.530766,-3.425926,618.8,3,5,321.3,3.164
107.29,1,-0.085,0.031,-0.02,-0.044,0.018,-0.005,-1.556,0.006,0.213,105.91,87.9,40.530766,-3.425926,618.8,3,5,321.3,3.164
107.39,1,-0.011,0.019,-0.001,-0.044,0.023,-0.013,-1.558,0.004,0.216,105.91,87.9,40.530766,-3.425926,618.8,3,5,321.3,3.164
107.5,1,-0.008,0.005,-0.012,-0.019,0.018,-0.001,-1.562,0.005,0.218,105.91,87.9,40.530766,-3.425926,618.8,3,5,321.3,3.164
107.59,1,-0.025,0.013,-0.008,-0.021,0.011,-0.011,-1.563,0.003,0.22,105.91,87.9,40.530766,-3.425926,618.8,3,5,321.3,3.164
107.69,1,-0.001,0.018,-0.013,-0.014,0.014,-0.014,-1.565,-0.0,0.222,105.91,87.9,40.530766,-3.425926,618.8,3,5,321.3,3.164
107.79,1,-0.015,0.018,-0.006,-0.016,0.017,-0.006,-1.568,-0.002,0.224,106.91,88.9,40.530933,-3.426117,618.4,3,5,319.2,3.516
107.89,1,0.009,0.008,0.008,0.002,0.006,-0.009,-1.569,-0.003,0.227,106.91,88.9,40.530933,-3.426117,618.4,3,5,319.2,3.516
107.99,1,-0.043,0.006,-0.043,-0.018,0.011,-0.017,-1.571,-0.006,0.229,106.91,88.9,40.530933,-3.426117,618.4,3,5,319.2,3.516
108.1,1,-0.015,-0.004,-0.025,-0.02,0.005,-0.017,-1.573,-0.007,0.231,106.91,88.9,40.530933,-3.426117,618.4,3,5,319.2,3.516
108.19,1,-0.016,-0.007,-0.027,-0.025,-0.001,-0.03,-1.572,-0.01,0.233,106.91,88.9,40.530933,-3.426117,618.4,3,5,319.2,3.516
108.3,1,-0.032,0.002,-0.025,-0.019,-0.001,-0.024,-1.572,-0.009,0.235,106.91,88.9,40.530933,-3.426117,618.4,3,5,319.2,3.516
108.41,1,-0.099,0.014,-0.032,-0.058,0.005,-0.032,-1.572,-0.006,0.238,106.91,88.9,40.530933,-3.426117,618.4,3,5,319.2,3.516
108.5,1,-0.005,0.012,0.007,-0.045,0.01,-0.013,-1.574,-0.004,0.24,106.91,88.9,40.530933,-3.426117,618.4,3,5,319.2,3.516
108.59,1,0.013,-0.007,0.002,-0.015,0.004,-0.001,-1.575,-0.003,0.243,106.91,88.9,40.530933,-3.426117,618.4,3,5,319.2,3.516
108.7,1,0.032,-0.027,-0.028,0.015,-0.01,-0.01,-1.572,-0.001,0.245,106.91,88.9,40.530933,-3.426117,618.4,3,5,319.2,3.516
108.8,1,0.005,-0.012,-0.009,0.015,-0.014,-0.011,-1.565,0.005,0.247,107.95,87.5,40.53109,-3.426318,617.6,3,5,318.2,3.164
108.9,1,-0.07,0.026,-0.002,-0.024,-0.001,-0.011,-1.562,0.009,0.25,107.95,87.5,40.53109,-3.426318,617.6,3,5,318.2,3.164
109.0,1,-0.067,0.02,-0.002,-0.05,0.016,-0.005,-1.561,0.009,0.252,107.95,87.5,40.53109,-3.426318,617.6,3,5,318.2,3.164
109.1,1,-0.038,0.012,-0.021,-0.055,0.016,-0.012,-1.562,0.009,0.255,107.95,87.5,40.53109,-3.426318,617.6,3,5,318.2,3.164
109.2,1,0.025,-0.008,0.008,-0.008,0.0,-0.004,-1.565,0.012,0.257,107.95,87.5,40.53109,-3.426318,617.6,3,5,318.2,3.164
109.3,1,-0.054,0.007,-0.024,-0.023,0.004,-0.009,-1.567,0.013,0.26,107.95,87.5,40.53109,-3.426318,617.6,3,5,318.2,3.164
109.4,1,0.003,-0.004,-0.005,-0.031,0.007,-0.015,-1.564,0.012,0.262,107.95,87.5,40.53109,-3.426318,617.6,3,5,318.2,3.164
109.5,1,0.008,0.014,-0.022,0.007,0.005,-0.013,-1.564,0.011,0.264,107.95,87.5,40.53109,-3.426318,617.6,3,5,318.2,3.164
109.6,1,-0.068,0.024,-0.021,-0.022,0.013,-0.018,-1.564,0.011,0.266,107.95,87.5,40.53109,-3.426318,617.6,3,5,318.2,3.164
109.7,1,-0.126,0.028,-0.011,-0.082,0.018,-0.02,-1.566,0.012,0.269,107.95,87.5,40.53109,-3.426318,617.6,3,5,318.2,3.164
109.8,1,-0.154,0.036,-0.058,-0.119,0.025,-0.038,-1.568,0.013,0.271,108.92,87.6,40.531258,-3.426514,616.3,3,5,316.8,2.461
109.9,1,-0.059,0.025,0.04,-0.106,0.035,-0.005,-1.575,0.017,0.273,108.92,87.6,40.531258,-3.426514,616.3,3,5,316.8,2.461
110.01,1,0.043,-0.017,0.013,-0.04,0.011,0.019,-1.58,0.023,0.276,108.92,87.6,40.531258,-3.426514,616.3,3,5,316.8,2.461
110.1,1,0.085,0.004,-0.008,0.04,-0.002,-0.002,-1.577,0.024,0.278,108.92,87.6,40.531258,-3.426514,616.3,3,5,316.8,2.461
110.2,1,0.026,0.024,-0.019,0.046,0.013,-0.007,-1.573,0.022,0.28,108.92,87.6,40.531258,-3.426514,616.3,3,5,316.8,2.461
110.3,1,-0.043,0.028,-0.011,0.0,0.022,-0.013,-1.573,0.015,0.282,108.92,87.6,40.531258,-3.426514,616.3,3,5,316.8,2.461
110.4,1,-0.047,0.026,-0.022,-0.033,0.025,-0.012,-1.569,0.013,0.284,108.92,87.6,40.531258,-3.426514,616.3,3,5,316.8,2.461
110.5,1,-0.059,0.024,-0.005,-0.041,0.025,-0.011,-1.568,0.013,0.285,108.92,87.6,40.531258,-3.426514,616.3,3,5,316.8,2.461
110.6,1,-0.053,0.01,0.028,-0.049,0.016,-0.002,-1.565,0.013,0.287,108.92,87.6,40.531258,-3.426514,616.3,3,5,316.8,2.461
110.7,1,-0.036,0.012,-0.022,-0.044,0.016,0.002,-1.566,0.011,0.288,108.92,87.6,40.531258,-3.426514,616.3,3,5,316.8,2.461
110.8,1,0.0,0.04,0.004,-0.026,0.025,-0.004,-1.565,0.009,0.289,109.92,88.5,40.531418,-3.426709,616.1,3,5,316.1,2.109
110.9,1,-0.014,0.047,0.01,-0.014,0.035,0.005,-1.564,0.002,0.29,109.92,88.5,40.531418,-3.426709,616.1,3,5,316.1,2.109
111.0,1,-0.069,0.045,-0.001,-0.039,0.043,0.002,-1.564,0.0,0.291,109.92,88.5,40.531418,-3.426709,616.1,3,5,316.1,2.109
111.1,1,-0.033,0.016,-0.003,-0.04,0.033,-0.001,-1.561,-0.001,0.292,109.92,88.5,40.531418,-3.426709,616.1,3,5,316.1,2.109
111.2,1,-0.028,0.011,0.009,-0.032,0.019,0.006,-1.563,0.0,0.293,109.92,88.5,40.531418,-3.426709,616.1,3,5,316.1,2.109
111.3,1,-0.057,0.059,-0.017,-0.046,0.032,0.001,-1.562,0.0,0.293,109.92,88.5,40.531418,-3.426709,616.1,3,5,316.1,2.109
111.41,1,-0.036,0.019,0.015,-0.046,0.033,-0.007,-1.567,-0.001,0.294,109.92,88.5,40.531418,-3.426709,616.1,3,5,316.1,2.109
111.51,1,-0.004,0.027,0.004,-0.028,0.031,0.006,-1.569,-0.001,0.295,109.92,88.5,40.531418,-3.426709,616.1,3,5,316.1,2.109
111.6,1,-0.004,0.026,-0.008,-0.009,0.025,-0.001,-1.57,-0.003,0.296,109.92,88.5,40.531418,-3.426709,616.1,3,5,316.1,2.109
111.7,1,-0.037,0.025,-0.006,-0.016,0.026,-0.008,-1.568,-0.003,0.297,109.92,88.5,40.531418,-3.426709,616.1,3,5,316.1,2.109
111.8,1,-0.05,0.037,-0.019,-0.048,0.033,-0.009,-1.566,-0.005,0.298,110.91,87.9,40.531574,-3.426919,615.0,3,5,313.9,2.812
111.9,1,-0.04,0.009,0.001,-0.038,0.024,-0.008,-1.565,-0.006,0.299,110.91,87.9,40.531574,-3.426919,615.0,3,5,313.9,2.812
112.0,1,-0.0,0.01,-0.001,-0.024,0.015,-0.002,-1.563,-0.007,0.3,110.91,87.9,40.531574,-3.426919,615.0,3,5,313.9,2.812
112.11,1,-0.021,0.033,0.008,-0.014,0.021,0.003,-1.563,-0.007,0.301,110.91,87.9,40.531574,-3.426919,615.0,3,5,313.9,2.812
112.2,1,-0.068,0.012,-0.002,-0.036,0.021,0.003,-1.564,-0.009,0.302,110.91,87.9,40.531574,-3.426919,615.0,3,5,313.9,2.812
112.3,1,-0.055,-0.001,-0.02,-0.051,0.009,-0.008,-1.566,-0.008,0.304,110.91,87.9,40.531574,-3.426919,615.0,3,5,313.9,2.812
112.4,1,-0.041,-0.009,0.027,-0.053,-0.002,-0.002,-1.568,-0.008,0.305,110.91,87.9,40.531574,-3.426919,615.0,3,5,313.9,2.812
112.51,1,-0.015,-0.008,0.016,-0.034,-0.007,0.018,-1.568,-0.005,0.307,110.91,87.9,40.531574,-3.426919,615.0,3,5,313.9,2.812
112.61,1,-0.006,0.003,0.02,-0.017,-0.001,0.016,-1.567,-0.005,0.309,110.91,87.9,40.531574,-3.426919,615.0,3,5,313.9,2.812
112.71,1,-0.016,-0.02,-0.008,-0.013,-0.008,0.006,-1.568,-0.005,0.311,110.91,87.9,40.531574,-3.426919,615.0,3,5,313.9,2.812
112.81,1,-0.008,-0.013,0.006,-0.011,-0.015,0.009,-1.568,-0.0,0.312,111.94,87.2,40.531723,-3.427126,615.5,3,5,312.5,3.516
112.91,1,-0.054,0.01,-0.007,-0.029,-0.003,-0.002,-1.572,-0.001,0.314,111.94,87.2,40.531723,-3.427126,615.5,3,5,312.5,3.516
113.01,1,0.0,-0.015,0.013,-0.023,-0.003,0.003,-1.574,0.001,0.316,111.94,87.2,40.531723,-3.427126,615.5,3,5,312.5,3.516
113.11,1,-0.067,0.001,-0.019,-0.036,-0.005,-0.0,-1.576,0.004,0.319,111.94,87.2,40.531723,-3.427126,615.5,3,5,312.5,3.516
113.21,1,0.02,-0.02,-0.006,-0.02,-0.011,-0.013,-1.578,0.005,0.321,111.94,87.2,40.531723,-3.427126,615.5,3,5,312.5,3.516
113.32,1,-0.001,-0.013,-0.012,-0.001,-0.013,-0.005,-1.584,0.003,0.323,111.94,87.2,40.531723,-3.427126,615.5,3,5,312.5,3.516
113.41,1,-0.018,-0.013,0.004,-0.012,-0.011,-0.009,-1.584,0.003,0.325,111.94,87.2,40.531723,-3.427126,615.5,3,5,312.5,3.516
113.51,1,-0.038,0.003,-0.005,-0.023,-0.009,-0.002,-1.586,0.003,0.327,111.94,87.2,40.531723,-3.427126,615.5,3,5,312.5,3.516
113.61,1,-0.056,0.006,-0.004,-0.039,0.0,-0.004,-1.586,0.003,0.328,111.94,87.2,40.531723,-3.427126,615.5,3,5,312.5,3.516
113.71,1,-0.032,-0.006,0.009,-0.044,-0.003,-0.0,-1.587,0.003,0.33,111.94,87.2,40.531723,-3.427126,615.5,3,5,312.5,3.516
113.81,1,-0.027,-0.026,0.005,-0.03,-0.013,0.006,-1.588,0.001,0.332,112.96,86.7,40.531876,-3.427341,615.4,3,5,311.5,2.461
113.92,1,-0.07,0.007,-0.008,-0.042,-0.008,-0.0,-1.589,0.0,0.334,112.96,86.7,40.531876,-3.427341,615.4,3,5,311.5,2.461
114.01,1,-0.05,0.006,-0.012,-0.065,0.003,-0.008,-1.591,0.001,0.336,112.96,86.7,40.531876,-3.427341,615.4,3,5,311.5,2.461
114.11,1,-0.022,0.014,0.017,-0.03,0.007,0.003,-1.592,0.0,0.337,112.96,86.7,40.531876,-3.427341,615.4,3,5,311.5,2.461
114.21,1,-0.046,0.003,-0.008,-0.037,0.004,0.001,-1.593,0.0,0.339,112.96,86.7,40.531876,-3.427341,615.4,3,5,311.5,2.461
114.31,1,-0.023,0.007,0.006,-0.037,0.01,-0.0,-1.591,-0.001,0.341,112.96,86.7,40.531876,-3.427341,615.4,3,5,311.5,2.461
114.41,1,-0.018,0.005,-0.001,-0.027,0.003,-0.003,-1.589,-0.003,0.342,112.96,86.7,40.531876,-3.427341,615.4,3,5,311.5,2.461
114.52,1,-0.015,-0.003,0.021,-0.019,0.004,0.013,-1.59,-0.001,0.344,112.96,86.7,40.531876,-3.427341,615.4,3,5,311.5,2.461
114.62,1,-0.0,-0.02,0.021,-0.005,-0.01,0.017,-1.592,-0.0,0.346,112.96,86.7,40.531876,-3.427341,615.4,3,5,311.5,2.461
114.71,1,-0.043,-0.002,-0.001,-0.014,-0.01,0.014,-1.593,0.001,0.348,112.96,86.7,40.531876,-3.427341,615.4,3,5,311.5,2.461
114.81,1,-0.081,0.0,-0.007,-0.064,0.004,-0.001,-1.593,0.002,0.35,113.92,85.7,40.532009,-3.427555,615.9,3,5,309.4,3.164
114.91,1,-0.014,0.003,0.007,-0.045,0.003,-0.001,-1.595,0.004,0.351,113.92,85.7,40.532009,-3.427555,615.9,3,5,309.4,3.164
115.01,1,-0.001,0.016,0.016,-0.013,0.004,0.008,-1.596,0.006,0.352,113.92,85.7,40.532009,-3.427555,615.9,3,5,309.4,3.164
115.11,1,0.004,0.003,-0.007,-0.005,0.007,0.004,-1.595,0.005,0.354,113.92,85.7,40.532009,-3.427555,615.9,3,5,309.4,3.164
115.21,1,-0.015,0.01,0.002,-0.011,0.011,-0.001,-1.595,0.005,0.355,113.92,85.7,40.532009,-3.427555,615.9,3,5,309.4,3.164
115.31,1,-0.029,0.016,0.025,-0.013,0.011,0.014,-1.597,0.006,0.356,113.92,85.7,40.532009,-3.427555,615.9,3,5,309.4,3.164
115.41,1,0.002,0.02,0.002,-0.019,0.013,0.012,-1.598,0.007,0.357,113.92,85.7,40.532009,-3.427555,615.9,3,5,309.4,3.164
115.51,1,-0.013,0.022,0.012,-0.007,0.021,0.01,-1.598,0.005,0.358,113.92,85.7,40.532009,-3.427555,615.9,3,5,309.4,3.164
115.62,1,-0.026,0.021,-0.002,-0.014,0.017,0.005,-1.597,0.005,0.359,113.92,85.7,40.532009,-3.427555,615.9,3,5,309.4,3.164
115.72,1,-0.044,0.022,0.008,-0.031,0.025,0.007,-1.595,0.006,0.36,113.92,85.7,40.532009,-3.427555,615.9,3,5,309.4,3.164
115.81,1,-0.016,0.015,0.01,-0.028,0.019,0.006,-1.595,0.006,0.361,114.98,86.7,40.532146,-3.427781,616.6,3,5,308.0,3.516
115.91,1,-0.003,0.004,0.001,-0.015,0.011,0.005,-1.594,0.006,0.362,114.98,86.7,40.532146,-3.427781,616.6,3,5,308.0,3.516
116.01,1,-0.065,0.028,0.008,-0.033,0.019,0.005,-1.596,0.005,0.363,114.98,86.7,40.532146,-3.427781,616.6,3,5,308.0,3.516
116.11,1,-0.033,0.007,-0.006,-0.049,0.019,-0.002,-1.599,0.005,0.364,114.98,86.7,40.532146,-3.427781,616.6,3,5,308.0,3.516
116.21,1,-0.03,0.008,-0.003,-0.036,0.007,-0.005,-1.6,0.006,0.366,114.98,86.7,40.532146,-3.427781,616.6,3,5,308.0,3.516
116.32,1,0.024,-0.001,0.038,-0.008,0.004,0.016,-1.6,0.009,0.368,114.98,86.7,40.532146,-3.427781,616.6,3,5,308.0,3.516
116.42,1,-0.058,0.018,-0.007,-0.01,0.006,0.017,-1.599,0.009,0.369,114.98,86.7,40.532146,-3.427781,616.6,3,5,308.0,3.516
116.52,1,-0.002,0.011,0.006,-0.028,0.016,0.002,-1.6,0.01,0.371,114.98,86.7,40.532146,-3.427781,616.6,3,5,308.0,3.516
116.62,1,-0.005,-0.012,0.024,-0.005,0.002,0.014,-1.604,0.012,0.373,114.98,86.7,40.532146,-3.427781,616.6,3,5,308.0,3.516
116.72,1,-0.057,0.003,-0.005,-0.033,-0.002,0.01,-1.604,0.013,0.375,114.98,86.7,40.532146,-3.427781,616.6,3,5,308.0,3.516
116.82,1,-0.022,-0.016,-0.011,-0.034,-0.007,-0.005,-1.6,0.014,0.377,115.96,83.0,40.532276,-3.427996,617.2,3,5,307.3,2.109
116.92,1,-0.031,0.024,0.009,-0.032,0.002,-0.002,-1.599,0.016,0.379,115.96,83.0,40.532276,-3.427996,617.2,3,5,307.3,2.109
117.03,1,-0.001,0.01,0.028,-0.016,0.008,0.014,-1.6,0.015,0.38,115.96,83.0,40.532276,-3.427996,617.2,3,5,307.3,2.109
117.12,1,-0.028,0.02,-0.014,-0.017,0.016,0.006,-1.601,0.014,0.382,115.96,83.0,40.532276,-3.427996,617.2,3,5,307.3,2.109
117.22,1,0.008,0.007,0.01,-0.006,0.016,0.001,-1.603,0.011,0.384,115.96,83.0,40.532276,-3.427996,617.2,3,5,307.3,2.109
117.32,1,-0.016,0.019,0.011,-0.012,0.02,0.012,-1.606,0.008,0.385,115.96,83.0,40.532276,-3.427996,617.2,3,5,307.3,2.109
117.43,1,-0.057,0.022,-0.007,-0.03,0.011,-0.001,-1.607,0.009,0.387,115.96,83.0,40.532276,-3.427996,617.2,3,5,307.3,2.109
117.52,1,-0.017,0.008,0.002,-0.03,0.016,0.001,-1.608,0.01,0.388,115.96,83.0,40.532276,-3.427996,617.2,3,5,307.3,2.109
117.63,1,0.001,0.007,-0.011,-0.012,0.007,-0.003,-1.609,0.008,0.389,115.96,83.0,40.532276,-3.427996,617.2,3,5,307.3,2.109
117.72,1,-0.013,0.016,-0.01,-0.012,0.011,-0.012,-1.612,0.002,0.39,115.96,83.0,40.532276,-3.427996,617.2,3,5,307.3,2.109
117.82,1,-0.016,0.015,-0.005,-0.01,0.014,-0.006,-1.615,0.001,0.391,116.96,85.8,40.532387,-3.428235,618.3,3,5,304.8,3.164
117.92,1,-0.04,0.026,-0.008,-0.024,0.018,-0.008,-1.615,-0.002,0.392,116.96,85.8,40.532387,-3.428235,618.3,3,5,304.8,3.164
118.02,1,0.007,-0.008,-0.007,-0.026,0.012,-0.004,-1.613,-0.007,0.394,116.96,85.8,40.532387,-3.428235,618.3,3,5,304.8,3.164
118.12,1,0.002,-0.002,-0.003,0.002,0.0,-0.001,-1.614,-0.006,0.395,116.96,85.8,40.532387,-3.428235,618.3,3,5,304.8,3.164
118.23,1,-0.037,0.023,0.005,-0.017,0.013,-0.007,-1.611,-0.006,0.395,116.96,85.8,40.532387,-3.428235,618.3,3,5,304.8,3.164
118.32,1,0.014,-0.029,-0.007,-0.007,-0.005,-0.005,-1.606,-0.005,0.397,116.96,85.8,40.532387,-3.428235,618.3,3,5,304.8,3.164
118.42,1,-0.036,0.005,0.001,-0.013,-0.006,0.004,-1.603,-0.005,0.399,116.96,85.8,40.532387,-3.428235,618.3,3,5,304.8,3.164
118.52,1,-0.029,0.013,-0.008,-0.025,0.002,-0.007,-1.605,-0.004,0.4,116.96,85.8,40.532387,-3.428235,618.3,3,5,304.8,3.164
118.62,1,-0.033,-0.002,0.009,-0.026,0.006,0.004,-1.603,0.001,0.402,116.96,85.8,40.532387,-3.428235,618.3,3,5,304.8,3.164
118.72,1,0.003,0.006,0.006,-0.021,0.007,0.003,-1.6,0.004,0.403,116.96,85.8,40.532387,-3.428235,618.3,3,5,304.8,3.164
118.83,1,-0.017,0.027,0.009,-0.016,0.01,0.006,-1.599,0.004,0.404,117.92,85.5,40.532516,-3.428466,619.2,3,5,303.0,4.219
118.93,1,-0.003,-0.008,-0.029,-0.007,0.006,-0.01,-1.597,0.005,0.405,117.92,85.5,40.532516,-3.428466,619.2,3,5,303.0,4.219
119.02,1,-0.001,0.016,0.006,-0.002,0.01,-0.005,-1.598,0.006,0.406,117.92,85.5,40.532516,-3.428466,619.2,3,5,303.0,4.219
119.12,1,0.036,-0.015,0.025,0.014,0.004,0.011,-1.599,0.006,0.407,117.92,85.5,40.532516,-3.428466,619.2,3,5,303.0,4.219
119.22,1,-0.01,0.031,0.016,0.014,0.003,0.014,-1.596,0.006,0.409,117.92,85.5,40.532516,-3.428466,619.2,3,5,303.0,4.219
119.32,1,0.007,0.011,0.009,-0.016,0.023,0.009,-1.596,0.008,0.411,117.92,85.5,40.532516,-3.428466,619.2,3,5,303.0,4.219
119.43,1,0.031,-0.002,0.016,0.024,0.007,0.015,-1.597,0.009,0.412,117.92,85.5,40.532516,-3.428466,619.2,3,5,303.0,4.219
119.52,1,-0.01,-0.002,-0.008,0.008,-0.001,0.005,-1.599,0.008,0.414,117.92,85.5,40.532516,-3.428466,619.2,3,5,303.0,4.219
119.62,1,0.018,0.007,-0.0,0.009,-0.001,-0.002,-1.601,-0.0,0.415,117.92,85.5,40.532516,-3.428466,619.2,3,5,303.0,4.219
119.72,1,-0.034,-0.006,-0.012,0.002,0.005,0.0,-1.601,-0.004,0.417,117.92,85.5,40.532516,-3.428466,619.2,3,5,303.0,4.219
119.82,1,0.014,-0.007,0.014,-0.006,-0.01,-0.004,-1.601,-0.004,0.419,118.92,85.1,40.532627,-3.428699,621.2,3,5,301.3,3.516
119.92,1,-0.037,-0.017,-0.003,-0.019,-0.006,0.006,-1.606,-0.007,0.42,118.92,85.1,40.532627,-3.428699,621.2,3,5,301.3,3.516
120.02,1,0.01,-0.018,-0.005,-0.009,-0.016,-0.005,-1.606,-0.008,0.421,118.92,85.1,40.532627,-3.428699,621.2,3,5,301.3,3.516
120.13,1,0.0,-0.016,0.008,-0.003,-0.012,0.003,-1.608,-0.009,0.423,118.92,85.1,40.532627,-3.428699,621.2,3,5,301.3,3.516
120.22,1,0.014,0.004,-0.014,0.01,-0.01,-0.003,-1.609,-0.01,0.424,118.92,85.1,40.532627,-3.428699,621.2,3,5,301.3,3.516
120.32,1,-0.046,-0.004,-0.0,-0.015,-0.003,-0.007,-1.61,-0.008,0.426,118.92,85.1,40.532627,-3.428699,621.2,3,5,301.3,3.516
120.43,1,-0.01,-0.008,0.006,-0.025,-0.011,-0.006,-1.608,-0.004,0.427,118.92,85.1,40.532627,-3.428699,621.2,3,5,301.3,3.516
120.53,1,-0.015,0.011,0.025,-0.015,-0.001,0.014,-1.608,-0.003,0.429,118.92,85.1,40.532627,-3.428699,621.2,3,5,301.3,3.516
120.63,1,0.012,-0.024,-0.025,-0.004,-0.0,0.004,-1.61,-0.008,0.43,118.92,85.1,40.532627,-3.428699,621.2,3,5,301.3,3.516
120.73,1,-0.016,-0.019,-0.012,-0.006,-0.018,-0.01,-1.612,-0.012,0.431,118.92,85.1,40.532627,-3.428699,621.2,3,5,301.3,3.516
120.83,1,-0.051,-0.015,-0.012,-0.025,-0.016,-0.011,-1.611,-0.013,0.432,119.92,84.5,40.532734,-3.428945,622.4,3,5,299.9,3.164
120.93,1,-0.049,-0.001,0.0,-0.045,-0.011,-0.008,-1.611,-0.015,0.433,119.92,84.5,40.532734,-3.428945,622.4,3,5,299.9,3.164
121.03,1,-0.016,-0.017,-0.035,-0.036,-0.006,-0.022,-1.612,-0.014,0.434,119.92,84.5,40.532734,-3.428945,622.4,3,5,299.9,3.164
121.13,1,-0.025,-0.013,-0.015,-0.026,-0.017,-0.021,-1.609,-0.009,0.435,119.92,84.5,40.532734,-3.428945,622.4,3,5,299.9,3.164
121.23,1,-0.012,-0.012,-0.005,-0.013,-0.01,-0.004,-1.607,-0.006,0.436,119.92,84.5,40.532734,-3.428945,622.4,3,5,299.9,3.164
121.33,1,-0.031,0.016,0.007,-0.017,-0.002,-0.003,-1.604,-0.003,0.437,119.92,84.5,40.532734,-3.428945,622.4,3,5,299.9,3.164
121.43,1,-0.017,0.019,0.023,-0.027,0.013,0.007,-1.606,-0.005,0.438,119.92,84.5,40.532734,-3.428945,622.4,3,5,299.9,3.164
121.53,1,0.02,0.001,0.009,-0.002,0.008,0.014,-1.609,-0.006,0.439,119.92,84.5,40.532734,-3.428945,622.4,3,5,299.9,3.164
121.63,1,0.011,0.03,-0.001,0.007,0.014,0.003,-1.614,-0.009,0.44,119.92,84.5,40.532734,-3.428945,622.4,3,5,299.9,3.164
121.73,1,-0.02,-0.005,-0.003,-0.001,0.011,0.004,-1.621,-0.009,0.441,119.92,84.5,40.532734,-3.428945,622.4,3,5,299.9,3.164
121.83,1,-0.053,0.023,-0.014,-0.031,0.011,-0.006,-1.621,-0.009,0.442,120.94,84.3,40.532845,-3.429179,623.4,3,5,298.5,2.812
121.93,1,-0.031,-0.015,-0.004,-0.036,0.005,-0.009,-1.619,-0.009,0.443,120.94,84.3,40.532845,-3.429179,623.4,3,5,298.5,2.812
122.03,1,0.053,0.011,0.025,0.008,0.002,0.007,-1.62,-0.009,0.443,120.94,84.3,40.532845,-3.429179,623.4,3,5,298.5,2.812
122.13,1,-0.13,0.006,-0.013,-0.033,0.009,0.007,-1.622,-0.01,0.444,120.94,84.3,40.532845,-3.429179,623.4,3,5,298.5,2.812
122.23,1,-0.017,0.016,-0.012,-0.066,0.002,-0.014,-1.622,-0.01,0.445,120.94,84.3,40.532845,-3.429179,623.4,3,5,298.5,2.812
122.33,1,0.044,0.021,0.01,-0.006,0.023,0.002,-1.619,-0.008,0.446,120.94,84.3,40.532845,-3.429179,623.4,3,5,298.5,2.812
122.43,1,-0.028,0.01,0.003,-0.008,0.012,0.0,-1.619,-0.006,0.446,120.94,84.3,40.532845,-3.429179,623.4,3,5,298.5,2.812
122.53,1,0.012,0.018,0.013,-0.004,0.014,0.01,-1.619,-0.005,0.447,120.94,84.3,40.532845,-3.429179,623.4,3,5,298.5,2.812
122.63,1,0.002,-0.011,-0.024,0.012,0.002,-0.005,-1.619,-0.007,0.446,120.94,84.3,40.532845,-3.429179,623.4,3,5,298.5,2.812
122.73,1,-0.036,0.034,0.019,-0.007,0.017,0.0,-1.619,-0.005,0.447,120.94,84.3,40.532845,-3.429179,623.4,3,5,298.5,2.812
122.83,1,0.004,-0.008,0.017,-0.01,0.019,0.02,-1.619,-0.005,0.447,121.92,83.8,40.532951,-3.42942,624.5,3,5,296.7,3.164
122.93,1,-0.03,0.026,0.016,-0.011,0.011,0.013,-1.618,-0.003,0.448,121.92,83.8,40.532951,-3.42942,624.5,3,5,296.7,3.164
123.04,1,0.033,-0.015,0.008,-0.003,0.002,0.011,-1.617,-0.003,0.448,121.92,83.8,40.532951,-3.42942,624.5,3,5,296.7,3.164
123.13,1,0.011,0.013,0.006,0.02,-0.001,0.007,-1.62,-0.006,0.449,121.92,83.8,40.532951,-3.42942,624.5,3,5,296.7,3.164
123.24,1,-0.059,0.011,-0.01,-0.022,0.012,0.002,-1.618,-0.008,0.449,121.92,83.8,40.532951,-3.42942,624.5,3,5,296.7,3.164
