Timestamp_Accel,SystemActivated,accelerometerXAxis,accelerometerYAxis,accelerometerZAxis,AccelX_KF,AccelY_KF,AccelZ_KF,gyroscopeXAxis,gyroscopeYAxis,gyroscopeZAxis,Timestamp_GPS,Speed,latitude,longitude,Altitude,VerticalAccuracy,HorizontalAccuracy,Course,Difcourse
28.28,0,-0.111,-0.425,-0.068,-0.097,-0.403,-0.064,-1.672,-0.392,-0.733,28.27,0.0,40.507793,-3.352588,606.8,15,398,-1.0,-1.0
28.38,0,-0.12,-0.398,-0.086,-0.108,-0.408,-0.079,-1.672,-0.392,-0.731,28.27,0.0,40.507793,-3.352588,606.8,15,398,-1.0,-1.0
28.48,0,-0.099,-0.368,-0.06,-0.107,-0.39,-0.07,-1.671,-0.393,-0.729,28.27,0.0,40.507793,-3.352588,606.8,15,398,-1.0,-1.0
28.58,0,-0.062,-0.385,-0.07,-0.091,-0.381,-0.07,-1.669,-0.393,-0.726,28.27,0.0,40.507793,-3.352588,606.8,15,398,-1.0,-1.0
28.68,0,-0.083,-0.422,-0.043,-0.078,-0.401,-0.055,-1.669,-0.393,-0.724,28.27,0.0,40.507793,-3.352588,606.8,15,398,-1.0,-1.0
28.78,0,-0.055,-0.407,-0.084,-0.073,-0.408,-0.07,-1.667,-0.393,-0.721,28.27,0.0,40.507793,-3.352588,606.8,15,398,-1.0,-1.0
28.89,0,-0.043,-0.405,-0.048,-0.056,-0.409,-0.063,-1.666,-0.393,-0.719,28.27,0.0,40.507793,-3.352588,606.8,15,398,-1.0,-1.0
28.99,0,-0.084,-0.397,-0.082,-0.063,-0.4,-0.063,-1.665,-0.393,-0.716,28.27,0.0,40.507793,-3.352588,606.8,15,398,-1.0,-1.0
29.08,0,-0.128,-0.44,-0.071,-0.09,-0.411,-0.078,-1.664,-0.392,-0.713,28.27,0.0,40.507793,-3.352588,606.8,15,398,-1.0,-1.0
29.18,0,-0.086,-0.42,-0.053,-0.101,-0.423,-0.063,-1.663,-0.392,-0.71,28.27,0.0,40.507793,-3.352588,606.8,15,398,-1.0,-1.0
29.28,0,-0.05,-0.417,-0.061,-0.075,-0.421,-0.06,-1.661,-0.392,-0.707,29.28,0.0,40.507793,-3.352588,606.8,15,398,-1.0,-1.0
29.39,0,-0.111,-0.426,-0.069,-0.076,-0.421,-0.062,-1.66,-0.391,-0.703,29.28,0.0,40.507793,-3.352588,606.8,15,398,-1.0,-1.0
29.48,0,-0.154,-0.437,-0.038,-0.128,-0.433,-0.058,-1.662,-0.392,-0.7,29.28,0.0,40.507793,-3.352588,606.8,15,398,-1.0,-1.0
29.58,1,-0.093,-0.4,-0.072,-0.115,-0.424,-0.05,-1.661,-0.395,-0.698,29.28,0.0,40.507793,-3.352588,606.8,15,398,-1.0,-1.0
29.68,1,-0.117,-0.421,-0.041,-0.11,-0.414,-0.063,-1.661,-0.396,-0.695,29.28,0.0,40.507793,-3.352588,606.8,15,398,-1.0,-1.0
29.78,1,-0.057,-0.405,-0.026,-0.099,-0.417,-0.039,-1.661,-0.398,-0.693,29.28,0.0,40.507793,-3.352588,606.8,15,398,-1.0,-1.0
29.88,1,-0.063,-0.387,-0.075,-0.066,-0.401,-0.046,-1.66,-0.399,-0.69,29.28,0.0,40.507793,-3.352588,606.8,15,398,-1.0,-1.0
29.98,1,-0.111,-0.419,-0.063,-0.085,-0.401,-0.064,-1.659,-0.397,-0.687,29.28,0.0,40.507793,-3.352588,606.8,15,398,-1.0,-1.0
30.08,1,-0.067,-0.421,-0.039,-0.086,-0.413,-0.053,-1.658,-0.396,-0.685,29.28,0.0,40.507793,-3.352588,606.8,15,398,-1.0,-1.0
30.18,1,-0.085,-0.4,-0.047,-0.077,-0.413,-0.046,-1.657,-0.397,-0.682,29.28,0.0,40.507793,-3.352588,606.8,15,398,-1.0,-1.0
30.28,1,-0.106,-0.412,-0.068,-0.094,-0.404,-0.056,-1.657,-0.397,-0.68,30.34,89.7,40.506508,-3.360048,677.9,64,30,270.7,89.297
30.38,1,-0.141,-0.391,-0.066,-0.119,-0.407,-0.059,-1.657,-0.4,-0.678,30.34,89.7,40.506508,-3.360048,677.9,64,30,270.7,89.297
30.48,1,-0.115,-0.403,-0.058,-0.117,-0.399,-0.063,-1.658,-0.4,-0.675,30.34,89.7,40.506508,-3.360048,677.9,64,30,270.7,89.297
30.59,1,-0.104,-0.412,-0.04,-0.115,-0.405,-0.052,-1.658,-0.4,-0.673,30.34,89.7,40.506508,-3.360048,677.9,64,30,270.7,89.297
30.68,1,-0.082,-0.409,-0.038,-0.099,-0.408,-0.039,-1.657,-0.401,-0.671,30.34,89.7,40.506508,-3.360048,677.9,64,30,270.7,89.297
30.78,1,-0.117,-0.411,-0.064,-0.099,-0.409,-0.055,-1.657,-0.401,-0.668,30.34,89.7,40.506508,-3.360048,677.9,64,30,270.7,89.297
30.88,1,-0.096,-0.422,-0.041,-0.107,-0.412,-0.054,-1.656,-0.401,-0.666,30.34,89.7,40.506508,-3.360048,677.9,64,30,270.7,89.297
30.98,1,-0.056,-0.39,-0.042,-0.078,-0.409,-0.043,-1.655,-0.401,-0.663,30.34,89.7,40.506508,-3.360048,677.9,64,30,270.7,89.297
31.08,1,-0.148,-0.403,-0.091,-0.103,-0.399,-0.064,-1.654,-0.4,-0.66,30.34,89.7,40.506508,-3.360048,677.9,64,30,270.7,89.297
31.18,1,-0.089,-0.416,-0.034,-0.111,-0.413,-0.049,-1.654,-0.399,-0.658,30.34,89.7,40.506508,-3.360048,677.9,64,30,270.7,89.297
31.28,1,-0.108,-0.397,-0.085,-0.098,-0.399,-0.069,-1.653,-0.399,-0.655,31.27,90.4,40.506001,-3.360175,607.5,8,10,269.3,1.406
31.38,1,-0.092,-0.456,-0.021,-0.108,-0.424,-0.05,-1.654,-0.398,-0.652,31.27,90.4,40.506001,-3.360175,607.5,8,10,269.3,1.406
31.49,1,-0.083,-0.443,-0.07,-0.085,-0.442,-0.047,-1.652,-0.398,-0.649,31.27,90.4,40.506001,-3.360175,607.5,8,10,269.3,1.406
31.58,1,-0.135,-0.451,-0.062,-0.11,-0.44,-0.062,-1.65,-0.398,-0.646,31.27,90.4,40.506001,-3.360175,607.5,8,10,269.3,1.406
31.69,1,-0.136,-0.413,-0.069,-0.122,-0.433,-0.062,-1.651,-0.4,-0.643,31.27,90.4,40.506001,-3.360175,607.5,8,10,269.3,1.406
31.79,1,-0.178,-0.407,-0.057,-0.149,-0.422,-0.069,-1.653,-0.403,-0.64,31.27,90.4,40.506001,-3.360175,607.5,8,10,269.3,1.406
31.88,1,-0.161,-0.377,-0.046,-0.163,-0.404,-0.049,-1.654,-0.404,-0.638,31.27,90.4,40.506001,-3.360175,607.5,8,10,269.3,1.406
31.98,1,-0.074,-0.434,-0.044,-0.132,-0.401,-0.052,-1.654,-0.404,-0.635,31.27,90.4,40.506001,-3.360175,607.5,8,10,269.3,1.406
32.08,1,-0.043,-0.437,-0.062,-0.077,-0.424,-0.041,-1.652,-0.405,-0.632,31.27,90.4,40.506001,-3.360175,607.5,8,10,269.3,1.406
32.19,1,-0.076,-0.404,-0.105,-0.065,-0.423,-0.08,-1.65,-0.406,-0.629,31.27,90.4,40.506001,-3.360175,607.5,8,10,269.3,1.406
32.29,1,-0.105,-0.449,-0.07,-0.082,-0.429,-0.083,-1.649,-0.405,-0.625,32.26,90.6,40.505962,-3.36049,601.6,8,5,268.9,1.758
32.4,1,-0.127,-0.462,-0.042,-0.111,-0.449,-0.06,-1.648,-0.405,-0.621,32.26,90.6,40.505962,-3.36049,601.6,8,5,268.9,1.758
32.49,1,-0.102,-0.46,-0.071,-0.11,-0.452,-0.061,-1.648,-0.405,-0.616,32.26,90.6,40.505962,-3.36049,601.6,8,5,268.9,1.758
32.59,1,-0.067,-0.5,-0.073,-0.094,-0.471,-0.074,-1.647,-0.405,-0.612,32.26,90.6,40.505962,-3.36049,601.6,8,5,268.9,1.758
32.69,1,-0.043,-0.457,-0.03,-0.065,-0.473,-0.055,-1.645,-0.408,-0.608,32.26,90.6,40.505962,-3.36049,601.6,8,5,268.9,1.758
32.79,1,-0.126,-0.447,-0.056,-0.085,-0.46,-0.05,-1.643,-0.409,-0.603,32.26,90.6,40.505962,-3.36049,601.6,8,5,268.9,1.758
32.89,1,-0.114,-0.477,-0.046,-0.105,-0.462,-0.049,-1.641,-0.409,-0.598,32.26,90.6,40.505962,-3.36049,601.6,8,5,268.9,1.758
32.99,1,-0.044,-0.493,-0.046,-0.087,-0.476,-0.05,-1.64,-0.409,-0.593,32.26,90.6,40.505962,-3.36049,601.6,8,5,268.9,1.758
33.1,1,-0.048,-0.513,-0.019,-0.06,-0.501,-0.035,-1.637,-0.412,-0.588,32.26,90.6,40.505962,-3.36049,601.6,8,5,268.9,1.758
33.19,1,-0.12,-0.464,-0.083,-0.081,-0.486,-0.043,-1.634,-0.416,-0.583,32.26,90.6,40.505962,-3.36049,601.6,8,5,268.9,1.758
33.29,1,-0.043,-0.49,-0.002,-0.077,-0.476,-0.045,-1.633,-0.419,-0.579,33.27,90.8,40.505966,-3.360793,601.8,6,5,266.7,2.642
33.39,1,-0.114,-0.485,-0.04,-0.084,-0.49,-0.023,-1.63,-0.422,-0.574,33.27,90.8,40.505966,-3.360793,601.8,6,5,266.7,2.642
33.5,1,-0.13,-0.445,-0.058,-0.106,-0.468,-0.045,-1.627,-0.424,-0.568,33.27,90.8,40.505966,-3.360793,601.8,6,5,266.7,2.642
33.6,1,-0.068,-0.458,0.001,-0.097,-0.458,-0.032,-1.627,-0.424,-0.563,33.27,90.8,40.505966,-3.360793,601.8,6,5,266.7,2.642
33.7,1,-0.053,-0.454,-0.032,-0.07,-0.46,-0.02,-1.623,-0.421,-0.558,33.27,90.8,40.505966,-3.360793,601.8,6,5,266.7,2.642
33.79,1,-0.069,-0.455,-0.046,-0.063,-0.454,-0.034,-1.62,-0.417,-0.552,33.27,90.8,40.505966,-3.360793,601.8,6,5,266.7,2.642
33.89,1,-0.095,-0.535,-0.023,-0.083,-0.488,-0.034,-1.617,-0.415,-0.547,33.27,90.8,40.505966,-3.360793,601.8,6,5,266.7,2.642
33.99,1,-0.099,-0.462,-0.02,-0.094,-0.493,-0.027,-1.616,-0.418,-0.544,33.27,90.8,40.505966,-3.360793,601.8,6,5,266.7,2.642
34.1,1,-0.147,-0.422,-0.032,-0.117,-0.45,-0.03,-1.615,-0.42,-0.539,33.27,90.8,40.505966,-3.360793,601.8,6,5,266.7,2.642
34.19,1,-0.101,-0.449,-0.013,-0.113,-0.445,-0.018,-1.614,-0.421,-0.535,33.27,90.8,40.505966,-3.360793,601.8,6,5,266.7,2.642
34.29,1,-0.094,-0.433,-0.022,-0.101,-0.439,-0.021,-1.612,-0.422,-0.531,34.3,91.2,40.505955,-3.3611,602.5,6,5,263.8,5.098
34.39,1,-0.074,-0.443,-0.012,-0.092,-0.442,-0.019,-1.61,-0.422,-0.528,34.3,91.2,40.505955,-3.3611,602.5,6,5,263.8,5.098
34.49,1,-0.084,-0.421,-0.037,-0.079,-0.437,-0.023,-1.609,-0.424,-0.524,34.3,91.2,40.505955,-3.3611,602.5,6,5,263.8,5.098
34.59,1,-0.051,-0.441,0.021,-0.074,-0.43,-0.013,-1.608,-0.424,-0.522,34.3,91.2,40.505955,-3.3611,602.5,6,5,263.8,5.098
34.69,1,-0.056,-0.412,-0.046,-0.057,-0.422,-0.017,-1.605,-0.425,-0.518,34.3,91.2,40.505955,-3.3611,602.5,6,5,263.8,5.098
34.8,1,-0.144,-0.439,-0.047,-0.096,-0.429,-0.036,-1.605,-0.424,-0.514,34.3,91.2,40.505955,-3.3611,602.5,6,5,263.8,5.098
34.89,1,-0.18,-0.495,-0.042,-0.143,-0.459,-0.045,-1.606,-0.424,-0.511,34.3,91.2,40.505955,-3.3611,602.5,6,5,263.8,5.098
35.0,1,-0.121,-0.414,0.014,-0.14,-0.451,-0.01,-1.606,-0.425,-0.509,34.3,91.2,40.505955,-3.3611,602.5,6,5,263.8,5.098
35.09,1,-0.129,-0.377,-0.022,-0.13,-0.412,-0.013,-1.605,-0.427,-0.506,34.3,91.2,40.505955,-3.3611,602.5,6,5,263.8,5.098
35.19,1,-0.084,-0.412,-0.0,-0.106,-0.405,-0.006,-1.604,-0.428,-0.504,34.3,91.2,40.505955,-3.3611,602.5,6,5,263.8,5.098
35.29,1,-0.045,-0.417,-0.043,-0.08,-0.413,-0.026,-1.602,-0.428,-0.502,35.27,91.4,40.505936,-3.361394,603.6,6,5,263.8,2.808
35.39,1,-0.089,-0.425,0.002,-0.077,-0.418,-0.018,-1.601,-0.428,-0.499,35.27,91.4,40.505936,-3.361394,603.6,6,5,263.8,2.808
35.49,1,-0.121,-0.419,-0.038,-0.099,-0.419,-0.021,-1.6,-0.429,-0.497,35.27,91.4,40.505936,-3.361394,603.6,6,5,263.8,2.808
35.6,1,-0.102,-0.413,-0.005,-0.103,-0.418,-0.017,-1.599,-0.43,-0.495,35.27,91.4,40.505936,-3.361394,603.6,6,5,263.8,2.808
35.69,1,-0.134,-0.424,-0.009,-0.115,-0.42,-0.008,-1.599,-0.432,-0.493,35.27,91.4,40.505936,-3.361394,603.6,6,5,263.8,2.808
35.8,1,-0.134,-0.389,-0.006,-0.129,-0.409,-0.009,-1.6,-0.436,-0.492,35.27,91.4,40.505936,-3.361394,603.6,6,5,263.8,2.808
35.9,1,-0.096,-0.38,-0.007,-0.118,-0.392,-0.006,-1.599,-0.439,-0.491,35.27,91.4,40.505936,-3.361394,603.6,6,5,263.8,2.808
36.01,1,-0.072,-0.375,-0.017,-0.096,-0.382,-0.016,-1.598,-0.439,-0.49,35.27,91.4,40.505936,-3.361394,603.6,6,5,263.8,2.808
36.1,1,-0.057,-0.371,0.001,-0.069,-0.373,-0.008,-1.596,-0.439,-0.489,35.27,91.4,40.505936,-3.361394,603.6,6,5,263.8,2.808
36.21,1,-0.12,-0.403,-0.027,-0.082,-0.388,-0.012,-1.596,-0.437,-0.487,35.27,91.4,40.505936,-3.361394,603.6,6,5,263.8,2.808
36.3,1,-0.146,-0.397,-0.003,-0.127,-0.397,-0.015,-1.597,-0.439,-0.487,36.27,91.5,40.505894,-3.361687,601.7,6,5,260.8,2.997
36.4,1,-0.077,-0.351,0.027,-0.112,-0.379,0.004,-1.596,-0.441,-0.486,36.27,91.5,40.505894,-3.361687,601.7,6,5,260.8,2.997
36.5,1,-0.091,-0.381,-0.019,-0.088,-0.369,0.002,-1.594,-0.441,-0.485,36.27,91.5,40.505894,-3.361687,601.7,6,5,260.8,2.997
36.6,1,-0.132,-0.399,-0.039,-0.109,-0.386,-0.021,-1.594,-0.441,-0.484,36.27,91.5,40.505894,-3.361687,601.7,6,5,260.8,2.997
36.7,1,-0.102,-0.405,0.01,-0.118,-0.396,-0.012,-1.596,-0.441,-0.483,36.27,91.5,40.505894,-3.361687,601.7,6,5,260.8,2.997
36.81,1,-0.128,-0.396,0.002,-0.115,-0.402,0.001,-1.596,-0.442,-0.482,36.27,91.5,40.505894,-3.361687,601.7,6,5,260.8,2.997
36.9,1,-0.077,-0.383,-0.033,-0.103,-0.391,-0.012,-1.594,-0.444,-0.482,36.27,91.5,40.505894,-3.361687,601.7,6,5,260.8,2.997
37.0,1,-0.116,-0.361,-0.028,-0.096,-0.373,-0.021,-1.592,-0.443,-0.481,36.27,91.5,40.505894,-3.361687,601.7,6,5,260.8,2.997
37.1,1,-0.129,-0.421,-0.023,-0.113,-0.392,-0.028,-1.594,-0.442,-0.48,36.27,91.5,40.505894,-3.361687,601.7,6,5,260.8,2.997
37.21,1,-0.086,-0.39,0.019,-0.11,-0.398,-0.01,-1.595,-0.442,-0.48,36.27,91.5,40.505894,-3.361687,601.7,6,5,260.8,2.997
37.3,1,-0.035,-0.37,-0.011,-0.08,-0.379,-0.006,-1.593,-0.442,-0.48,37.29,91.4,40.505856,-3.361985,599.9,6,5,260.3,3.574
37.4,1,-0.122,-0.375,-0.014,-0.081,-0.375,-0.003,-1.592,-0.441,-0.479,37.29,91.4,40.505856,-3.361985,599.9,6,5,260.3,3.574
37.51,1,-0.161,-0.372,-0.027,-0.119,-0.378,-0.019,-1.594,-0.442,-0.478,37.29,91.4,40.505856,-3.361985,599.9,6,5,260.3,3.574
37.6,1,-0.1,-0.362,0.023,-0.128,-0.366,0.003,-1.595,-0.442,-0.479,37.29,91.4,40.505856,-3.361985,599.9,6,5,260.3,3.574
37.7,1,-0.051,-0.365,-0.014,-0.085,-0.372,-0.002,-1.593,-0.442,-0.479,37.29,91.4,40.505856,-3.361985,599.9,6,5,260.3,3.574
37.8,1,-0.055,-0.365,-0.007,-0.068,-0.361,-0.008,-1.593,-0.442,-0.479,37.29,91.4,40.505856,-3.361985,599.9,6,5,260.3,3.574
37.9,1,-0.125,-0.344,-0.043,-0.085,-0.355,-0.022,-1.593,-0.442,-0.48,37.29,91.4,40.505856,-3.361985,599.9,6,5,260.3,3.574
38.01,1,-0.11,-0.359,0.006,-0.115,-0.352,-0.014,-1.594,-0.442,-0.48,37.29,91.4,40.505856,-3.361985,599.9,6,5,260.3,3.574
38.1,1,-0.078,-0.372,-0.024,-0.09,-0.365,-0.014,-1.594,-0.441,-0.481,37.29,91.4,40.505856,-3.361985,599.9,6,5,260.3,3.574
38.2,1,-0.087,-0.364,-0.017,-0.084,-0.363,-0.015,-1.593,-0.441,-0.481,37.29,91.4,40.505856,-3.361985,599.9,6,5,260.3,3.574
38.3,1,-0.104,-0.354,-0.027,-0.094,-0.358,-0.028,-1.594,-0.441,-0.482,38.28,91.3,40.505802,-3.362285,600.3,6,5,259.0,1.845
38.4,1,-0.073,-0.346,0.012,-0.106,-0.358,-0.008,-1.594,-0.44,-0.482,38.28,91.3,40.505802,-3.362285,600.3,6,5,259.0,1.845
38.5,1,-0.096,-0.382,-0.008,-0.077,-0.366,-0.003,-1.593,-0.44,-0.481,38.28,91.3,40.505802,-3.362285,600.3,6,5,259.0,1.845
38.61,1,-0.098,-0.401,-0.028,-0.092,-0.383,-0.015,-1.592,-0.439,-0.48,38.28,91.3,40.505802,-3.362285,600.3,6,5,259.0,1.845
38.71,1,-0.105,-0.404,-0.001,-0.106,-0.395,-0.01,-1.592,-0.437,-0.478,38.28,91.3,40.505802,-3.362285,600.3,6,5,259.0,1.845
38.82,1,-0.1,-0.404,-0.003,-0.102,-0.4,-0.002,-1.591,-0.436,-0.476,38.28,91.3,40.505802,-3.362285,600.3,6,5,259.0,1.845
38.9,1,-0.057,-0.416,-0.022,-0.075,-0.407,-0.013,-1.59,-0.436,-0.475,38.28,91.3,40.505802,-3.362285,600.3,6,5,259.0,1.845
39.0,1,-0.116,-0.392,-0.01,-0.085,-0.405,-0.015,-1.589,-0.435,-0.473,38.28,91.3,40.505802,-3.362285,600.3,6,5,259.0,1.845
39.1,1,-0.161,-0.418,-0.008,-0.129,-0.411,-0.014,-1.589,-0.435,-0.471,38.28,91.3,40.505802,-3.362285,600.3,6,5,259.0,1.845
39.2,1,-0.064,-0.434,-0.02,-0.11,-0.416,-0.01,-1.588,-0.434,-0.47,38.28,91.3,40.505802,-3.362285,600.3,6,5,259.0,1.845
39.3,1,-0.097,-0.4,-0.013,-0.091,-0.414,-0.012,-1.587,-0.433,-0.468,39.27,91.2,40.50576,-3.362566,601.3,6,5,258.2,2.084
39.4,1,-0.14,-0.413,-0.007,-0.114,-0.411,-0.014,-1.587,-0.433,-0.466,39.27,91.2,40.50576,-3.362566,601.3,6,5,258.2,2.084
39.5,1,-0.1,-0.419,-0.007,-0.112,-0.418,-0.006,-1.585,-0.433,-0.463,39.27,91.2,40.50576,-3.362566,601.3,6,5,258.2,2.084
39.61,1,-0.035,-0.435,0.002,-0.068,-0.425,-0.005,-1.584,-0.433,-0.461,39.27,91.2,40.50576,-3.362566,601.3,6,5,258.2,2.084
39.71,1,-0.094,-0.427,-0.029,-0.074,-0.425,-0.013,-1.582,-0.431,-0.458,39.27,91.2,40.50576,-3.362566,601.3,6,5,258.2,2.084
39.81,1,-0.092,-0.447,-0.016,-0.096,-0.432,-0.024,-1.582,-0.43,-0.455,39.27,91.2,40.50576,-3.362566,601.3,6,5,258.2,2.084
39.92,1,-0.083,-0.457,0.003,-0.088,-0.449,-0.003,-1.581,-0.43,-0.453,39.27,91.2,40.50576,-3.362566,601.3,6,5,258.2,2.084
40.02,1,-0.106,-0.397,-0.009,-0.097,-0.43,-0.006,-1.579,-0.431,-0.45,39.27,91.2,40.50576,-3.362566,601.3,6,5,258.2,2.084
40.11,1,-0.088,-0.407,-0.003,-0.095,-0.417,-0.008,-1.578,-0.431,-0.448,39.27,91.2,40.50576,-3.362566,601.3,6,5,258.2,2.084
40.21,1,-0.08,-0.408,-0.01,-0.086,-0.404,-0.003,-1.577,-0.432,-0.446,39.27,91.2,40.50576,-3.362566,601.3,6,5,258.2,2.084
40.31,1,-0.094,-0.428,0.002,-0.093,-0.411,-0.008,-1.576,-0.431,-0.444,40.28,90.8,40.505711,-3.362849,602.1,4,5,254.3,4.7
40.41,1,-0.051,-0.396,0.019,-0.073,-0.413,0.007,-1.576,-0.432,-0.442,40.28,90.8,40.505711,-3.362849,602.1,4,5,254.3,4.7
40.51,1,-0.07,-0.41,-0.005,-0.066,-0.408,0.006,-1.575,-0.432,-0.44,40.28,90.8,40.505711,-3.362849,602.1,4,5,254.3,4.7
40.61,1,-0.152,-0.397,-0.008,-0.099,-0.411,-0.005,-1.575,-0.433,-0.439,40.28,90.8,40.505711,-3.362849,602.1,4,5,254.3,4.7
40.71,1,-0.042,-0.422,0.007,-0.097,-0.41,-0.002,-1.575,-0.435,-0.437,40.28,90.8,40.505711,-3.362849,602.1,4,5,254.3,4.7
40.81,1,-0.116,-0.375,-0.035,-0.085,-0.404,-0.013,-1.574,-0.435,-0.436,40.28,90.8,40.505711,-3.362849,602.1,4,5,254.3,4.7
40.92,1,-0.136,-0.406,0.029,-0.121,-0.39,0.002,-1.575,-0.432,-0.434,40.28,90.8,40.505711,-3.362849,602.1,4,5,254.3,4.7
41.01,1,-0.084,-0.405,0.022,-0.106,-0.401,0.019,-1.573,-0.429,-0.432,40.28,90.8,40.505711,-3.362849,602.1,4,5,254.3,4.7
41.12,1,-0.072,-0.405,-0.011,-0.08,-0.401,0.008,-1.571,-0.429,-0.431,40.28,90.8,40.505711,-3.362849,602.1,4,5,254.3,4.7
41.22,1,-0.097,-0.38,-0.01,-0.083,-0.396,-0.009,-1.57,-0.429,-0.43,40.28,90.8,40.505711,-3.362849,602.1,4,5,254.3,4.7
41.31,1,-0.119,-0.368,-0.004,-0.107,-0.378,-0.004,-1.57,-0.428,-0.429,41.29,90.5,40.505653,-3.363134,603.0,4,5,254.3,3.883
41.41,1,-0.114,-0.38,0.017,-0.108,-0.379,0.001,-1.57,-0.427,-0.428,41.29,90.5,40.505653,-3.363134,603.0,4,5,254.3,3.883
41.51,1,-0.096,-0.374,-0.012,-0.109,-0.377,-0.0,-1.57,-0.426,-0.427,41.29,90.5,40.505653,-3.363134,603.0,4,5,254.3,3.883
41.61,1,-0.114,-0.368,0.001,-0.106,-0.376,0.004,-1.569,-0.425,-0.427,41.29,90.5,40.505653,-3.363134,603.0,4,5,254.3,3.883
41.72,1,-0.066,-0.403,0.006,-0.093,-0.386,-0.001,-1.569,-0.425,-0.426,41.29,90.5,40.505653,-3.363134,603.0,4,5,254.3,3.883
41.81,1,-0.095,-0.376,-0.008,-0.085,-0.381,0.001,-1.569,-0.425,-0.426,41.29,90.5,40.505653,-3.363134,603.0,4,5,254.3,3.883
41.91,1,-0.078,-0.376,0.011,-0.087,-0.38,0.001,-1.568,-0.424,-0.426,41.29,90.5,40.505653,-3.363134,603.0,4,5,254.3,3.883
42.01,1,-0.047,-0.368,0.021,-0.069,-0.371,0.013,-1.567,-0.424,-0.425,41.29,90.5,40.505653,-3.363134,603.0,4,5,254.3,3.883
42.11,1,-0.088,-0.359,0.0,-0.074,-0.364,0.005,-1.566,-0.423,-0.424,41.29,90.5,40.505653,-3.363134,603.0,4,5,254.3,3.883
42.22,1,-0.088,-0.367,0.022,-0.08,-0.369,0.014,-1.567,-0.422,-0.424,41.29,90.5,40.505653,-3.363134,603.0,4,5,254.3,3.883
42.32,1,-0.133,-0.369,0.005,-0.103,-0.362,0.01,-1.567,-0.42,-0.423,42.34,90.4,40.505589,-3.363419,603.7,4,5,253.5,0.809
42.42,1,-0.089,-0.371,0.012,-0.111,-0.37,0.008,-1.567,-0.42,-0.422,42.34,90.4,40.505589,-3.363419,603.7,4,5,253.5,0.809
42.51,1,-0.08,-0.385,0.012,-0.086,-0.376,0.014,-1.564,-0.418,-0.421,42.34,90.4,40.505589,-3.363419,603.7,4,5,253.5,0.809
42.61,1,-0.107,-0.4,-0.003,-0.094,-0.385,0.007,-1.565,-0.416,-0.42,42.34,90.4,40.505589,-3.363419,603.7,4,5,253.5,0.809
42.71,1,-0.096,-0.374,0.041,-0.102,-0.387,0.018,-1.568,-0.413,-0.419,42.34,90.4,40.505589,-3.363419,603.7,4,5,253.5,0.809
42.82,1,-0.072,-0.385,0.033,-0.089,-0.386,0.028,-1.567,-0.412,-0.417,42.34,90.4,40.505589,-3.363419,603.7,4,5,253.5,0.809
42.91,1,-0.095,-0.392,0.007,-0.082,-0.388,0.019,-1.567,-0.41,-0.414,42.34,90.4,40.505589,-3.363419,603.7,4,5,253.5,0.809
43.01,1,-0.122,-0.387,0.025,-0.101,-0.388,0.02,-1.571,-0.405,-0.405,42.34,90.4,40.505589,-3.363419,603.7,4,5,253.5,0.809
43.11,1,-0.099,-0.401,0.052,-0.112,-0.393,0.034,-1.57,-0.402,-0.399,42.34,90.4,40.505589,-3.363419,603.7,4,5,253.5,0.809
43.21,1,-0.083,-0.4,0.038,-0.094,-0.399,0.041,-1.565,-0.405,-0.396,42.34,90.4,40.505589,-3.363419,603.7,4,5,253.5,0.809
43.32,1,-0.069,-0.392,0.03,-0.075,-0.398,0.038,-1.563,-0.408,-0.394,43.27,89.8,40.505524,-3.363703,604.5,4,5,250.2,4.104
43.42,1,-0.059,-0.385,0.042,-0.066,-0.388,0.037,-1.56,-0.41,-0.392,43.27,89.8,40.505524,-3.363703,604.5,4,5,250.2,4.104
43.52,1,-0.076,-0.39,0.035,-0.07,-0.389,0.035,-1.559,-0.41,-0.39,43.27,89.8,40.505524,-3.363703,604.5,4,5,250.2,4.104
43.63,1,-0.097,-0.395,0.051,-0.083,-0.388,0.045,-1.559,-0.409,-0.389,43.27,89.8,40.505524,-3.363703,604.5,4,5,250.2,4.104
43.72,1,-0.101,-0.399,0.034,-0.095,-0.393,0.039,-1.559,-0.406,-0.388,43.27,89.8,40.505524,-3.363703,604.5,4,5,250.2,4.104
43.82,1,-0.093,-0.404,0.054,-0.095,-0.405,0.043,-1.56,-0.404,-0.388,43.27,89.8,40.505524,-3.363703,604.5,4,5,250.2,4.104
43.92,1,-0.08,-0.42,0.011,-0.086,-0.409,0.033,-1.559,-0.403,-0.388,43.27,89.8,40.505524,-3.363703,604.5,4,5,250.2,4.104
44.02,1,-0.093,-0.416,0.028,-0.096,-0.412,0.025,-1.56,-0.402,-0.39,43.27,89.8,40.505524,-3.363703,604.5,4,5,250.2,4.104
44.12,1,-0.072,-0.399,0.027,-0.082,-0.409,0.028,-1.559,-0.402,-0.388,43.27,89.8,40.505524,-3.363703,604.5,4,5,250.2,4.104
44.22,1,-0.112,-0.421,0.015,-0.091,-0.411,0.02,-1.558,-0.401,-0.386,43.27,89.8,40.505524,-3.363703,604.5,4,5,250.2,4.104
44.32,1,-0.067,-0.409,0.048,-0.091,-0.413,0.03,-1.559,-0.402,-0.385,44.31,90.3,40.50544,-3.363971,604.6,6,5,249.6,3.897
44.42,1,-0.025,-0.393,0.028,-0.053,-0.404,0.035,-1.557,-0.403,-0.383,44.31,90.3,40.50544,-3.363971,604.6,6,5,249.6,3.897
44.52,1,-0.079,-0.411,0.017,-0.058,-0.405,0.026,-1.555,-0.401,-0.38,44.31,90.3,40.50544,-3.363971,604.6,6,5,249.6,3.897
44.63,1,-0.118,-0.426,0.03,-0.085,-0.413,0.028,-1.557,-0.4,-0.377,44.31,90.3,40.50544,-3.363971,604.6,6,5,249.6,3.897
44.72,1,-0.119,-0.417,0.025,-0.107,-0.421,0.027,-1.558,-0.399,-0.375,44.31,90.3,40.50544,-3.363971,604.6,6,5,249.6,3.897
44.83,1,-0.081,-0.404,0.055,-0.102,-0.414,0.037,-1.555,-0.4,-0.373,44.31,90.3,40.50544,-3.363971,604.6,6,5,249.6,3.897
44.93,1,-0.061,-0.406,0.026,-0.081,-0.404,0.036,-1.553,-0.401,-0.372,44.31,90.3,40.50544,-3.363971,604.6,6,5,249.6,3.897
45.02,1,-0.08,-0.398,0.021,-0.073,-0.404,0.026,-1.552,-0.401,-0.37,44.31,90.3,40.50544,-3.363971,604.6,6,5,249.6,3.897
45.12,1,-0.085,-0.398,0.028,-0.08,-0.403,0.021,-1.552,-0.401,-0.369,44.31,90.3,40.50544,-3.363971,604.6,6,5,249.6,3.897
45.22,1,-0.088,-0.374,0.037,-0.086,-0.387,0.036,-1.551,-0.401,-0.369,44.31,90.3,40.50544,-3.363971,604.6,6,5,249.6,3.897
45.32,1,-0.073,-0.393,0.012,-0.082,-0.387,0.026,-1.55,-0.401,-0.368,45.27,90.6,40.50536,-3.364251,605.3,6,5,248.6,1.626
45.42,1,-0.09,-0.394,0.027,-0.083,-0.392,0.024,-1.552,-0.4,-0.366,45.27,90.6,40.50536,-3.364251,605.3,6,5,248.6,1.626
45.52,1,-0.062,-0.392,0.045,-0.077,-0.394,0.031,-1.551,-0.4,-0.364,45.27,90.6,40.50536,-3.364251,605.3,6,5,248.6,1.626
45.62,1,-0.054,-0.393,0.026,-0.06,-0.392,0.033,-1.548,-0.4,-0.363,45.27,90.6,40.50536,-3.364251,605.3,6,5,248.6,1.626
45.72,1,-0.086,-0.398,0.043,-0.07,-0.393,0.03,-1.546,-0.4,-0.361,45.27,90.6,40.50536,-3.364251,605.3,6,5,248.6,1.626
45.82,1,-0.099,-0.398,0.027,-0.087,-0.395,0.036,-1.548,-0.398,-0.359,45.27,90.6,40.50536,-3.364251,605.3,6,5,248.6,1.626
45.92,1,-0.098,-0.424,0.045,-0.095,-0.407,0.037,-1.548,-0.398,-0.356,45.27,90.6,40.50536,-3.364251,605.3,6,5,248.6,1.626
46.03,1,-0.106,-0.394,0.041,-0.098,-0.407,0.047,-1.546,-0.399,-0.354,45.27,90.6,40.50536,-3.364251,605.3,6,5,248.6,1.626
46.13,1,-0.065,-0.388,0.048,-0.091,-0.4,0.038,-1.545,-0.399,-0.353,45.27,90.6,40.50536,-3.364251,605.3,6,5,248.6,1.626
46.22,1,-0.08,-0.389,0.025,-0.078,-0.393,0.043,-1.543,-0.399,-0.351,45.27,90.6,40.50536,-3.364251,605.3,6,5,248.6,1.626
46.32,1,-0.1,-0.386,0.062,-0.085,-0.385,0.039,-1.545,-0.398,-0.351,46.26,89.9,40.50528,-3.364522,605.4,6,5,246.6,2.954
46.42,1,-0.078,-0.405,0.052,-0.081,-0.39,0.049,-1.544,-0.398,-0.349,46.26,89.9,40.50528,-3.364522,605.4,6,5,246.6,2.954
46.53,1,-0.064,-0.4,0.021,-0.074,-0.401,0.04,-1.54,-0.399,-0.347,46.26,89.9,40.50528,-3.364522,605.4,6,5,246.6,2.954
46.62,1,-0.093,-0.418,0.044,-0.084,-0.41,0.043,-1.54,-0.398,-0.345,46.26,89.9,40.50528,-3.364522,605.4,6,5,246.6,2.954
46.72,1,-0.101,-0.429,0.051,-0.093,-0.42,0.043,-1.54,-0.397,-0.341,46.26,89.9,40.50528,-3.364522,605.4,6,5,246.6,2.954
46.82,1,-0.066,-0.439,0.044,-0.087,-0.428,0.047,-1.537,-0.397,-0.339,46.26,89.9,40.50528,-3.364522,605.4,6,5,246.6,2.954
46.93,1,-0.067,-0.434,0.021,-0.071,-0.434,0.039,-1.536,-0.397,-0.338,46.26,89.9,40.50528,-3.364522,605.4,6,5,246.6,2.954
47.02,1,-0.069,-0.403,0.077,-0.066,-0.419,0.047,-1.536,-0.397,-0.337,46.26,89.9,40.50528,-3.364522,605.4,6,5,246.6,2.954
47.13,1,-0.106,-0.422,0.013,-0.087,-0.416,0.039,-1.536,-0.396,-0.335,46.26,89.9,40.50528,-3.364522,605.4,6,5,246.6,2.954
47.23,1,-0.116,-0.44,0.064,-0.1,-0.428,0.04,-1.537,-0.395,-0.332,46.26,89.9,40.50528,-3.364522,605.4,6,5,246.6,2.954
47.43,1,-0.096,-0.417,0.057,-0.11,-0.411,0.039,-1.536,-0.395,-0.328,47.26,89.8,40.505196,-3.364794,605.4,6,5,245.5,3.067
47.53,1,-0.02,-0.406,0.069,-0.069,-0.411,0.061,-1.534,-0.396,-0.326,47.26,89.8,40.505196,-3.364794,605.4,6,5,245.5,3.067
47.63,1,-0.047,-0.413,0.021,-0.038,-0.41,0.044,-1.531,-0.396,-0.325,47.26,89.8,40.505196,-3.364794,605.4,6,5,245.5,3.067
47.73,1,-0.083,-0.405,0.04,-0.06,-0.407,0.04,-1.53,-0.397,-0.323,47.26,89.8,40.505196,-3.364794,605.4,6,5,245.5,3.067
47.83,1,-0.127,-0.402,0.043,-0.096,-0.406,0.039,-1.53,-0.397,-0.321,47.26,89.8,40.505196,-3.364794,605.4,6,5,245.5,3.067
47.93,1,-0.124,-0.418,0.055,-0.113,-0.407,0.049,-1.531,-0.397,-0.319,47.26,89.8,40.505196,-3.364794,605.4,6,5,245.5,3.067
48.03,1,-0.094,-0.407,0.054,-0.108,-0.41,0.048,-1.531,-0.396,-0.318,47.26,89.8,40.505196,-3.364794,605.4,6,5,245.5,3.067
48.13,1,-0.08,-0.409,0.04,-0.098,-0.411,0.046,-1.53,-0.395,-0.316,47.26,89.8,40.505196,-3.364794,605.4,6,5,245.5,3.067
48.23,1,-0.04,-0.42,0.057,-0.071,-0.414,0.053,-1.53,-0.395,-0.314,47.26,89.8,40.505196,-3.364794,605.4,6,5,245.5,3.067
48.33,1,-0.054,-0.391,0.045,-0.052,-0.405,0.052,-1.528,-0.396,-0.312,47.26,89.8,40.505196,-3.364794,605.4,6,5,245.5,3.067
48.43,1,-0.054,-0.413,0.031,-0.052,-0.403,0.04,-1.526,-0.397,-0.311,48.29,91.0,40.505089,-3.365064,605.0,4,5,243.3,3.384
48.54,1,-0.11,-0.389,0.06,-0.076,-0.399,0.041,-1.527,-0.397,-0.31,48.29,91.0,40.505089,-3.365064,605.0,4,5,243.3,3.384
48.63,1,-0.118,-0.384,0.045,-0.101,-0.391,0.054,-1.525,-0.398,-0.31,48.29,91.0,40.505089,-3.365064,605.0,4,5,243.3,3.384
48.73,1,-0.082,-0.396,0.07,-0.1,-0.391,0.057,-1.52,-0.398,-0.306,48.29,91.0,40.505089,-3.365064,605.0,4,5,243.3,3.384
48.83,1,-0.063,-0.389,0.061,-0.082,-0.393,0.063,-1.511,-0.399,-0.3,48.29,91.0,40.505089,-3.365064,605.0,4,5,243.3,3.384
48.94,1,-0.089,-0.374,0.041,-0.078,-0.384,0.048,-1.505,-0.4,-0.297,48.29,91.0,40.505089,-3.365064,605.0,4,5,243.3,3.384
49.04,1,-0.112,-0.397,0.057,-0.093,-0.388,0.053,-1.499,-0.395,-0.289,48.29,91.0,40.505089,-3.365064,605.0,4,5,243.3,3.384
49.13,1,-0.081,-0.414,0.065,-0.097,-0.399,0.057,-1.488,-0.392,-0.284,48.29,91.0,40.505089,-3.365064,605.0,4,5,243.3,3.384
49.23,1,-0.071,-0.399,0.053,-0.08,-0.404,0.064,-1.476,-0.391,-0.278,48.29,91.0,40.505089,-3.365064,605.0,4,5,243.3,3.384
49.33,1,-0.073,-0.406,0.06,-0.079,-0.399,0.053,-1.462,-0.388,-0.27,48.29,91.0,40.505089,-3.365064,605.0,4,5,243.3,3.384
49.43,1,-0.084,-0.393,0.058,-0.076,-0.403,0.058,-1.462,-0.385,-0.267,49.26,91.2,40.504986,-3.365339,605.1,4,5,242.0,3.533
49.54,1,-0.093,-0.392,0.064,-0.087,-0.396,0.057,-1.467,-0.387,-0.27,49.26,91.2,40.504986,-3.365339,605.1,4,5,242.0,3.533
49.63,1,-0.064,-0.399,0.077,-0.076,-0.4,0.071,-1.468,-0.387,-0.271,49.26,91.2,40.504986,-3.365339,605.1,4,5,242.0,3.533
49.74,1,-0.038,-0.389,0.043,-0.06,-0.391,0.061,-1.465,-0.387,-0.268,49.26,91.2,40.504986,-3.365339,605.1,4,5,242.0,3.533
49.85,1,-0.067,-0.371,0.054,-0.058,-0.381,0.054,-1.464,-0.387,-0.266,49.26,91.2,40.504986,-3.365339,605.1,4,5,242.0,3.533
49.93,1,-0.045,-0.341,0.076,-0.053,-0.367,0.061,-1.464,-0.39,-0.268,49.26,91.2,40.504986,-3.365339,605.1,4,5,242.0,3.533
50.03,1,-0.074,-0.337,-0.0,-0.056,-0.344,0.04,-1.464,-0.392,-0.27,49.26,91.2,40.504986,-3.365339,605.1,4,5,242.0,3.533
50.14,1,-0.11,-0.353,0.077,-0.09,-0.346,0.046,-1.475,-0.39,-0.273,49.26,91.2,40.504986,-3.365339,605.1,4,5,242.0,3.533
50.23,1,-0.081,-0.351,0.071,-0.088,-0.35,0.07,-1.48,-0.39,-0.277,49.26,91.2,40.504986,-3.365339,605.1,4,5,242.0,3.533
50.34,1,-0.082,-0.369,0.056,-0.086,-0.361,0.058,-1.478,-0.389,-0.277,49.26,91.2,40.504986,-3.365339,605.1,4,5,242.0,3.533
50.44,1,-0.088,-0.36,0.049,-0.086,-0.362,0.055,-1.479,-0.388,-0.277,50.3,91.5,40.504879,-3.365583,604.9,4,5,241.7,1.561
50.54,1,-0.095,-0.321,0.056,-0.087,-0.344,0.051,-1.481,-0.388,-0.278,50.3,91.5,40.504879,-3.365583,604.9,4,5,241.7,1.561
50.64,1,-0.074,-0.304,0.085,-0.084,-0.322,0.074,-1.482,-0.387,-0.279,50.3,91.5,40.504879,-3.365583,604.9,4,5,241.7,1.561
50.74,1,-0.046,-0.359,0.055,-0.064,-0.334,0.062,-1.48,-0.384,-0.28,50.3,91.5,40.504879,-3.365583,604.9,4,5,241.7,1.561
50.84,1,-0.067,-0.344,0.063,-0.061,-0.343,0.058,-1.481,-0.381,-0.281,50.3,91.5,40.504879,-3.365583,604.9,4,5,241.7,1.561
50.95,1,-0.095,-0.346,0.042,-0.074,-0.347,0.056,-1.481,-0.38,-0.283,50.3,91.5,40.504879,-3.365583,604.9,4,5,241.7,1.561
51.05,1,-0.078,-0.35,0.053,-0.088,-0.344,0.053,-1.483,-0.379,-0.284,50.3,91.5,40.504879,-3.365583,604.9,4,5,241.7,1.561
51.14,1,-0.058,-0.331,0.092,-0.071,-0.343,0.068,-1.483,-0.378,-0.286,50.3,91.5,40.504879,-3.365583,604.9,4,5,241.7,1.561
51.24,1,-0.074,-0.32,0.032,-0.065,-0.328,0.059,-1.483,-0.376,-0.287,50.3,91.5,40.504879,-3.365583,604.9,4,5,241.7,1.561
51.34,1,-0.086,-0.361,0.062,-0.078,-0.341,0.049,-1.484,-0.374,-0.288,50.3,91.5,40.504879,-3.365583,604.9,4,5,241.7,1.561
51.44,1,-0.119,-0.342,0.076,-0.1,-0.346,0.065,-1.486,-0.373,-0.289,51.26,91.8,40.504761,-3.365842,605.5,4,5,240.3,1.72
51.55,1,-0.055,-0.349,0.055,-0.084,-0.345,0.065,-1.485,-0.373,-0.29,51.26,91.8,40.504761,-3.365842,605.5,4,5,240.3,1.72
51.64,1,-0.065,-0.338,0.047,-0.071,-0.347,0.056,-1.485,-0.371,-0.292,51.26,91.8,40.504761,-3.365842,605.5,4,5,240.3,1.72
51.74,1,-0.032,-0.358,0.078,-0.052,-0.352,0.06,-1.485,-0.37,-0.293,51.26,91.8,40.504761,-3.365842,605.5,4,5,240.3,1.72
51.84,1,-0.081,-0.346,0.03,-0.055,-0.35,0.052,-1.485,-0.368,-0.294,51.26,91.8,40.504761,-3.365842,605.5,4,5,240.3,1.72
51.94,1,-0.091,-0.349,0.034,-0.08,-0.344,0.042,-1.486,-0.366,-0.295,51.26,91.8,40.504761,-3.365842,605.5,4,5,240.3,1.72
52.04,1,-0.118,-0.344,0.043,-0.1,-0.345,0.039,-1.488,-0.364,-0.296,51.26,91.8,40.504761,-3.365842,605.5,4,5,240.3,1.72
52.14,1,-0.087,-0.339,0.057,-0.099,-0.345,0.05,-1.488,-0.363,-0.298,51.26,91.8,40.504761,-3.365842,605.5,4,5,240.3,1.72
52.24,1,-0.072,-0.332,0.053,-0.082,-0.337,0.051,-1.488,-0.362,-0.299,51.26,91.8,40.504761,-3.365842,605.5,4,5,240.3,1.72
52.34,1,-0.025,-0.34,0.051,-0.057,-0.336,0.047,-1.488,-0.36,-0.3,51.26,91.8,40.504761,-3.365842,605.5,4,5,240.3,1.72
52.44,1,-0.031,-0.367,0.025,-0.036,-0.351,0.041,-1.487,-0.358,-0.3,52.28,91.4,40.504639,-3.366102,605.7,4,5,238.9,2.802
52.54,1,-0.083,-0.373,0.05,-0.055,-0.361,0.046,-1.488,-0.356,-0.301,52.28,91.4,40.504639,-3.366102,605.7,4,5,238.9,2.802
52.65,1,-0.093,-0.379,0.047,-0.082,-0.37,0.048,-1.488,-0.355,-0.301,52.28,91.4,40.504639,-3.366102,605.7,4,5,238.9,2.802
52.74,1,-0.011,-0.37,0.058,-0.063,-0.375,0.044,-1.488,-0.353,-0.302,52.28,91.4,40.504639,-3.366102,605.7,4,5,238.9,2.802
52.84,1,-0.037,-0.384,0.054,-0.03,-0.372,0.059,-1.488,-0.349,-0.302,52.28,91.4,40.504639,-3.366102,605.7,4,5,238.9,2.802
52.94,1,-0.118,-0.379,0.062,-0.067,-0.383,0.058,-1.488,-0.348,-0.302,52.28,91.4,40.504639,-3.366102,605.7,4,5,238.9,2.802
53.04,1,-0.113,-0.369,0.051,-0.105,-0.377,0.055,-1.489,-0.348,-0.302,52.28,91.4,40.504639,-3.366102,605.7,4,5,238.9,2.802
53.14,1,-0.014,-0.365,0.052,-0.065,-0.369,0.055,-1.488,-0.346,-0.303,52.28,91.4,40.504639,-3.366102,605.7,4,5,238.9,2.802
53.24,1,-0.032,-0.351,0.032,-0.04,-0.355,0.044,-1.487,-0.344,-0.304,52.28,91.4,40.504639,-3.366102,605.7,4,5,238.9,2.802
53.34,1,-0.114,-0.355,0.052,-0.066,-0.359,0.038,-1.489,-0.343,-0.305,52.28,91.4,40.504639,-3.366102,605.7,4,5,238.9,2.802
53.45,1,-0.119,-0.341,0.056,-0.1,-0.352,0.056,-1.49,-0.342,-0.307,53.3,92.4,40.504517,-3.366363,606.3,4,5,238.2,2.042
53.54,1,-0.008,-0.329,0.07,-0.073,-0.341,0.059,-1.49,-0.342,-0.309,53.3,92.4,40.504517,-3.366363,606.3,4,5,238.2,2.042
53.65,1,-0.022,-0.31,0.037,-0.03,-0.323,0.055,-1.489,-0.341,-0.312,53.3,92.4,40.504517,-3.366363,606.3,4,5,238.2,2.042
53.74,1,-0.086,-0.329,0.028,-0.048,-0.323,0.034,-1.49,-0.337,-0.313,53.3,92.4,40.504517,-3.366363,606.3,4,5,238.2,2.042
53.85,1,-0.109,-0.341,0.063,-0.086,-0.334,0.049,-1.492,-0.336,-0.315,53.3,92.4,40.504517,-3.366363,606.3,4,5,238.2,2.042
53.95,1,-0.079,-0.337,0.047,-0.091,-0.337,0.052,-1.493,-0.337,-0.317,53.3,92.4,40.504517,-3.366363,606.3,4,5,238.2,2.042
54.05,1,-0.085,-0.318,0.035,-0.083,-0.328,0.043,-1.493,-0.338,-0.32,53.3,92.4,40.504517,-3.366363,606.3,4,5,238.2,2.042
54.15,1,-0.051,-0.305,0.058,-0.067,-0.317,0.048,-1.493,-0.337,-0.322,53.3,92.4,40.504517,-3.366363,606.3,4,5,238.2,2.042
54.25,1,-0.048,-0.325,0.031,-0.057,-0.314,0.05,-1.492,-0.334,-0.324,53.3,92.4,40.504517,-3.366363,606.3,4,5,238.2,2.042
54.35,1,-0.032,-0.347,0.039,-0.042,-0.332,0.039,-1.492,-0.332,-0.326,53.3,92.4,40.504517,-3.366363,606.3,4,5,238.2,2.042
54.46,1,-0.104,-0.339,0.054,-0.07,-0.344,0.04,-1.494,-0.33,-0.328,54.31,92.6,40.504398,-3.366614,606.9,4,5,238.2,0.684
54.55,1,-0.099,-0.33,0.049,-0.091,-0.33,0.047,-1.495,-0.328,-0.33,54.31,92.6,40.504398,-3.366614,606.9,4,5,238.2,0.684
54.65,1,-0.092,-0.364,0.037,-0.092,-0.343,0.042,-1.496,-0.326,-0.332,54.31,92.6,40.504398,-3.366614,606.9,4,5,238.2,0.684
54.75,1,-0.065,-0.329,0.058,-0.079,-0.344,0.05,-1.498,-0.326,-0.334,54.31,92.6,40.504398,-3.366614,606.9,4,5,238.2,0.684
54.85,1,-0.013,-0.339,0.035,-0.056,-0.339,0.041,-1.497,-0.326,-0.336,54.31,92.6,40.504398,-3.366614,606.9,4,5,238.2,0.684
54.95,1,-0.032,-0.358,0.028,-0.032,-0.345,0.035,-1.497,-0.325,-0.337,54.31,92.6,40.504398,-3.366614,606.9,4,5,238.2,0.684
55.06,1,-0.089,-0.341,0.04,-0.056,-0.347,0.043,-1.498,-0.325,-0.339,54.31,92.6,40.504398,-3.366614,606.9,4,5,238.2,0.684
55.15,1,-0.107,-0.34,0.038,-0.086,-0.345,0.032,-1.499,-0.326,-0.341,54.31,92.6,40.504398,-3.366614,606.9,4,5,238.2,0.684
55.25,1,-0.076,-0.35,0.012,-0.085,-0.344,0.031,-1.5,-0.328,-0.343,54.31,92.6,40.504398,-3.366614,606.9,4,5,238.2,0.684
55.35,1,-0.036,-0.346,0.058,-0.068,-0.347,0.034,-1.501,-0.329,-0.345,54.31,92.6,40.504398,-3.366614,606.9,4,5,238.2,0.684
55.45,1,0.026,-0.334,0.043,-0.022,-0.342,0.042,-1.5,-0.33,-0.346,55.26,92.8,40.504269,-3.366872,606.7,4,5,238.2,0.0
55.55,1,-0.096,-0.347,0.024,-0.037,-0.344,0.035,-1.5,-0.33,-0.348,55.26,92.8,40.504269,-3.366872,606.7,4,5,238.2,0.0
55.66,1,-0.083,-0.36,0.048,-0.068,-0.354,0.039,-1.502,-0.33,-0.349,55.26,92.8,40.504269,-3.366872,606.7,4,5,238.2,0.0
55.76,1,-0.072,-0.35,0.042,-0.072,-0.353,0.044,-1.502,-0.331,-0.351,55.26,92.8,40.504269,-3.366872,606.7,4,5,238.2,0.0
55.86,1,-0.045,-0.347,0.041,-0.061,-0.339,0.043,-1.502,-0.33,-0.353,55.26,92.8,40.504269,-3.366872,606.7,4,5,238.2,0.0
55.95,1,-0.031,-0.339,0.05,-0.05,-0.347,0.046,-1.502,-0.33,-0.354,55.26,92.8,40.504269,-3.366872,606.7,4,5,238.2,0.0
56.05,1,-0.072,-0.331,0.006,-0.051,-0.342,0.031,-1.501,-0.332,-0.356,55.26,92.8,40.504269,-3.366872,606.7,4,5,238.2,0.0
56.15,1,-0.005,-0.352,0.071,-0.042,-0.342,0.037,-1.503,-0.334,-0.358,55.26,92.8,40.504269,-3.366872,606.7,4,5,238.2,0.0
56.25,1,-0.117,-0.313,0.037,-0.063,-0.329,0.048,-1.502,-0.334,-0.359,55.26,92.8,40.504269,-3.366872,606.7,4,5,238.2,0.0
56.36,1,-0.126,-0.357,0.012,-0.099,-0.336,0.031,-1.503,-0.333,-0.36,55.26,92.8,40.504269,-3.366872,606.7,4,5,238.2,0.0
56.46,1,-0.096,-0.374,0.012,-0.108,-0.357,0.016,-1.504,-0.334,-0.362,56.26,93.1,40.504139,-3.367132,606.6,3,5,236.6,1.638
56.55,1,-0.039,-0.346,0.043,-0.08,-0.359,0.029,-1.504,-0.336,-0.364,56.26,93.1,40.504139,-3.367132,606.6,3,5,236.6,1.638
56.65,1,-0.026,-0.35,0.047,-0.041,-0.351,0.04,-1.504,-0.338,-0.365,56.26,93.1,40.504139,-3.367132,606.6,3,5,236.6,1.638
56.75,1,-0.099,-0.351,0.027,-0.06,-0.347,0.036,-1.503,-0.339,-0.367,56.26,93.1,40.504139,-3.367132,606.6,3,5,236.6,1.638
56.85,1,-0.046,-0.355,0.044,-0.076,-0.35,0.036,-1.503,-0.339,-0.368,56.26,93.1,40.504139,-3.367132,606.6,3,5,236.6,1.638
56.96,1,0.013,-0.372,0.08,-0.022,-0.366,0.054,-1.504,-0.339,-0.37,56.26,93.1,40.504139,-3.367132,606.6,3,5,236.6,1.638
57.06,1,-0.155,-0.345,0.002,-0.063,-0.356,0.043,-1.504,-0.34,-0.372,56.26,93.1,40.504139,-3.367132,606.6,3,5,236.6,1.638
57.16,1,-0.058,-0.344,0.069,-0.086,-0.347,0.047,-1.506,-0.341,-0.374,56.26,93.1,40.504139,-3.367132,606.6,3,5,236.6,1.638
57.26,1,-0.029,-0.356,0.043,-0.055,-0.352,0.044,-1.506,-0.342,-0.376,56.26,93.1,40.504139,-3.367132,606.6,3,5,236.6,1.638
57.36,1,-0.03,-0.374,-0.001,-0.038,-0.361,0.029,-1.505,-0.342,-0.378,56.26,93.1,40.504139,-3.367132,606.6,3,5,236.6,1.638
57.46,1,-0.064,-0.323,0.066,-0.052,-0.348,0.031,-1.506,-0.343,-0.38,57.28,93.5,40.504013,-3.367389,606.5,3,5,236.5,1.667
57.56,1,-0.054,-0.341,0.031,-0.059,-0.341,0.046,-1.507,-0.344,-0.382,57.28,93.5,40.504013,-3.367389,606.5,3,5,236.5,1.667
57.66,1,-0.038,-0.333,0.036,-0.04,-0.338,0.037,-1.507,-0.345,-0.384,57.28,93.5,40.504013,-3.367389,606.5,3,5,236.5,1.667
57.76,1,-0.065,-0.339,0.015,-0.056,-0.342,0.024,-1.507,-0.346,-0.387,57.28,93.5,40.504013,-3.367389,606.5,3,5,236.5,1.667
57.86,1,-0.082,-0.37,0.035,-0.064,-0.351,0.03,-1.509,-0.347,-0.388,57.28,93.5,40.504013,-3.367389,606.5,3,5,236.5,1.667
57.96,1,-0.107,-0.362,0.01,-0.09,-0.359,0.02,-1.509,-0.35,-0.39,57.28,93.5,40.504013,-3.367389,606.5,3,5,236.5,1.667
58.06,1,-0.016,-0.325,0.073,-0.062,-0.351,0.04,-1.509,-0.352,-0.392,57.28,93.5,40.504013,-3.367389,606.5,3,5,236.5,1.667
58.16,1,-0.042,-0.335,0.008,-0.042,-0.331,0.039,-1.508,-0.351,-0.394,57.28,93.5,40.504013,-3.367389,606.5,3,5,236.5,1.667
58.26,1,-0.089,-0.375,-0.005,-0.06,-0.35,0.012,-1.508,-0.349,-0.395,57.28,93.5,40.504013,-3.367389,606.5,3,5,236.5,1.667
58.37,1,-0.074,-0.376,0.053,-0.078,-0.367,0.024,-1.51,-0.348,-0.396,57.28,93.5,40.504013,-3.367389,606.5,3,5,236.5,1.667
58.46,1,-0.028,-0.383,0.016,-0.058,-0.377,0.026,-1.509,-0.351,-0.398,58.29,93.6,40.503887,-3.367642,606.2,3,5,236.5,0.028
58.56,1,-0.06,-0.335,0.018,-0.045,-0.364,0.024,-1.509,-0.353,-0.4,58.29,93.6,40.503887,-3.367642,606.2,3,5,236.5,0.028
58.66,1,-0.085,-0.35,0.015,-0.069,-0.345,0.014,-1.509,-0.353,-0.401,58.29,93.6,40.503887,-3.367642,606.2,3,5,236.5,0.028
58.77,1,-0.075,-0.382,0.032,-0.075,-0.368,0.023,-1.51,-0.353,-0.402,58.29,93.6,40.503887,-3.367642,606.2,3,5,236.5,0.028
58.86,1,-0.105,-0.368,0.057,-0.076,-0.362,0.048,-1.511,-0.355,-0.404,58.29,93.6,40.503887,-3.367642,606.2,3,5,236.5,0.028
58.96,1,-0.091,-0.359,0.013,-0.097,-0.367,0.024,-1.512,-0.357,-0.406,58.29,93.6,40.503887,-3.367642,606.2,3,5,236.5,0.028
59.06,1,-0.107,-0.324,0.051,-0.099,-0.349,0.043,-1.513,-0.359,-0.408,58.29,93.6,40.503887,-3.367642,606.2,3,5,236.5,0.028
59.16,1,-0.079,-0.362,0.024,-0.104,-0.345,0.032,-1.512,-0.357,-0.409,58.29,93.6,40.503887,-3.367642,606.2,3,5,236.5,0.028
59.26,1,-0.029,-0.399,0.024,-0.066,-0.378,0.027,-1.513,-0.358,-0.41,58.29,93.6,40.503887,-3.367642,606.2,3,5,236.5,0.028
59.37,1,-0.066,-0.365,0.018,-0.045,-0.377,0.024,-1.513,-0.359,-0.412,58.29,93.6,40.503887,-3.367642,606.2,3,5,236.5,0.028
59.46,1,-0.147,-0.354,0.006,-0.09,-0.361,0.013,-1.514,-0.36,-0.413,59.29,93.6,40.503761,-3.367896,608.4,3,5,236.5,0.0
59.57,1,-0.1,-0.378,0.022,-0.113,-0.367,0.013,-1.516,-0.362,-0.414,59.29,93.6,40.503761,-3.367896,608.4,3,5,236.5,0.0
59.66,1,-0.041,-0.362,0.033,-0.084,-0.368,0.024,-1.517,-0.364,-0.416,59.29,93.6,40.503761,-3.367896,608.4,3,5,236.5,0.0
59.76,1,-0.021,-0.359,0.046,-0.069,-0.365,0.032,-1.517,-0.365,-0.417,59.29,93.6,40.503761,-3.367896,608.4,3,5,236.5,0.0
59.86,1,-0.052,-0.314,0.048,-0.05,-0.342,0.033,-1.517,-0.365,-0.419,59.29,93.6,40.503761,-3.367896,608.4,3,5,236.5,0.0
59.96,1,0.045,-0.348,0.04,-0.01,-0.337,0.043,-1.516,-0.364,-0.421,59.29,93.6,40.503761,-3.367896,608.4,3,5,236.5,0.0
60.06,1,0.049,-0.388,-0.012,0.053,-0.36,0.031,-1.513,-0.362,-0.423,59.29,93.6,40.503761,-3.367896,608.4,3,5,236.5,0.0
60.16,1,-0.101,-0.357,0.027,-0.015,-0.365,0.016,-1.515,-0.364,-0.425,59.29,93.6,40.503761,-3.367896,608.4,3,5,236.5,0.0
60.26,1,-0.123,-0.348,0.022,-0.072,-0.355,0.027,-1.515,-0.365,-0.428,59.29,93.6,40.503761,-3.367896,608.4,3,5,236.5,0.0
60.36,1,-0.141,-0.349,0.017,-0.119,-0.352,0.025,-1.516,-0.367,-0.43,59.29,93.6,40.503761,-3.367896,608.4,3,5,236.5,0.0
60.47,1,-0.101,-0.345,0.021,-0.116,-0.347,0.014,-1.518,-0.368,-0.432,60.28,92.6,40.503639,-3.368139,607.1,4,5,237.7,1.199
60.57,1,-0.041,-0.352,0.037,-0.082,-0.348,0.024,-1.519,-0.369,-0.434,60.28,92.6,40.503639,-3.368139,607.1,4,5,237.7,1.199
60.67,1,-0.073,-0.364,0.004,-0.064,-0.359,0.023,-1.52,-0.37,-0.436,60.28,92.6,40.503639,-3.368139,607.1,4,5,237.7,1.199
60.77,1,-0.106,-0.364,0.021,-0.088,-0.361,0.016,-1.522,-0.37,-0.438,60.28,92.6,40.503639,-3.368139,607.1,4,5,237.7,1.199
60.87,1,-0.096,-0.362,0.006,-0.097,-0.362,0.016,-1.523,-0.371,-0.44,60.28,92.6,40.503639,-3.368139,607.1,4,5,237.7,1.199
60.97,1,-0.112,-0.371,0.029,-0.098,-0.366,0.011,-1.524,-0.371,-0.442,60.28,92.6,40.503639,-3.368139,607.1,4,5,237.7,1.199
61.07,1,-0.112,-0.397,0.0,-0.111,-0.383,0.014,-1.525,-0.371,-0.443,60.28,92.6,40.503639,-3.368139,607.1,4,5,237.7,1.199
61.17,1,-0.065,-0.356,0.027,-0.092,-0.374,0.017,-1.525,-0.372,-0.445,60.28,92.6,40.503639,-3.368139,607.1,4,5,237.7,1.199
61.27,1,0.002,-0.387,0.019,-0.043,-0.374,0.022,-1.524,-0.371,-0.446,60.28,92.6,40.503639,-3.368139,607.1,4,5,237.7,1.199
61.37,1,-0.079,-0.355,0.018,-0.048,-0.366,0.02,-1.525,-0.37,-0.448,60.28,92.6,40.503639,-3.368139,607.1,4,5,237.7,1.199
61.47,1,-0.126,-0.391,0.015,-0.085,-0.377,0.018,-1.527,-0.369,-0.449,61.28,97.0,40.503506,-3.368411,605.3,4,5,237.5,0.959
61.57,1,-0.171,-0.361,0.027,-0.134,-0.373,0.019,-1.528,-0.371,-0.451,61.28,97.0,40.503506,-3.368411,605.3,4,5,237.5,0.959
61.67,1,-0.103,-0.396,0.012,-0.12,-0.38,0.022,-1.53,-0.372,-0.452,61.28,97.0,40.503506,-3.368411,605.3,4,5,237.5,0.959
61.77,1,-0.089,-0.365,-0.022,-0.106,-0.379,0.001,-1.531,-0.373,-0.454,61.28,97.0,40.503506,-3.368411,605.3,4,5,237.5,0.959
61.87,1,-0.086,-0.376,0.014,-0.107,-0.373,-0.003,-1.532,-0.373,-0.455,61.28,97.0,40.503506,-3.368411,605.3,4,5,237.5,0.959
61.97,1,-0.055,-0.399,0.001,-0.079,-0.383,0.007,-1.533,-0.372,-0.456,61.28,97.0,40.503506,-3.368411,605.3,4,5,237.5,0.959
62.07,1,-0.105,-0.395,0.012,-0.077,-0.392,0.008,-1.534,-0.372,-0.458,61.28,97.0,40.503506,-3.368411,605.3,4,5,237.5,0.959
62.18,1,-0.115,-0.382,-0.021,-0.103,-0.387,-0.002,-1.535,-0.372,-0.459,61.28,97.0,40.503506,-3.368411,605.3,4,5,237.5,0.959
62.27,1,-0.057,-0.385,0.013,-0.089,-0.385,-0.004,-1.535,-0.372,-0.46,61.28,97.0,40.503506,-3.368411,605.3,4,5,237.5,0.959
62.38,1,-0.087,-0.395,-0.004,-0.082,-0.389,0.003,-1.536,-0.371,-0.461,61.28,97.0,40.503506,-3.368411,605.3,4,5,237.5,0.959
62.48,1,-0.08,-0.387,0.003,-0.078,-0.389,-0.003,-1.537,-0.371,-0.462,62.26,94.7,40.503384,-3.36867,605.3,4,5,237.5,0.24
62.57,1,-0.101,-0.397,0.009,-0.09,-0.393,0.005,-1.538,-0.371,-0.463,62.26,94.7,40.503384,-3.36867,605.3,4,5,237.5,0.24
62.67,1,-0.116,-0.399,-0.013,-0.103,-0.397,0.001,-1.538,-0.371,-0.464,62.26,94.7,40.503384,-3.36867,605.3,4,5,237.5,0.24
62.77,1,-0.016,-0.395,0.029,-0.08,-0.395,0.008,-1.539,-0.372,-0.466,62.26,94.7,40.503384,-3.36867,605.3,4,5,237.5,0.24
62.87,1,-0.074,-0.382,-0.01,-0.053,-0.391,0.01,-1.539,-0.372,-0.466,62.26,94.7,40.503384,-3.36867,605.3,4,5,237.5,0.24
62.97,1,-0.1,-0.401,0.006,-0.085,-0.387,-0.002,-1.54,-0.373,-0.467,62.26,94.7,40.503384,-3.36867,605.3,4,5,237.5,0.24
63.07,1,-0.066,-0.406,0.014,-0.072,-0.4,0.007,-1.54,-0.373,-0.468,62.26,94.7,40.503384,-3.36867,605.3,4,5,237.5,0.24
63.18,1,-0.076,-0.388,-0.006,-0.07,-0.399,0.003,-1.54,-0.374,-0.47,62.26,94.7,40.503384,-3.36867,605.3,4,5,237.5,0.24
63.27,1,-0.089,-0.411,-0.015,-0.081,-0.403,-0.004,-1.54,-0.375,-0.47,62.26,94.7,40.503384,-3.36867,605.3,4,5,237.5,0.24
63.37,1,-0.091,-0.399,-0.008,-0.089,-0.401,-0.009,-1.54,-0.375,-0.471,62.26,94.7,40.503384,-3.36867,605.3,4,5,237.5,0.24
63.48,1,-0.096,-0.403,0.019,-0.09,-0.402,0.003,-1.541,-0.376,-0.472,63.25,95.7,40.503246,-3.368954,605.1,4,5,237.5,0.0
63.58,1,-0.097,-0.385,-0.014,-0.095,-0.398,-0.003,-1.542,-0.378,-0.473,63.25,95.7,40.503246,-3.368954,605.1,4,5,237.5,0.0
63.68,1,-0.072,-0.385,0.017,-0.089,-0.389,-0.002,-1.542,-0.378,-0.474,63.25,95.7,40.503246,-3.368954,605.1,4,5,237.5,0.0
63.78,1,-0.046,-0.387,-0.016,-0.066,-0.384,0.001,-1.541,-0.378,-0.475,63.25,95.7,40.503246,-3.368954,605.1,4,5,237.5,0.0
63.88,1,-0.085,-0.397,0.003,-0.065,-0.391,-0.002,-1.542,-0.377,-0.476,63.25,95.7,40.503246,-3.368954,605.1,4,5,237.5,0.0
63.98,1,-0.075,-0.407,-0.018,-0.081,-0.398,-0.007,-1.542,-0.377,-0.477,63.25,95.7,40.503246,-3.368954,605.1,4,5,237.5,0.0
64.08,1,-0.046,-0.39,-0.006,-0.064,-0.398,-0.007,-1.542,-0.378,-0.478,63.25,95.7,40.503246,-3.368954,605.1,4,5,237.5,0.0
64.18,1,-0.077,-0.386,-0.003,-0.056,-0.396,-0.007,-1.543,-0.378,-0.479,63.25,95.7,40.503246,-3.368954,605.1,4,5,237.5,0.0
64.28,1,-0.124,-0.379,-0.017,-0.094,-0.379,-0.009,-1.543,-0.379,-0.48,63.25,95.7,40.503246,-3.368954,605.1,4,5,237.5,0.0
64.39,1,-0.06,-0.399,-0.014,-0.093,-0.388,-0.014,-1.544,-0.38,-0.481,63.25,95.7,40.503246,-3.368954,605.1,4,5,237.5,0.0
64.49,1,-0.08,-0.393,-0.01,-0.075,-0.394,-0.013,-1.545,-0.381,-0.482,64.26,95.3,40.50312,-3.369224,605.3,4,5,237.5,0.0
64.58,1,-0.096,-0.39,-0.01,-0.087,-0.391,-0.012,-1.544,-0.384,-0.483,64.26,95.3,40.50312,-3.369224,605.3,4,5,237.5,0.0
64.68,1,-0.063,-0.393,-0.016,-0.076,-0.395,-0.015,-1.544,-0.386,-0.484,64.26,95.3,40.50312,-3.369224,605.3,4,5,237.5,0.0
64.78,1,-0.119,-0.387,-0.012,-0.087,-0.389,-0.006,-1.546,-0.387,-0.485,64.26,95.3,40.50312,-3.369224,605.3,4,5,237.5,0.0
64.88,1,-0.127,-0.388,-0.014,-0.104,-0.387,-0.012,-1.546,-0.387,-0.486,64.26,95.3,40.50312,-3.369224,605.3,4,5,237.5,0.0
64.98,1,-0.124,-0.388,0.003,-0.124,-0.389,-0.012,-1.545,-0.387,-0.487,64.26,95.3,40.50312,-3.369224,605.3,4,5,237.5,0.0
65.08,1,-0.048,-0.404,0.009,-0.105,-0.396,0.002,-1.546,-0.387,-0.488,64.26,95.3,40.50312,-3.369224,605.3,4,5,237.5,0.0
65.18,1,-0.021,-0.404,-0.007,-0.054,-0.403,0.0,-1.545,-0.387,-0.489,64.26,95.3,40.50312,-3.369224,605.3,4,5,237.5,0.0
65.28,1,-0.126,-0.399,-0.026,-0.075,-0.403,-0.015,-1.545,-0.388,-0.49,64.26,95.3,40.50312,-3.369224,605.3,4,5,237.5,0.0
65.39,1,-0.051,-0.384,-0.002,-0.072,-0.395,-0.006,-1.545,-0.388,-0.491,64.26,95.3,40.50312,-3.369224,605.3,4,5,237.5,0.0
65.48,1,-0.065,-0.4,-0.023,-0.066,-0.389,-0.012,-1.545,-0.387,-0.492,65.26,95.1,40.502991,-3.369487,605.2,4,5,236.7,0.765
65.58,1,-0.091,-0.416,-0.029,-0.078,-0.407,-0.023,-1.546,-0.388,-0.493,65.26,95.1,40.502991,-3.369487,605.2,4,5,236.7,0.765
65.68,1,-0.097,-0.407,0.007,-0.092,-0.407,-0.015,-1.547,-0.39,-0.494,65.26,95.1,40.502991,-3.369487,605.2,4,5,236.7,0.765
65.78,1,-0.105,-0.407,0.003,-0.093,-0.406,-0.001,-1.548,-0.392,-0.495,65.26,95.1,40.502991,-3.369487,605.2,4,5,236.7,0.765
65.88,1,-0.077,-0.418,-0.024,-0.092,-0.408,-0.007,-1.548,-0.393,-0.495,65.26,95.1,40.502991,-3.369487,605.2,4,5,236.7,0.765
65.98,1,-0.033,-0.398,0.018,-0.067,-0.412,0.003,-1.548,-0.394,-0.496,65.26,95.1,40.502991,-3.369487,605.2,4,5,236.7,0.765
66.08,1,-0.096,-0.403,-0.027,-0.065,-0.404,-0.017,-1.548,-0.394,-0.497,65.26,95.1,40.502991,-3.369487,605.2,4,5,236.7,0.765
66.18,1,-0.096,-0.409,-0.0,-0.085,-0.407,-0.007,-1.549,-0.394,-0.498,65.26,95.1,40.502991,-3.369487,605.2,4,5,236.7,0.765
66.28,1,-0.051,-0.397,-0.021,-0.08,-0.402,-0.015,-1.548,-0.394,-0.498,65.26,95.1,40.502991,-3.369487,605.2,4,5,236.7,0.765
66.38,1,-0.05,-0.423,0.005,-0.058,-0.408,-0.004,-1.549,-0.393,-0.498,65.26,95.1,40.502991,-3.369487,605.2,4,5,236.7,0.765
66.48,1,-0.087,-0.414,0.003,-0.071,-0.415,-0.001,-1.548,-0.394,-0.499,66.32,95.0,40.502861,-3.369754,604.9,4,5,237.0,0.496
66.58,1,-0.063,-0.41,-0.01,-0.07,-0.413,-0.006,-1.548,-0.394,-0.5,66.32,95.0,40.502861,-3.369754,604.9,4,5,237.0,0.496
66.69,1,-0.096,-0.434,-0.029,-0.078,-0.424,-0.014,-1.549,-0.395,-0.5,66.32,95.0,40.502861,-3.369754,604.9,4,5,237.0,0.496
66.79,1,-0.092,-0.412,-0.009,-0.083,-0.418,-0.016,-1.549,-0.396,-0.501,66.32,95.0,40.502861,-3.369754,604.9,4,5,237.0,0.496
66.89,1,-0.086,-0.386,-0.02,-0.09,-0.404,-0.01,-1.549,-0.397,-0.502,66.32,95.0,40.502861,-3.369754,604.9,4,5,237.0,0.496
66.99,1,-0.077,-0.397,-0.012,-0.083,-0.396,-0.017,-1.549,-0.397,-0.502,66.32,95.0,40.502861,-3.369754,604.9,4,5,237.0,0.496
67.09,1,-0.07,-0.419,0.01,-0.073,-0.401,-0.003,-1.548,-0.397,-0.501,66.32,95.0,40.502861,-3.369754,604.9,4,5,237.0,0.496
67.19,1,-0.078,-0.442,-0.001,-0.076,-0.423,-0.002,-1.549,-0.396,-0.501,66.32,95.0,40.502861,-3.369754,604.9,4,5,237.0,0.496
67.29,1,-0.045,-0.418,0.024,-0.064,-0.43,0.008,-1.548,-0.396,-0.5,66.32,95.0,40.502861,-3.369754,604.9,4,5,237.0,0.496
67.39,1,-0.059,-0.448,-0.007,-0.058,-0.435,0.009,-1.547,-0.397,-0.5,66.32,95.0,40.502861,-3.369754,604.9,4,5,237.0,0.496
67.49,1,-0.065,-0.432,-0.006,-0.062,-0.433,-0.004,-1.546,-0.398,-0.5,67.28,95.3,40.502747,-3.370005,605.0,4,5,237.0,0.27
67.59,1,-0.101,-0.436,-0.011,-0.081,-0.437,-0.004,-1.546,-0.398,-0.499,67.28,95.3,40.502747,-3.370005,605.0,4,5,237.0,0.27
67.69,1,-0.118,-0.46,0.014,-0.094,-0.444,-0.001,-1.545,-0.398,-0.498,67.28,95.3,40.502747,-3.370005,605.0,4,5,237.0,0.27
67.79,1,-0.115,-0.484,-0.003,-0.121,-0.464,0.003,-1.545,-0.397,-0.496,67.28,95.3,40.502747,-3.370005,605.0,4,5,237.0,0.27
67.89,1,-0.046,-0.5,-0.01,-0.084,-0.485,-0.0,-1.545,-0.397,-0.495,67.28,95.3,40.502747,-3.370005,605.0,4,5,237.0,0.27
68.0,1,-0.118,-0.485,-0.023,-0.087,-0.489,-0.017,-1.544,-0.398,-0.493,67.28,95.3,40.502747,-3.370005,605.0,4,5,237.0,0.27
68.09,1,-0.087,-0.465,-0.008,-0.102,-0.478,-0.016,-1.543,-0.399,-0.491,67.28,95.3,40.502747,-3.370005,605.0,4,5,237.0,0.27
68.19,1,-0.086,-0.469,-0.009,-0.087,-0.474,-0.008,-1.543,-0.399,-0.49,67.28,95.3,40.502747,-3.370005,605.0,4,5,237.0,0.27
68.29,1,-0.144,-0.473,0.003,-0.107,-0.469,-0.005,-1.543,-0.398,-0.487,67.28,95.3,40.502747,-3.370005,605.0,4,5,237.0,0.27
68.39,1,-0.099,-0.503,0.007,-0.112,-0.484,-0.002,-1.543,-0.398,-0.485,67.28,95.3,40.502747,-3.370005,605.0,4,5,237.0,0.27
68.5,1,-0.042,-0.498,0.006,-0.088,-0.494,-0.001,-1.542,-0.4,-0.483,68.27,95.2,40.502617,-3.370268,605.0,4,5,237.0,0.0
68.6,1,0.062,-0.461,0.019,-0.01,-0.484,0.016,-1.539,-0.401,-0.482,68.27,95.2,40.502617,-3.370268,605.0,4,5,237.0,0.0
68.69,1,-0.115,-0.447,-0.021,-0.041,-0.466,0.004,-1.537,-0.402,-0.48,68.27,95.2,40.502617,-3.370268,605.0,4,5,237.0,0.0
68.79,1,-0.11,-0.463,-0.008,-0.081,-0.459,-0.012,-1.536,-0.403,-0.478,68.27,95.2,40.502617,-3.370268,605.0,4,5,237.0,0.0
68.89,1,-0.114,-0.484,0.006,-0.102,-0.463,0.005,-1.536,-0.403,-0.477,68.27,95.2,40.502617,-3.370268,605.0,4,5,237.0,0.0
68.99,1,-0.126,-0.452,0.012,-0.113,-0.465,-0.003,-1.536,-0.404,-0.476,68.27,95.2,40.502617,-3.370268,605.0,4,5,237.0,0.0
69.1,1,-0.078,-0.433,-0.004,-0.104,-0.452,0.01,-1.535,-0.405,-0.475,68.27,95.2,40.502617,-3.370268,605.0,4,5,237.0,0.0
69.2,1,-0.054,-0.436,0.023,-0.074,-0.439,0.001,-1.535,-0.404,-0.474,68.27,95.2,40.502617,-3.370268,605.0,4,5,237.0,0.0
69.3,1,-0.074,-0.422,0.004,-0.069,-0.432,0.018,-1.533,-0.403,-0.473,68.27,95.2,40.502617,-3.370268,605.0,4,5,237.0,0.0
69.39,1,-0.121,-0.44,-0.024,-0.092,-0.432,-0.007,-1.534,-0.403,-0.473,68.27,95.2,40.502617,-3.370268,605.0,4,5,237.0,0.0
69.5,1,-0.087,-0.448,0.032,-0.096,-0.442,0.007,-1.535,-0.404,-0.474,69.26,95.1,40.502487,-3.370531,604.8,4,5,237.4,0.365
69.59,1,-0.119,-0.406,-0.01,-0.101,-0.428,0.003,-1.536,-0.406,-0.474,69.26,95.1,40.502487,-3.370531,604.8,4,5,237.4,0.365
69.69,1,-0.081,-0.421,0.001,-0.103,-0.42,-0.0,-1.537,-0.408,-0.475,69.26,95.1,40.502487,-3.370531,604.8,4,5,237.4,0.365
69.81,1,-0.1,-0.409,-0.005,-0.093,-0.416,-0.002,-1.537,-0.408,-0.475,69.26,95.1,40.502487,-3.370531,604.8,4,5,237.4,0.365
69.9,1,-0.094,-0.407,0.015,-0.103,-0.411,0.002,-1.538,-0.408,-0.477,69.26,95.1,40.502487,-3.370531,604.8,4,5,237.4,0.365
70.0,1,-0.064,-0.416,0.003,-0.078,-0.414,0.01,-1.538,-0.409,-0.478,69.26,95.1,40.502487,-3.370531,604.8,4,5,237.4,0.365
70.1,1,-0.094,-0.411,-0.016,-0.083,-0.411,-0.003,-1.539,-0.41,-0.479,69.26,95.1,40.502487,-3.370531,604.8,4,5,237.4,0.365
70.2,1,-0.077,-0.399,0.023,-0.083,-0.403,0.006,-1.539,-0.411,-0.481,69.26,95.1,40.502487,-3.370531,604.8,4,5,237.4,0.365
70.3,1,-0.064,-0.396,-0.003,-0.07,-0.404,0.007,-1.538,-0.412,-0.482,69.26,95.1,40.502487,-3.370531,604.8,4,5,237.4,0.365
70.4,1,-0.1,-0.416,-0.007,-0.081,-0.403,-0.008,-1.538,-0.411,-0.483,69.26,95.1,40.502487,-3.370531,604.8,4,5,237.4,0.365
70.5,1,-0.088,-0.403,-0.017,-0.088,-0.407,-0.004,-1.539,-0.412,-0.485,70.26,94.9,40.502357,-3.370776,604.8,4,5,236.2,1.125
70.6,1,-0.123,-0.398,-0.002,-0.103,-0.407,-0.009,-1.54,-0.412,-0.486,70.26,94.9,40.502357,-3.370776,604.8,4,5,236.2,1.125
70.7,1,-0.091,-0.422,0.004,-0.101,-0.409,-0.004,-1.541,-0.413,-0.488,70.26,94.9,40.502357,-3.370776,604.8,4,5,236.2,1.125
70.8,1,-0.058,-0.404,-0.007,-0.09,-0.408,-0.004,-1.541,-0.414,-0.489,70.26,94.9,40.502357,-3.370776,604.8,4,5,236.2,1.125
70.9,1,-0.028,-0.425,-0.002,-0.049,-0.419,-0.003,-1.541,-0.415,-0.491,70.26,94.9,40.502357,-3.370776,604.8,4,5,236.2,1.125
71.0,1,-0.106,-0.393,-0.026,-0.066,-0.408,-0.011,-1.541,-0.416,-0.492,70.26,94.9,40.502357,-3.370776,604.8,4,5,236.2,1.125
71.1,1,-0.143,-0.412,0.007,-0.112,-0.404,-0.011,-1.542,-0.417,-0.493,70.26,94.9,40.502357,-3.370776,604.8,4,5,236.2,1.125
71.2,1,-0.111,-0.411,0.0,-0.117,-0.409,0.002,-1.543,-0.417,-0.494,70.26,94.9,40.502357,-3.370776,604.8,4,5,236.2,1.125
71.3,1,-0.098,-0.418,0.001,-0.104,-0.416,-0.003,-1.543,-0.417,-0.495,70.26,94.9,40.502357,-3.370776,604.8,4,5,236.2,1.125
71.4,1,-0.121,-0.395,-0.012,-0.107,-0.408,0.002,-1.544,-0.417,-0.497,70.26,94.9,40.502357,-3.370776,604.8,4,5,236.2,1.125
71.5,1,-0.082,-0.438,0.02,-0.107,-0.42,-0.003,-1.546,-0.416,-0.498,71.26,95.0,40.502228,-3.371032,604.7,4,5,236.6,0.773
71.61,1,-0.066,-0.422,-0.004,-0.084,-0.425,0.007,-1.546,-0.418,-0.499,71.26,95.0,40.502228,-3.371032,604.7,4,5,236.6,0.773
71.71,1,-0.091,-0.409,-0.035,-0.091,-0.409,-0.014,-1.545,-0.418,-0.5,71.26,95.0,40.502228,-3.371032,604.7,4,5,236.6,0.773
71.81,1,-0.134,-0.421,-0.022,-0.105,-0.42,-0.022,-1.546,-0.418,-0.501,71.26,95.0,40.502228,-3.371032,604.7,4,5,236.6,0.773
71.9,1,-0.106,-0.426,0.015,-0.113,-0.424,-0.016,-1.549,-0.418,-0.502,71.26,95.0,40.502228,-3.371032,604.7,4,5,236.6,0.773
72.0,1,-0.017,-0.423,0.007,-0.067,-0.425,0.007,-1.548,-0.417,-0.503,71.26,95.0,40.502228,-3.371032,604.7,4,5,236.6,0.773
72.1,1,-0.01,-0.443,-0.041,-0.032,-0.427,-0.01,-1.545,-0.417,-0.504,71.26,95.0,40.502228,-3.371032,604.7,4,5,236.6,0.773
72.21,1,-0.08,-0.414,-0.016,-0.038,-0.425,-0.014,-1.544,-0.419,-0.505,71.26,95.0,40.502228,-3.371032,604.7,4,5,236.6,0.773
72.3,1,-0.187,-0.367,-0.041,-0.116,-0.399,-0.032,-1.545,-0.419,-0.505,71.26,95.0,40.502228,-3.371032,604.7,4,5,236.6,0.773
72.4,1,-0.036,-0.44,0.031,-0.106,-0.405,-0.012,-1.547,-0.415,-0.506,71.26,95.0,40.502228,-3.371032,604.7,4,5,236.6,0.773
72.5,1,-0.11,-0.47,-0.028,-0.084,-0.441,-0.004,-1.546,-0.412,-0.505,72.26,94.9,40.502098,-3.371296,604.3,4,5,237.0,0.703
72.6,1,-0.178,-0.468,-0.022,-0.132,-0.461,-0.02,-1.546,-0.414,-0.505,72.26,94.9,40.502098,-3.371296,604.3,4,5,237.0,0.703
72.71,1,-0.081,-0.424,-0.0,-0.115,-0.453,-0.01,-1.547,-0.417,-0.506,72.26,94.9,40.502098,-3.371296,604.3,4,5,237.0,0.703
72.81,1,-0.04,-0.434,0.005,-0.08,-0.429,-0.003,-1.546,-0.419,-0.506,72.26,94.9,40.502098,-3.371296,604.3,4,5,237.0,0.703
72.91,1,-0.116,-0.437,-0.025,-0.086,-0.431,-0.002,-1.546,-0.418,-0.506,72.26,94.9,40.502098,-3.371296,604.3,4,5,237.0,0.703
73.01,1,-0.101,-0.451,-0.01,-0.1,-0.443,-0.017,-1.546,-0.418,-0.505,72.26,94.9,40.502098,-3.371296,604.3,4,5,237.0,0.703
73.11,1,-0.06,-0.48,0.012,-0.077,-0.46,-0.003,-1.546,-0.42,-0.505,72.26,94.9,40.502098,-3.371296,604.3,4,5,237.0,0.703
73.21,1,-0.149,-0.456,-0.034,-0.097,-0.467,-0.01,-1.547,-0.422,-0.506,72.26,94.9,40.502098,-3.371296,604.3,4,5,237.0,0.703
73.31,1,-0.08,-0.424,-0.003,-0.123,-0.445,-0.015,-1.547,-0.425,-0.506,72.26,94.9,40.502098,-3.371296,604.3,4,5,237.0,0.703
73.41,1,-0.046,-0.425,-0.016,-0.071,-0.43,-0.008,-1.546,-0.424,-0.506,72.26,94.9,40.502098,-3.371296,604.3,4,5,237.0,0.703
73.51,1,-0.098,-0.418,0.004,-0.066,-0.426,-0.007,-1.545,-0.423,-0.506,73.27,95.1,40.501968,-3.371555,603.9,4,5,237.0,0.352
73.61,1,-0.101,-0.429,-0.02,-0.1,-0.424,-0.013,-1.544,-0.422,-0.506,73.27,95.1,40.501968,-3.371555,603.9,4,5,237.0,0.352
73.71,1,-0.026,-0.467,0.011,-0.068,-0.442,-0.005,-1.545,-0.422,-0.506,73.27,95.1,40.501968,-3.371555,603.9,4,5,237.0,0.352
73.81,1,-0.176,-0.438,-0.012,-0.102,-0.447,-0.001,-1.546,-0.423,-0.506,73.27,95.1,40.501968,-3.371555,603.9,4,5,237.0,0.352
73.92,1,-0.173,-0.437,-0.014,-0.152,-0.443,-0.013,-1.547,-0.426,-0.507,73.27,95.1,40.501968,-3.371555,603.9,4,5,237.0,0.352
74.02,1,-0.046,-0.423,-0.009,-0.115,-0.427,-0.005,-1.546,-0.427,-0.507,73.27,95.1,40.501968,-3.371555,603.9,4,5,237.0,0.352
74.12,1,-0.069,-0.427,-0.011,-0.067,-0.429,-0.013,-1.546,-0.426,-0.507,73.27,95.1,40.501968,-3.371555,603.9,4,5,237.0,0.352
74.21,1,-0.127,-0.441,-0.001,-0.096,-0.431,-0.009,-1.546,-0.425,-0.506,73.27,95.1,40.501968,-3.371555,603.9,4,5,237.0,0.352
74.31,1,-0.145,-0.446,-0.032,-0.134,-0.437,-0.016,-1.546,-0.426,-0.507,73.27,95.1,40.501968,-3.371555,603.9,4,5,237.0,0.352
74.41,1,-0.043,-0.416,0.028,-0.096,-0.44,0.004,-1.547,-0.428,-0.508,73.27,95.1,40.501968,-3.371555,603.9,4,5,237.0,0.352
74.51,1,-0.052,-0.423,-0.017,-0.062,-0.421,-0.001,-1.545,-0.428,-0.508,74.26,95.1,40.50185,-3.371809,603.7,4,5,237.0,0.0
74.62,1,-0.086,-0.449,-0.02,-0.071,-0.431,-0.013,-1.544,-0.428,-0.508,74.26,95.1,40.50185,-3.371809,603.7,4,5,237.0,0.0
74.72,1,-0.071,-0.426,-0.031,-0.077,-0.435,-0.025,-1.543,-0.428,-0.508,74.26,95.1,40.50185,-3.371809,603.7,4,5,237.0,0.0
74.81,1,-0.07,-0.466,-0.007,-0.068,-0.446,-0.02,-1.544,-0.427,-0.508,74.26,95.1,40.50185,-3.371809,603.7,4,5,237.0,0.0
74.91,1,-0.159,-0.441,-0.034,-0.104,-0.449,-0.02,-1.544,-0.427,-0.508,74.26,95.1,40.50185,-3.371809,603.7,4,5,237.0,0.0
75.01,1,-0.142,-0.473,-0.062,-0.133,-0.455,-0.031,-1.546,-0.428,-0.508,74.26,95.1,40.50185,-3.371809,603.7,4,5,237.0,0.0
75.12,1,-0.105,-0.431,0.019,-0.123,-0.452,-0.021,-1.547,-0.429,-0.508,74.26,95.1,40.50185,-3.371809,603.7,4,5,237.0,0.0
75.22,1,-0.075,-0.458,-0.034,-0.104,-0.45,-0.025,-1.546,-0.429,-0.508,74.26,95.1,40.50185,-3.371809,603.7,4,5,237.0,0.0
75.31,1,-0.092,-0.436,-0.031,-0.088,-0.448,-0.029,-1.545,-0.429,-0.508,74.26,95.1,40.50185,-3.371809,603.7,4,5,237.0,0.0
75.41,1,-0.135,-0.423,-0.007,-0.108,-0.434,-0.016,-1.546,-0.43,-0.508,74.26,95.1,40.50185,-3.371809,603.7,4,5,237.0,0.0
75.51,1,-0.093,-0.428,-0.024,-0.109,-0.434,-0.022,-1.547,-0.429,-0.508,75.27,94.7,40.501717,-3.372072,603.7,4,5,237.0,0.0
75.61,1,-0.059,-0.467,0.027,-0.082,-0.443,0.003,-1.547,-0.429,-0.508,75.27,94.7,40.501717,-3.372072,603.7,4,5,237.0,0.0
75.72,1,-0.114,-0.431,-0.045,-0.095,-0.437,-0.015,-1.546,-0.43,-0.508,75.27,94.7,40.501717,-3.372072,603.7,4,5,237.0,0.0
75.83,1,-0.09,-0.448,-0.02,-0.096,-0.447,-0.02,-1.546,-0.43,-0.508,75.27,94.7,40.501717,-3.372072,603.7,4,5,237.0,0.0
75.93,1,-0.091,-0.436,0.009,-0.092,-0.44,-0.014,-1.548,-0.431,-0.508,75.27,94.7,40.501717,-3.372072,603.7,4,5,237.0,0.0
76.02,1,-0.093,-0.436,-0.016,-0.098,-0.436,-0.004,-1.547,-0.432,-0.508,75.27,94.7,40.501717,-3.372072,603.7,4,5,237.0,0.0
76.12,1,-0.093,-0.436,-0.025,-0.087,-0.441,-0.018,-1.546,-0.432,-0.508,75.27,94.7,40.501717,-3.372072,603.7,4,5,237.0,0.0
76.22,1,-0.116,-0.473,-0.022,-0.098,-0.449,-0.019,-1.546,-0.432,-0.507,75.27,94.7,40.501717,-3.372072,603.7,4,5,237.0,0.0
76.32,1,-0.125,-0.428,-0.009,-0.114,-0.444,-0.02,-1.547,-0.433,-0.507,75.27,94.7,40.501717,-3.372072,603.7,4,5,237.0,0.0
76.42,1,-0.095,-0.461,-0.005,-0.106,-0.451,-0.003,-1.546,-0.434,-0.507,75.27,94.7,40.501717,-3.372072,603.7,4,5,237.0,0.0
76.52,1,-0.084,-0.429,-0.02,-0.106,-0.441,-0.019,-1.546,-0.434,-0.507,76.28,94.6,40.501587,-3.372321,603.4,4,5,237.0,0.0
76.62,1,-0.096,-0.404,-0.022,-0.09,-0.427,-0.019,-1.546,-0.434,-0.507,76.28,94.6,40.501587,-3.372321,603.4,4,5,237.0,0.0
76.72,1,-0.099,-0.423,-0.042,-0.098,-0.417,-0.032,-1.547,-0.433,-0.507,76.28,94.6,40.501587,-3.372321,603.4,4,5,237.0,0.0
76.82,1,-0.041,-0.423,0.023,-0.067,-0.421,-0.006,-1.548,-0.433,-0.507,76.28,94.6,40.501587,-3.372321,603.4,4,5,237.0,0.0
76.92,1,-0.107,-0.411,-0.024,-0.086,-0.416,-0.014,-1.547,-0.434,-0.508,76.28,94.6,40.501587,-3.372321,603.4,4,5,237.0,0.0
77.03,1,-0.078,-0.424,-0.031,-0.09,-0.421,-0.013,-1.546,-0.436,-0.509,76.28,94.6,40.501587,-3.372321,603.4,4,5,237.0,0.0
77.13,1,-0.098,-0.395,-0.038,-0.082,-0.413,-0.038,-1.546,-0.438,-0.51,76.28,94.6,40.501587,-3.372321,603.4,4,5,237.0,0.0
77.22,1,-0.115,-0.365,0.004,-0.104,-0.388,-0.013,-1.547,-0.438,-0.511,76.28,94.6,40.501587,-3.372321,603.4,4,5,237.0,0.0
77.32,1,-0.116,-0.408,-0.024,-0.11,-0.389,-0.008,-1.547,-0.435,-0.511,76.28,94.6,40.501587,-3.372321,603.4,4,5,237.0,0.0
77.42,1,-0.093,-0.432,-0.001,-0.106,-0.411,-0.019,-1.548,-0.432,-0.512,76.28,94.6,40.501587,-3.372321,603.4,4,5,237.0,0.0
77.52,1,-0.104,-0.424,-0.02,-0.099,-0.425,-0.016,-1.549,-0.432,-0.513,77.3,94.3,40.501469,-3.372579,603.6,4,5,236.6,0.352
77.63,1,-0.124,-0.401,-0.022,-0.112,-0.415,-0.017,-1.55,-0.432,-0.514,77.3,94.3,40.501469,-3.372579,603.6,4,5,236.6,0.352
77.72,1,-0.091,-0.428,-0.021,-0.112,-0.415,-0.025,-1.55,-0.432,-0.515,77.3,94.3,40.501469,-3.372579,603.6,4,5,236.6,0.352
77.82,1,-0.117,-0.445,-0.017,-0.096,-0.433,-0.012,-1.551,-0.43,-0.515,77.3,94.3,40.501469,-3.372579,603.6,4,5,236.6,0.352
77.92,1,-0.124,-0.47,-0.0,-0.122,-0.443,-0.012,-1.551,-0.43,-0.515,77.3,94.3,40.501469,-3.372579,603.6,4,5,236.6,0.352
78.02,1,-0.083,-0.435,-0.029,-0.104,-0.448,-0.019,-1.552,-0.431,-0.515,77.3,94.3,40.501469,-3.372579,603.6,4,5,236.6,0.352
78.13,1,-0.102,-0.43,-0.014,-0.102,-0.439,-0.017,-1.552,-0.432,-0.515,77.3,94.3,40.501469,-3.372579,603.6,4,5,236.6,0.352
78.23,1,-0.047,-0.408,-0.004,-0.081,-0.428,-0.017,-1.552,-0.433,-0.515,77.3,94.3,40.501469,-3.372579,603.6,4,5,236.6,0.352
78.33,1,-0.003,-0.429,-0.009,-0.032,-0.418,-0.002,-1.55,-0.432,-0.515,77.3,94.3,40.501469,-3.372579,603.6,4,5,236.6,0.352
78.42,1,-0.152,-0.448,-0.048,-0.077,-0.436,-0.023,-1.55,-0.43,-0.514,77.3,94.3,40.501469,-3.372579,603.6,4,5,236.6,0.352
78.52,1,-0.088,-0.47,0.029,-0.1,-0.461,-0.012,-1.55,-0.43,-0.514,78.28,94.1,40.501339,-3.372835,603.3,4,5,237.0,0.352
78.62,1,-0.037,-0.446,-0.057,-0.073,-0.45,-0.023,-1.55,-0.432,-0.515,78.28,94.1,40.501339,-3.372835,603.3,4,5,237.0,0.352
78.73,1,-0.152,-0.423,-0.022,-0.099,-0.439,-0.026,-1.551,-0.433,-0.515,78.28,94.1,40.501339,-3.372835,603.3,4,5,237.0,0.352
78.84,1,-0.133,-0.434,-0.033,-0.119,-0.43,-0.029,-1.551,-0.433,-0.515,78.28,94.1,40.501339,-3.372835,603.3,4,5,237.0,0.352
78.93,1,-0.102,-0.426,-0.023,-0.117,-0.43,-0.027,-1.551,-0.433,-0.515,78.28,94.1,40.501339,-3.372835,603.3,4,5,237.0,0.352
79.03,1,-0.086,-0.414,-0.007,-0.104,-0.423,-0.02,-1.551,-0.433,-0.516,78.28,94.1,40.501339,-3.372835,603.3,4,5,237.0,0.352
79.13,1,-0.082,-0.353,-0.026,-0.088,-0.4,-0.016,-1.554,-0.436,-0.521,78.28,94.1,40.501339,-3.372835,603.3,4,5,237.0,0.352
79.23,1,-0.11,-0.292,-0.005,-0.095,-0.338,-0.015,-1.556,-0.439,-0.527,78.28,94.1,40.501339,-3.372835,603.3,4,5,237.0,0.352
79.34,1,-0.104,-0.335,-0.037,-0.107,-0.324,-0.026,-1.558,-0.439,-0.53,78.28,94.1,40.501339,-3.372835,603.3,4,5,237.0,0.352
79.43,1,-0.091,-0.378,-0.019,-0.095,-0.351,-0.017,-1.56,-0.436,-0.533,78.28,94.1,40.501339,-3.372835,603.3,4,5,237.0,0.352
79.54,1,-0.112,-0.394,-0.007,-0.102,-0.374,-0.02,-1.56,-0.435,-0.535,79.27,94.7,40.501213,-3.373094,603.0,4,5,237.3,0.703
79.63,1,-0.087,-0.394,-0.068,-0.102,-0.387,-0.035,-1.561,-0.434,-0.537,79.27,94.7,40.501213,-3.373094,603.0,4,5,237.3,0.703
79.73,1,-0.075,-0.434,-0.018,-0.083,-0.406,-0.035,-1.563,-0.433,-0.539,79.27,94.7,40.501213,-3.373094,603.0,4,5,237.3,0.703
79.83,1,-0.122,-0.412,-0.041,-0.098,-0.414,-0.029,-1.563,-0.431,-0.54,79.27,94.7,40.501213,-3.373094,603.0,4,5,237.3,0.703
79.93,1,-0.081,-0.466,-0.036,-0.099,-0.438,-0.036,-1.564,-0.43,-0.539,79.27,94.7,40.501213,-3.373094,603.0,4,5,237.3,0.703
80.04,1,-0.099,-0.439,-0.032,-0.091,-0.441,-0.034,-1.563,-0.429,-0.539,79.27,94.7,40.501213,-3.373094,603.0,4,5,237.3,0.703
80.13,1,-0.083,-0.467,-0.036,-0.087,-0.455,-0.036,-1.562,-0.429,-0.538,79.27,94.7,40.501213,-3.373094,603.0,4,5,237.3,0.703
80.24,1,-0.065,-0.431,-0.015,-0.088,-0.448,-0.032,-1.563,-0.432,-0.538,79.27,94.7,40.501213,-3.373094,603.0,4,5,237.3,0.703
80.33,1,-0.069,-0.427,0.006,-0.07,-0.436,-0.008,-1.562,-0.432,-0.537,79.27,94.7,40.501213,-3.373094,603.0,4,5,237.3,0.703
80.43,1,-0.115,-0.477,-0.043,-0.082,-0.448,-0.023,-1.562,-0.43,-0.536,79.27,94.7,40.501213,-3.373094,603.0,4,5,237.3,0.703
80.54,1,-0.157,-0.455,-0.057,-0.122,-0.459,-0.036,-1.562,-0.43,-0.535,80.26,93.7,40.501091,-3.373355,603.0,4,5,238.0,1.055
80.64,1,-0.1,-0.447,0.005,-0.124,-0.451,-0.03,-1.564,-0.43,-0.535,80.26,93.7,40.501091,-3.373355,603.0,4,5,238.0,1.055
80.74,1,-0.068,-0.451,-0.037,-0.095,-0.453,-0.022,-1.564,-0.43,-0.534,80.26,93.7,40.501091,-3.373355,603.0,4,5,238.0,1.055
80.83,1,-0.129,-0.454,-0.024,-0.1,-0.453,-0.023,-1.564,-0.431,-0.534,80.26,93.7,40.501091,-3.373355,603.0,4,5,238.0,1.055
80.93,1,-0.082,-0.452,-0.023,-0.101,-0.453,-0.033,-1.563,-0.432,-0.533,80.26,93.7,40.501091,-3.373355,603.0,4,5,238.0,1.055
81.04,1,-0.082,-0.456,-0.046,-0.084,-0.455,-0.026,-1.563,-0.433,-0.532,80.26,93.7,40.501091,-3.373355,603.0,4,5,238.0,1.055
81.13,1,-0.11,-0.456,-0.028,-0.094,-0.453,-0.034,-1.563,-0.432,-0.53,80.26,93.7,40.501091,-3.373355,603.0,4,5,238.0,1.055
81.24,1,-0.095,-0.47,-0.036,-0.107,-0.461,-0.03,-1.562,-0.43,-0.529,80.26,93.7,40.501091,-3.373355,603.0,4,5,238.0,1.055
81.33,1,-0.055,-0.472,0.012,-0.075,-0.47,-0.02,-1.562,-0.429,-0.528,80.26,93.7,40.501091,-3.373355,603.0,4,5,238.0,1.055
81.44,1,-0.094,-0.452,-0.036,-0.077,-0.462,-0.015,-1.561,-0.429,-0.527,80.26,93.7,40.501091,-3.373355,603.0,4,5,238.0,1.055
81.53,1,-0.098,-0.471,-0.016,-0.092,-0.466,-0.022,-1.56,-0.427,-0.525,81.29,94.5,40.500965,-3.373618,603.0,4,5,238.0,0.703
81.64,1,-0.127,-0.494,-0.03,-0.107,-0.473,-0.03,-1.561,-0.425,-0.523,81.29,94.5,40.500965,-3.373618,603.0,4,5,238.0,0.703
81.74,1,-0.077,-0.509,-0.028,-0.104,-0.495,-0.022,-1.56,-0.425,-0.522,81.29,94.5,40.500965,-3.373618,603.0,4,5,238.0,0.703
81.85,1,-0.089,-0.465,-0.016,-0.088,-0.486,-0.023,-1.559,-0.427,-0.52,81.29,94.5,40.500965,-3.373618,603.0,4,5,238.0,0.703
81.95,1,-0.124,-0.431,-0.036,-0.106,-0.461,-0.021,-1.559,-0.43,-0.519,81.29,94.5,40.500965,-3.373618,603.0,4,5,238.0,0.703
82.04,1,-0.08,-0.485,-0.037,-0.103,-0.462,-0.038,-1.559,-0.43,-0.517,81.29,94.5,40.500965,-3.373618,603.0,4,5,238.0,0.703
82.14,1,-0.039,-0.492,-0.014,-0.074,-0.479,-0.025,-1.558,-0.431,-0.515,81.29,94.5,40.500965,-3.373618,603.0,4,5,238.0,0.703
82.24,1,-0.09,-0.464,-0.012,-0.066,-0.479,-0.021,-1.557,-0.43,-0.514,81.29,94.5,40.500965,-3.373618,603.0,4,5,238.0,0.703
82.34,1,-0.046,-0.488,-0.006,-0.063,-0.475,-0.008,-1.556,-0.43,-0.512,81.29,94.5,40.500965,-3.373618,603.0,4,5,238.0,0.703
82.45,1,-0.131,-0.466,-0.02,-0.087,-0.475,-0.008,-1.556,-0.429,-0.51,81.29,94.5,40.500965,-3.373618,603.0,4,5,238.0,0.703
82.54,1,-0.117,-0.452,-0.023,-0.108,-0.468,-0.021,-1.555,-0.43,-0.509,82.28,93.1,40.500851,-3.373871,602.7,4,5,237.7,0.352
82.64,1,-0.053,-0.453,0.005,-0.085,-0.454,-0.011,-1.554,-0.43,-0.508,82.28,93.1,40.500851,-3.373871,602.7,4,5,237.7,0.352
82.74,1,-0.102,-0.472,-0.047,-0.084,-0.463,-0.024,-1.554,-0.432,-0.508,82.28,93.1,40.500851,-3.373871,602.7,4,5,237.7,0.352
82.84,1,-0.116,-0.437,-0.008,-0.105,-0.453,-0.017,-1.555,-0.434,-0.508,82.28,93.1,40.500851,-3.373871,602.7,4,5,237.7,0.352
82.94,1,-0.101,-0.436,-0.028,-0.107,-0.437,-0.026,-1.555,-0.434,-0.507,82.28,93.1,40.500851,-3.373871,602.7,4,5,237.7,0.352
83.05,1,-0.126,-0.446,-0.033,-0.108,-0.445,-0.024,-1.556,-0.433,-0.506,82.28,93.1,40.500851,-3.373871,602.7,4,5,237.7,0.352
83.14,1,-0.146,-0.451,-0.004,-0.13,-0.448,-0.022,-1.557,-0.433,-0.506,82.28,93.1,40.500851,-3.373871,602.7,4,5,237.7,0.352
83.25,1,-0.138,-0.431,-0.034,-0.137,-0.438,-0.022,-1.556,-0.434,-0.506,82.28,93.1,40.500851,-3.373871,602.7,4,5,237.7,0.352
83.34,1,-0.048,-0.445,0.007,-0.1,-0.445,-0.017,-1.556,-0.435,-0.506,82.28,93.1,40.500851,-3.373871,602.7,4,5,237.7,0.352
83.44,1,-0.067,-0.448,-0.032,-0.077,-0.445,-0.012,-1.556,-0.435,-0.506,82.28,93.1,40.500851,-3.373871,602.7,4,5,237.7,0.352
83.54,1,-0.122,-0.444,-0.047,-0.088,-0.452,-0.027,-1.556,-0.437,-0.506,83.27,93.3,40.500721,-3.37413,602.4,4,5,237.0,1.055
83.65,1,-0.137,-0.407,0.003,-0.118,-0.427,-0.022,-1.557,-0.438,-0.506,83.27,93.3,40.500721,-3.37413,602.4,4,5,237.0,1.055
83.74,1,-0.085,-0.4,-0.026,-0.117,-0.409,-0.022,-1.557,-0.439,-0.507,83.27,93.3,40.500721,-3.37413,602.4,4,5,237.0,1.055
83.84,1,-0.078,-0.405,-0.01,-0.092,-0.41,-0.011,-1.556,-0.437,-0.507,83.27,93.3,40.500721,-3.37413,602.4,4,5,237.0,1.055
83.94,1,-0.1,-0.431,-0.042,-0.088,-0.412,-0.034,-1.556,-0.435,-0.507,83.27,93.3,40.500721,-3.37413,602.4,4,5,237.0,1.055
84.04,1,-0.11,-0.43,-0.012,-0.097,-0.418,-0.022,-1.557,-0.434,-0.508,83.27,93.3,40.500721,-3.37413,602.4,4,5,237.0,1.055
84.15,1,-0.111,-0.393,-0.023,-0.109,-0.418,-0.022,-1.558,-0.432,-0.508,83.27,93.3,40.500721,-3.37413,602.4,4,5,237.0,1.055
84.24,1,-0.115,-0.43,-0.018,-0.114,-0.418,-0.017,-1.559,-0.43,-0.508,83.27,93.3,40.500721,-3.37413,602.4,4,5,237.0,1.055
84.34,1,-0.103,-0.421,-0.027,-0.108,-0.422,-0.021,-1.559,-0.43,-0.509,83.27,93.3,40.500721,-3.37413,602.4,4,5,237.0,1.055
84.45,1,-0.09,-0.434,-0.021,-0.096,-0.424,-0.021,-1.559,-0.43,-0.509,83.27,93.3,40.500721,-3.37413,602.4,4,5,237.0,1.055
84.54,1,-0.15,-0.415,-0.034,-0.124,-0.421,-0.031,-1.56,-0.43,-0.51,84.27,93.0,40.500591,-3.374394,602.4,4,5,237.3,0.352
84.65,1,-0.078,-0.42,-0.021,-0.11,-0.426,-0.027,-1.56,-0.431,-0.51,84.27,93.0,40.500591,-3.374394,602.4,4,5,237.3,0.352
84.74,1,-0.04,-0.42,0.011,-0.068,-0.423,-0.008,-1.56,-0.432,-0.511,84.27,93.0,40.500591,-3.374394,602.4,4,5,237.3,0.352
84.85,1,-0.066,-0.421,-0.05,-0.061,-0.418,-0.023,-1.558,-0.432,-0.511,84.27,93.0,40.500591,-3.374394,602.4,4,5,237.3,0.352
84.95,1,-0.074,-0.435,-0.031,-0.07,-0.423,-0.031,-1.558,-0.432,-0.511,84.27,93.0,40.500591,-3.374394,602.4,4,5,237.3,0.352
85.05,1,-0.112,-0.44,-0.022,-0.08,-0.433,-0.027,-1.559,-0.432,-0.51,84.27,93.0,40.500591,-3.374394,602.4,4,5,237.3,0.352
85.15,1,-0.18,-0.435,-0.043,-0.133,-0.433,-0.037,-1.559,-0.432,-0.51,84.27,93.0,40.500591,-3.374394,602.4,4,5,237.3,0.352
85.25,1,-0.107,-0.442,-0.037,-0.145,-0.438,-0.035,-1.559,-0.43,-0.509,84.27,93.0,40.500591,-3.374394,602.4,4,5,237.3,0.352
85.35,1,-0.07,-0.463,0.001,-0.099,-0.454,-0.021,-1.56,-0.429,-0.508,84.27,93.0,40.500591,-3.374394,602.4,4,5,237.3,0.352
85.45,1,-0.113,-0.449,-0.033,-0.096,-0.451,-0.025,-1.56,-0.43,-0.508,84.27,93.0,40.500591,-3.374394,602.4,4,5,237.3,0.352
85.56,1,-0.147,-0.432,-0.03,-0.12,-0.444,-0.023,-1.561,-0.429,-0.507,85.33,93.9,40.500469,-3.374652,602.1,4,5,237.3,0.352
85.65,1,-0.089,-0.444,-0.017,-0.118,-0.439,-0.022,-1.56,-0.428,-0.507,85.33,93.9,40.500469,-3.374652,602.1,4,5,237.3,0.352
85.75,1,-0.094,-0.448,-0.028,-0.098,-0.443,-0.025,-1.559,-0.427,-0.506,85.33,93.9,40.500469,-3.374652,602.1,4,5,237.3,0.352
85.85,1,-0.085,-0.459,-0.036,-0.09,-0.453,-0.03,-1.559,-0.426,-0.505,85.33,93.9,40.500469,-3.374652,602.1,4,5,237.3,0.352
85.95,1,-0.072,-0.457,-0.013,-0.083,-0.456,-0.025,-1.559,-0.426,-0.505,85.33,93.9,40.500469,-3.374652,602.1,4,5,237.3,0.352
86.06,1,-0.091,-0.455,-0.033,-0.086,-0.456,-0.024,-1.558,-0.426,-0.504,85.33,93.9,40.500469,-3.374652,602.1,4,5,237.3,0.352
86.16,1,-0.101,-0.45,-0.027,-0.095,-0.453,-0.03,-1.558,-0.427,-0.503,85.33,93.9,40.500469,-3.374652,602.1,4,5,237.3,0.352
86.25,1,-0.111,-0.445,-0.026,-0.099,-0.452,-0.023,-1.558,-0.427,-0.503,85.33,93.9,40.500469,-3.374652,602.1,4,5,237.3,0.352
86.35,1,-0.118,-0.44,-0.03,-0.117,-0.441,-0.035,-1.558,-0.427,-0.502,85.33,93.9,40.500469,-3.374652,602.1,4,5,237.3,0.352
86.45,1,-0.054,-0.438,-0.029,-0.084,-0.439,-0.02,-1.558,-0.428,-0.502,85.33,93.9,40.500469,-3.374652,602.1,4,5,237.3,0.352
86.55,1,-0.09,-0.45,0.011,-0.081,-0.445,-0.014,-1.558,-0.428,-0.501,86.27,93.3,40.500343,-3.374905,601.7,4,5,237.3,0.0
86.66,1,-0.104,-0.445,-0.048,-0.093,-0.448,-0.03,-1.557,-0.428,-0.5,86.27,93.3,40.500343,-3.374905,601.7,4,5,237.3,0.0
86.76,1,-0.068,-0.443,-0.014,-0.083,-0.444,-0.017,-1.557,-0.428,-0.5,86.27,93.3,40.500343,-3.374905,601.7,4,5,237.3,0.0
86.85,1,-0.116,-0.448,-0.032,-0.093,-0.443,-0.026,-1.556,-0.427,-0.499,86.27,93.3,40.500343,-3.374905,601.7,4,5,237.3,0.0
86.95,1,-0.119,-0.457,-0.026,-0.116,-0.45,-0.032,-1.557,-0.428,-0.498,86.27,93.3,40.500343,-3.374905,601.7,4,5,237.3,0.0
87.05,1,-0.082,-0.444,-0.01,-0.095,-0.458,-0.015,-1.557,-0.43,-0.498,86.27,93.3,40.500343,-3.374905,601.7,4,5,237.3,0.0
87.15,1,-0.115,-0.418,-0.028,-0.097,-0.436,-0.018,-1.555,-0.43,-0.497,86.27,93.3,40.500343,-3.374905,601.7,4,5,237.3,0.0
87.26,1,-0.042,-0.443,-0.004,-0.084,-0.428,-0.022,-1.554,-0.428,-0.496,86.27,93.3,40.500343,-3.374905,601.7,4,5,237.3,0.0
87.35,1,-0.082,-0.445,-0.034,-0.074,-0.441,-0.021,-1.555,-0.427,-0.496,86.27,93.3,40.500343,-3.374905,601.7,4,5,237.3,0.0
87.45,1,-0.105,-0.443,-0.027,-0.094,-0.441,-0.022,-1.555,-0.427,-0.495,86.27,93.3,40.500343,-3.374905,601.7,4,5,237.3,0.0
87.55,1,-0.112,-0.451,-0.009,-0.096,-0.444,-0.018,-1.556,-0.427,-0.494,87.27,93.6,40.50021,-3.375167,601.6,4,5,237.3,0.0
87.65,1,-0.102,-0.429,-0.029,-0.108,-0.439,-0.026,-1.556,-0.428,-0.494,87.27,93.6,40.50021,-3.375167,601.6,4,5,237.3,0.0
87.76,1,-0.104,-0.423,-0.027,-0.099,-0.43,-0.023,-1.555,-0.429,-0.493,87.27,93.6,40.50021,-3.375167,601.6,4,5,237.3,0.0
87.87,1,-0.083,-0.46,-0.006,-0.098,-0.441,-0.02,-1.556,-0.429,-0.492,87.27,93.6,40.50021,-3.375167,601.6,4,5,237.3,0.0
87.96,1,-0.084,-0.443,-0.014,-0.096,-0.45,-0.017,-1.555,-0.431,-0.492,87.27,93.6,40.50021,-3.375167,601.6,4,5,237.3,0.0
88.06,1,-0.07,-0.434,-0.006,-0.073,-0.439,-0.008,-1.555,-0.431,-0.491,87.27,93.6,40.50021,-3.375167,601.6,4,5,237.3,0.0
88.16,1,-0.122,-0.445,-0.001,-0.094,-0.443,-0.009,-1.554,-0.43,-0.491,87.27,93.6,40.50021,-3.375167,601.6,4,5,237.3,0.0
88.26,1,-0.053,-0.469,-0.044,-0.088,-0.457,-0.022,-1.554,-0.431,-0.49,87.27,93.6,40.50021,-3.375167,601.6,4,5,237.3,0.0
88.36,1,-0.1,-0.441,-0.031,-0.077,-0.452,-0.023,-1.554,-0.431,-0.49,87.27,93.6,40.50021,-3.375167,601.6,4,5,237.3,0.0
88.47,1,-0.152,-0.445,-0.029,-0.122,-0.444,-0.027,-1.553,-0.431,-0.49,87.27,93.6,40.50021,-3.375167,601.6,4,5,237.3,0.0
88.57,1,-0.058,-0.466,-0.006,-0.094,-0.453,-0.021,-1.554,-0.43,-0.489,88.28,92.6,40.500084,-3.375414,601.0,4,5,237.0,0.352
88.66,1,-0.118,-0.421,-0.019,-0.097,-0.445,-0.018,-1.555,-0.43,-0.49,88.28,92.6,40.500084,-3.375414,601.0,4,5,237.0,0.352
88.76,1,-0.146,-0.416,-0.002,-0.124,-0.43,-0.015,-1.555,-0.43,-0.49,88.28,92.6,40.500084,-3.375414,601.0,4,5,237.0,0.352
88.86,1,-0.115,-0.43,-0.035,-0.122,-0.422,-0.019,-1.555,-0.43,-0.491,88.28,92.6,40.500084,-3.375414,601.0,4,5,237.0,0.352
88.97,1,-0.031,-0.434,0.015,-0.083,-0.433,-0.004,-1.556,-0.43,-0.492,88.28,92.6,40.500084,-3.375414,601.0,4,5,237.0,0.352
89.07,1,-0.085,-0.418,-0.027,-0.072,-0.424,-0.009,-1.555,-0.43,-0.492,88.28,92.6,40.500084,-3.375414,601.0,4,5,237.0,0.352
89.16,1,-0.097,-0.429,-0.037,-0.089,-0.422,-0.024,-1.554,-0.431,-0.493,88.28,92.6,40.500084,-3.375414,601.0,4,5,237.0,0.352
89.26,1,-0.058,-0.434,0.001,-0.082,-0.428,-0.023,-1.555,-0.432,-0.493,88.28,92.6,40.500084,-3.375414,601.0,4,5,237.0,0.352
89.36,1,-0.159,-0.395,-0.051,-0.098,-0.419,-0.022,-1.556,-0.433,-0.493,88.28,92.6,40.500084,-3.375414,601.0,4,5,237.0,0.352
89.46,1,-0.179,-0.429,-0.016,-0.153,-0.414,-0.027,-1.556,-0.432,-0.493,88.28,92.6,40.500084,-3.375414,601.0,4,5,237.0,0.352
89.56,1,-0.089,-0.437,-0.009,-0.136,-0.429,-0.02,-1.557,-0.431,-0.493,89.31,92.4,40.499958,-3.375657,601.0,4,5,236.2,1.055
89.66,1,-0.053,-0.444,-0.024,-0.083,-0.439,-0.018,-1.557,-0.43,-0.494,89.31,92.4,40.499958,-3.375657,601.0,4,5,236.2,1.055
89.76,1,-0.092,-0.441,-0.021,-0.083,-0.441,-0.018,-1.556,-0.429,-0.494,89.31,92.4,40.499958,-3.375657,601.0,4,5,236.2,1.055
89.86,1,-0.054,-0.456,-0.031,-0.069,-0.447,-0.024,-1.555,-0.43,-0.495,89.31,92.4,40.499958,-3.375657,601.0,4,5,236.2,1.055
89.96,1,-0.1,-0.437,-0.022,-0.08,-0.444,-0.026,-1.555,-0.431,-0.495,89.31,92.4,40.499958,-3.375657,601.0,4,5,236.2,1.055
90.06,1,-0.112,-0.433,-0.024,-0.098,-0.438,-0.026,-1.556,-0.432,-0.496,89.31,92.4,40.499958,-3.375657,601.0,4,5,236.2,1.055
90.17,1,-0.113,-0.413,-0.019,-0.107,-0.429,-0.023,-1.556,-0.432,-0.496,89.31,92.4,40.499958,-3.375657,601.0,4,5,236.2,1.055
90.27,1,-0.105,-0.425,-0.015,-0.11,-0.418,-0.021,-1.557,-0.43,-0.497,89.31,92.4,40.499958,-3.375657,601.0,4,5,236.2,1.055
90.36,1,-0.089,-0.465,-0.029,-0.101,-0.443,-0.018,-1.557,-0.428,-0.497,89.31,92.4,40.499958,-3.375657,601.0,4,5,236.2,1.055
90.46,1,-0.052,-0.459,-0.01,-0.082,-0.454,-0.02,-1.558,-0.428,-0.497,89.31,92.4,40.499958,-3.375657,601.0,4,5,236.2,1.055
90.56,1,-0.119,-0.428,-0.025,-0.084,-0.444,-0.02,-1.557,-0.429,-0.498,90.26,92.9,40.499828,-3.375917,600.5,4,5,237.0,0.703
90.67,1,-0.137,-0.415,-0.032,-0.119,-0.429,-0.032,-1.558,-0.43,-0.498,90.26,92.9,40.499828,-3.375917,600.5,4,5,237.0,0.703
90.78,1,-0.089,-0.414,-0.008,-0.108,-0.418,-0.014,-1.558,-0.431,-0.498,90.26,92.9,40.499828,-3.375917,600.5,4,5,237.0,0.703
90.88,1,-0.093,-0.432,-0.03,-0.097,-0.423,-0.019,-1.558,-0.431,-0.498,90.26,92.9,40.499828,-3.375917,600.5,4,5,237.0,0.703
90.98,1,-0.125,-0.449,-0.055,-0.107,-0.435,-0.037,-1.559,-0.431,-0.498,90.26,92.9,40.499828,-3.375917,600.5,4,5,237.0,0.703
91.07,1,-0.089,-0.441,0.021,-0.104,-0.441,-0.023,-1.562,-0.433,-0.499,90.26,92.9,40.499828,-3.375917,600.5,4,5,237.0,0.703
91.17,1,-0.045,-0.408,-0.038,-0.075,-0.434,-0.011,-1.56,-0.435,-0.499,90.26,92.9,40.499828,-3.375917,600.5,4,5,237.0,0.703
91.27,1,-0.068,-0.435,-0.048,-0.067,-0.424,-0.036,-1.559,-0.433,-0.499,90.26,92.9,40.499828,-3.375917,600.5,4,5,237.0,0.703
91.37,1,-0.101,-0.452,-0.018,-0.088,-0.437,-0.036,-1.56,-0.431,-0.498,90.26,92.9,40.499828,-3.375917,600.5,4,5,237.0,0.703
91.48,1,-0.153,-0.446,-0.016,-0.109,-0.443,-0.02,-1.56,-0.43,-0.498,90.26,92.9,40.499828,-3.375917,600.5,4,5,237.0,0.703
91.57,1,-0.087,-0.467,-0.023,-0.12,-0.454,-0.016,-1.559,-0.431,-0.497,91.27,92.2,40.499702,-3.376163,600.5,4,5,237.3,1.055
91.67,1,-0.011,-0.468,-0.018,-0.063,-0.465,-0.023,-1.557,-0.432,-0.497,91.27,92.2,40.499702,-3.376163,600.5,4,5,237.3,1.055
91.77,1,-0.092,-0.428,-0.049,-0.061,-0.449,-0.037,-1.556,-0.433,-0.497,91.27,92.2,40.499702,-3.376163,600.5,4,5,237.3,1.055
91.87,1,-0.139,-0.426,-0.031,-0.103,-0.43,-0.033,-1.557,-0.431,-0.497,91.27,92.2,40.499702,-3.376163,600.5,4,5,237.3,1.055
91.97,1,-0.097,-0.477,-0.027,-0.111,-0.45,-0.031,-1.556,-0.43,-0.496,91.27,92.2,40.499702,-3.376163,600.5,4,5,237.3,1.055
92.08,1,-0.126,-0.468,-0.067,-0.105,-0.461,-0.041,-1.556,-0.431,-0.496,91.27,92.2,40.499702,-3.376163,600.5,4,5,237.3,1.055
92.17,1,-0.159,-0.45,-0.013,-0.129,-0.464,-0.047,-1.558,-0.433,-0.497,91.27,92.2,40.499702,-3.376163,600.5,4,5,237.3,1.055
92.27,1,-0.147,-0.366,-0.068,-0.14,-0.417,-0.041,-1.558,-0.435,-0.497,91.27,92.2,40.499702,-3.376163,600.5,4,5,237.3,1.055
92.37,1,-0.12,-0.456,-0.028,-0.141,-0.423,-0.036,-1.558,-0.434,-0.496,91.27,92.2,40.499702,-3.376163,600.5,4,5,237.3,1.055
92.47,1,-0.059,-0.468,-0.01,-0.106,-0.454,-0.025,-1.558,-0.433,-0.496,91.27,92.2,40.499702,-3.376163,600.5,4,5,237.3,1.055
92.57,1,-0.046,-0.459,-0.038,-0.065,-0.462,-0.025,-1.559,-0.435,-0.496,92.27,92.0,40.499577,-3.376419,600.8,4,5,237.3,0.352
92.68,1,-0.101,-0.435,0.002,-0.08,-0.444,-0.018,-1.558,-0.436,-0.496,92.27,92.0,40.499577,-3.376419,600.8,4,5,237.3,0.352
92.78,1,-0.107,-0.44,-0.022,-0.096,-0.437,-0.019,-1.557,-0.436,-0.496,92.27,92.0,40.499577,-3.376419,600.8,4,5,237.3,0.352
92.88,1,-0.093,-0.446,-0.048,-0.097,-0.447,-0.029,-1.558,-0.437,-0.497,92.27,92.0,40.499577,-3.376419,600.8,4,5,237.3,0.352
92.97,1,-0.111,-0.428,0.001,-0.105,-0.44,-0.024,-1.559,-0.438,-0.497,92.27,92.0,40.499577,-3.376419,600.8,4,5,237.3,0.352
93.07,1,-0.086,-0.42,-0.015,-0.098,-0.427,-0.013,-1.559,-0.438,-0.497,92.27,92.0,40.499577,-3.376419,600.8,4,5,237.3,0.352
93.17,1,-0.103,-0.439,-0.036,-0.102,-0.43,-0.017,-1.558,-0.438,-0.497,92.27,92.0,40.499577,-3.376419,600.8,4,5,237.3,0.352
93.28,1,-0.094,-0.443,-0.033,-0.089,-0.438,-0.034,-1.558,-0.438,-0.497,92.27,92.0,40.499577,-3.376419,600.8,4,5,237.3,0.352
93.38,1,-0.138,-0.467,-0.055,-0.109,-0.451,-0.04,-1.558,-0.437,-0.496,92.27,92.0,40.499577,-3.376419,600.8,4,5,237.3,0.352
93.47,1,-0.113,-0.477,-0.056,-0.127,-0.465,-0.052,-1.558,-0.436,-0.495,92.27,92.0,40.499577,-3.376419,600.8,4,5,237.3,0.352
93.57,1,-0.053,-0.455,-0.057,-0.086,-0.463,-0.053,-1.557,-0.439,-0.495,93.27,92.8,40.499443,-3.376678,600.3,4,5,237.0,0.352
93.68,1,-0.082,-0.385,-0.038,-0.081,-0.435,-0.055,-1.558,-0.442,-0.496,93.27,92.8,40.499443,-3.376678,600.3,4,5,237.0,0.352
93.78,1,-0.083,-0.391,-0.043,-0.079,-0.404,-0.044,-1.559,-0.443,-0.498,93.27,92.8,40.499443,-3.376678,600.3,4,5,237.0,0.352
93.89,1,-0.11,-0.387,-0.065,-0.093,-0.39,-0.051,-1.559,-0.443,-0.5,93.27,92.8,40.499443,-3.376678,600.3,4,5,237.0,0.352
93.98,1,-0.088,-0.425,-0.088,-0.097,-0.406,-0.06,-1.559,-0.442,-0.5,93.27,92.8,40.499443,-3.376678,600.3,4,5,237.0,0.352
94.08,1,-0.067,-0.487,-0.358,-0.08,-0.438,-0.18,-1.556,-0.438,-0.5,93.27,92.8,40.499443,-3.376678,600.3,4,5,237.0,0.352
94.18,1,-0.086,-0.561,-0.423,-0.075,-0.5,-0.342,-1.551,-0.434,-0.497,93.27,92.8,40.499443,-3.376678,600.3,4,5,237.0,0.352
94.28,1,-0.152,-0.551,-0.18,-0.111,-0.539,-0.301,-1.548,-0.433,-0.491,93.27,92.8,40.499443,-3.376678,600.3,4,5,237.0,0.352
94.38,1,-0.115,-0.544,-0.039,-0.126,-0.541,-0.151,-1.55,-0.434,-0.487,93.27,92.8,40.499443,-3.376678,600.3,4,5,237.0,0.352
94.49,1,-0.053,-0.562,-0.048,-0.093,-0.548,-0.088,-1.55,-0.433,-0.482,93.27,92.8,40.499443,-3.376678,600.3,4,5,237.0,0.352
94.59,1,-0.087,-0.58,-0.048,-0.079,-0.566,-0.06,-1.55,-0.431,-0.476,94.27,91.7,40.499317,-3.376942,599.8,4,5,237.0,0.352
94.68,1,-0.12,-0.606,-0.051,-0.098,-0.586,-0.055,-1.547,-0.429,-0.469,94.27,91.7,40.499317,-3.376942,599.8,4,5,237.0,0.352
94.78,1,-0.098,-0.617,-0.011,-0.101,-0.604,-0.039,-1.544,-0.426,-0.461,94.27,91.7,40.499317,-3.376942,599.8,4,5,237.0,0.352
94.88,1,-0.079,-0.618,-0.022,-0.099,-0.615,-0.025,-1.541,-0.425,-0.453,94.27,91.7,40.499317,-3.376942,599.8,4,5,237.0,0.352
94.98,1,-0.078,-0.586,-0.04,-0.083,-0.601,-0.027,-1.537,-0.424,-0.446,94.27,91.7,40.499317,-3.376942,599.8,4,5,237.0,0.352
95.08,1,-0.046,-0.533,-0.038,-0.066,-0.576,-0.036,-1.534,-0.427,-0.442,94.27,91.7,40.499317,-3.376942,599.8,4,5,237.0,0.352
95.18,1,-0.084,-0.473,-0.038,-0.064,-0.522,-0.036,-1.533,-0.43,-0.44,94.27,91.7,40.499317,-3.376942,599.8,4,5,237.0,0.352
95.28,1,-0.153,-0.454,-0.041,-0.115,-0.477,-0.043,-1.535,-0.433,-0.439,94.27,91.7,40.499317,-3.376942,599.8,4,5,237.0,0.352
95.38,1,-0.128,-0.452,-0.022,-0.126,-0.466,-0.028,-1.537,-0.434,-0.438,94.27,91.7,40.499317,-3.376942,599.8,4,5,237.0,0.352
95.48,1,-0.05,-0.423,-0.014,-0.092,-0.441,-0.019,-1.535,-0.433,-0.438,94.27,91.7,40.499317,-3.376942,599.8,4,5,237.0,0.352
95.59,1,-0.086,-0.436,-0.048,-0.076,-0.439,-0.033,-1.534,-0.431,-0.437,95.36,87.7,40.499195,-3.377183,599.6,4,5,236.2,0.703
95.7,1,-0.133,-0.445,-0.058,-0.106,-0.449,-0.053,-1.536,-0.431,-0.438,95.36,87.7,40.499195,-3.377183,599.6,4,5,236.2,0.703
95.79,1,-0.101,-0.38,-0.019,-0.113,-0.418,-0.038,-1.54,-0.435,-0.442,95.36,87.7,40.499195,-3.377183,599.6,4,5,236.2,0.703
95.89,1,-0.082,-0.351,-0.034,-0.093,-0.381,-0.029,-1.54,-0.437,-0.446,95.36,87.7,40.499195,-3.377183,599.6,4,5,236.2,0.703
95.98,1,-0.093,-0.361,-0.066,-0.087,-0.365,-0.047,-1.541,-0.438,-0.449,95.36,87.7,40.499195,-3.377183,599.6,4,5,236.2,0.703
96.08,1,-0.118,-0.361,-0.053,-0.107,-0.359,-0.055,-1.542,-0.438,-0.453,95.36,87.7,40.499195,-3.377183,599.6,4,5,236.2,0.703
96.19,1,-0.113,-0.346,-0.057,-0.11,-0.358,-0.049,-1.544,-0.438,-0.456,95.36,87.7,40.499195,-3.377183,599.6,4,5,236.2,0.703
96.29,1,-0.097,-0.37,-0.044,-0.105,-0.361,-0.055,-1.546,-0.437,-0.459,95.36,87.7,40.499195,-3.377183,599.6,4,5,236.2,0.703
96.38,1,-0.091,-0.363,-0.06,-0.105,-0.36,-0.054,-1.548,-0.437,-0.463,95.36,87.7,40.499195,-3.377183,599.6,4,5,236.2,0.703
96.48,1,-0.073,-0.397,-0.036,-0.085,-0.376,-0.051,-1.548,-0.437,-0.466,95.36,87.7,40.499195,-3.377183,599.6,4,5,236.2,0.703
96.59,1,-0.064,-0.386,-0.074,-0.069,-0.385,-0.056,-1.548,-0.437,-0.469,96.28,86.1,40.499073,-3.377423,599.0,4,5,233.8,3.164
96.69,1,-0.102,-0.403,-0.043,-0.083,-0.388,-0.049,-1.549,-0.438,-0.471,96.28,86.1,40.499073,-3.377423,599.0,4,5,233.8,3.164
96.79,1,-0.159,-0.386,-0.058,-0.117,-0.394,-0.056,-1.551,-0.439,-0.473,96.28,86.1,40.499073,-3.377423,599.0,4,5,233.8,3.164
96.89,1,-0.132,-0.427,-0.02,-0.135,-0.407,-0.044,-1.554,-0.439,-0.475,96.28,86.1,40.499073,-3.377423,599.0,4,5,233.8,3.164
96.99,1,-0.084,-0.419,-0.019,-0.112,-0.415,-0.023,-1.556,-0.438,-0.477,96.28,86.1,40.499073,-3.377423,599.0,4,5,233.8,3.164
97.09,1,-0.089,-0.426,-0.027,-0.1,-0.419,-0.027,-1.557,-0.438,-0.478,96.28,86.1,40.499073,-3.377423,599.0,4,5,233.8,3.164
97.19,1,-0.082,-0.436,-0.049,-0.087,-0.429,-0.036,-1.556,-0.438,-0.479,96.28,86.1,40.499073,-3.377423,599.0,4,5,233.8,3.164
97.29,1,-0.1,-0.41,-0.036,-0.091,-0.421,-0.037,-1.557,-0.44,-0.48,96.28,86.1,40.499073,-3.377423,599.0,4,5,233.8,3.164
97.39,1,-0.102,-0.396,-0.042,-0.102,-0.411,-0.047,-1.557,-0.44,-0.481,96.28,86.1,40.499073,-3.377423,599.0,4,5,233.8,3.164
97.5,1,-0.076,-0.44,-0.048,-0.091,-0.415,-0.044,-1.558,-0.438,-0.482,96.28,86.1,40.499073,-3.377423,599.0,4,5,233.8,3.164
97.59,1,-0.081,-0.46,-0.043,-0.082,-0.444,-0.039,-1.557,-0.436,-0.482,97.27,84.6,40.498951,-3.377643,598.9,4,5,235.2,1.406
97.69,1,-0.114,-0.448,-0.069,-0.09,-0.447,-0.054,-1.557,-0.437,-0.483,97.27,84.6,40.498951,-3.377643,598.9,4,5,235.2,1.406
97.79,1,-0.123,-0.416,-0.017,-0.119,-0.432,-0.039,-1.559,-0.439,-0.484,97.27,84.6,40.498951,-3.377643,598.9,4,5,235.2,1.406
97.89,1,-0.133,-0.404,-0.045,-0.122,-0.421,-0.039,-1.56,-0.439,-0.484,97.27,84.6,40.498951,-3.377643,598.9,4,5,235.2,1.406
97.99,1,-0.141,-0.448,-0.05,-0.126,-0.43,-0.049,-1.561,-0.437,-0.484,97.27,84.6,40.498951,-3.377643,598.9,4,5,235.2,1.406
98.09,1,-0.098,-0.424,-0.043,-0.132,-0.429,-0.049,-1.561,-0.435,-0.485,97.27,84.6,40.498951,-3.377643,598.9,4,5,235.2,1.406
98.19,1,-0.036,-0.435,-0.048,-0.078,-0.434,-0.039,-1.561,-0.434,-0.485,97.27,84.6,40.498951,-3.377643,598.9,4,5,235.2,1.406
98.29,1,-0.051,-0.45,-0.015,-0.053,-0.438,-0.035,-1.561,-0.433,-0.486,97.27,84.6,40.498951,-3.377643,598.9,4,5,235.2,1.406
98.39,1,-0.09,-0.426,-0.043,-0.069,-0.438,-0.038,-1.562,-0.432,-0.487,97.27,84.6,40.498951,-3.377643,598.9,4,5,235.2,1.406
98.49,1,-0.1,-0.444,-0.021,-0.086,-0.436,-0.028,-1.561,-0.432,-0.487,97.27,84.6,40.498951,-3.377643,598.9,4,5,235.2,1.406
98.59,1,-0.106,-0.447,-0.026,-0.095,-0.446,-0.025,-1.561,-0.432,-0.488,98.27,83.6,40.49884,-3.377853,598.4,4,5,235.9,2.109
98.7,1,-0.109,-0.453,-0.064,-0.111,-0.444,-0.047,-1.561,-0.432,-0.488,98.27,83.6,40.49884,-3.377853,598.4,4,5,235.9,2.109
98.8,1,-0.077,-0.43,-0.021,-0.093,-0.443,-0.029,-1.562,-0.433,-0.488,98.27,83.6,40.49884,-3.377853,598.4,4,5,235.9,2.109
98.89,1,-0.118,-0.447,-0.051,-0.095,-0.437,-0.035,-1.563,-0.433,-0.489,98.27,83.6,40.49884,-3.377853,598.4,4,5,235.9,2.109
98.99,1,-0.172,-0.431,-0.025,-0.135,-0.438,-0.039,-1.564,-0.432,-0.489,98.27,83.6,40.49884,-3.377853,598.4,4,5,235.9,2.109
99.09,1,-0.083,-0.446,-0.031,-0.12,-0.44,-0.032,-1.565,-0.432,-0.489,98.27,83.6,40.49884,-3.377853,598.4,4,5,235.9,2.109
99.19,1,-0.086,-0.44,-0.019,-0.094,-0.442,-0.023,-1.565,-0.432,-0.489,98.27,83.6,40.49884,-3.377853,598.4,4,5,235.9,2.109
99.3,1,-0.08,-0.446,-0.04,-0.093,-0.444,-0.035,-1.565,-0.432,-0.489,98.27,83.6,40.49884,-3.377853,598.4,4,5,235.9,2.109
99.39,1,-0.092,-0.446,-0.058,-0.091,-0.447,-0.045,-1.565,-0.432,-0.49,98.27,83.6,40.49884,-3.377853,598.4,4,5,235.9,2.109
99.49,1,-0.102,-0.44,-0.023,-0.093,-0.445,-0.04,-1.565,-0.433,-0.49,98.27,83.6,40.49884,-3.377853,598.4,4,5,235.9,2.109
99.6,1,-0.114,-0.427,-0.027,-0.102,-0.432,-0.026,-1.566,-0.433,-0.49,99.27,83.4,40.498726,-3.378078,598.2,4,5,236.2,1.055
99.7,1,-0.079,-0.462,-0.033,-0.096,-0.447,-0.035,-1.565,-0.432,-0.491,99.27,83.4,40.498726,-3.378078,598.2,4,5,236.2,1.055
99.8,1,-0.069,-0.451,-0.017,-0.075,-0.45,-0.017,-1.564,-0.432,-0.491,99.27,83.4,40.498726,-3.378078,598.2,4,5,236.2,1.055
99.9,1,-0.119,-0.438,-0.01,-0.101,-0.442,-0.021,-1.565,-0.433,-0.491,99.27,83.4,40.498726,-3.378078,598.2,4,5,236.2,1.055
100.0,1,-0.081,-0.434,-0.026,-0.1,-0.439,-0.026,-1.565,-0.435,-0.491,99.27,83.4,40.498726,-3.378078,598.2,4,5,236.2,1.055
100.1,1,-0.084,-0.426,-0.025,-0.087,-0.436,-0.016,-1.565,-0.435,-0.491,99.27,83.4,40.498726,-3.378078,598.2,4,5,236.2,1.055
100.2,1,-0.092,-0.44,-0.003,-0.086,-0.434,-0.017,-1.565,-0.435,-0.491,99.27,83.4,40.498726,-3.378078,598.2,4,5,236.2,1.055
100.3,1,-0.087,-0.454,-0.025,-0.079,-0.446,-0.022,-1.565,-0.435,-0.491,99.27,83.4,40.498726,-3.378078,598.2,4,5,236.2,1.055
100.4,1,-0.096,-0.442,-0.028,-0.097,-0.442,-0.016,-1.564,-0.435,-0.491,99.27,83.4,40.498726,-3.378078,598.2,4,5,236.2,1.055
100.5,1,-0.055,-0.457,0.007,-0.077,-0.452,-0.013,-1.564,-0.435,-0.492,99.27,83.4,40.498726,-3.378078,598.2,4,5,236.2,1.055
100.6,1,-0.11,-0.428,0.003,-0.084,-0.441,-0.005,-1.565,-0.435,-0.492,100.27,82.7,40.498619,-3.378301,598.0,4,5,235.9,0.352
100.7,1,-0.121,-0.427,-0.007,-0.107,-0.436,-0.004,-1.566,-0.435,-0.492,100.27,82.7,40.498619,-3.378301,598.0,4,5,235.9,0.352
100.8,1,-0.081,-0.436,-0.034,-0.096,-0.433,-0.02,-1.566,-0.434,-0.493,100.27,82.7,40.498619,-3.378301,598.0,4,5,235.9,0.352
100.9,1,-0.092,-0.441,0.012,-0.094,-0.436,-0.005,-1.566,-0.435,-0.493,100.27,82.7,40.498619,-3.378301,598.0,4,5,235.9,0.352
101.0,1,-0.119,-0.425,-0.021,-0.103,-0.433,-0.013,-1.566,-0.435,-0.493,100.27,82.7,40.498619,-3.378301,598.0,4,5,235.9,0.352
101.1,1,-0.101,-0.453,0.0,-0.108,-0.439,-0.003,-1.567,-0.435,-0.493,100.27,82.7,40.498619,-3.378301,598.0,4,5,235.9,0.352
101.2,1,-0.129,-0.456,-0.008,-0.113,-0.448,-0.012,-1.568,-0.435,-0.494,100.27,82.7,40.498619,-3.378301,598.0,4,5,235.9,0.352
101.3,1,-0.123,-0.431,-0.025,-0.125,-0.442,-0.013,-1.569,-0.436,-0.494,100.27,82.7,40.498619,-3.378301,598.0,4,5,235.9,0.352
101.4,1,-0.111,-0.42,-0.038,-0.117,-0.431,-0.025,-1.569,-0.435,-0.495,100.27,82.7,40.498619,-3.378301,598.0,4,5,235.9,0.352
101.5,1,-0.062,-0.441,0.008,-0.092,-0.434,-0.016,-1.569,-0.435,-0.495,100.27,82.7,40.498619,-3.378301,598.0,4,5,235.9,0.352
101.61,1,-0.095,-0.446,-0.047,-0.089,-0.441,-0.025,-1.569,-0.436,-0.496,101.25,82.8,40.498501,-3.378536,598.1,4,5,236.2,0.352
101.71,1,-0.099,-0.444,0.02,-0.093,-0.446,-0.007,-1.57,-0.438,-0.496,101.25,82.8,40.498501,-3.378536,598.1,4,5,236.2,0.352
101.8,1,-0.093,-0.421,-0.016,-0.099,-0.431,-0.01,-1.57,-0.439,-0.497,101.25,82.8,40.498501,-3.378536,598.1,4,5,236.2,0.352
101.9,1,-0.067,-0.423,-0.013,-0.082,-0.422,-0.006,-1.569,-0.438,-0.497,101.25,82.8,40.498501,-3.378536,598.1,4,5,236.2,0.352
102.0,1,-0.089,-0.435,0.014,-0.08,-0.431,-0.009,-1.569,-0.435,-0.497,101.25,82.8,40.498501,-3.378536,598.1,4,5,236.2,0.352
102.1,1,-0.119,-0.466,-0.021,-0.104,-0.446,-0.006,-1.569,-0.433,-0.496,101.25,82.8,40.498501,-3.378536,598.1,4,5,236.2,0.352
102.2,1,-0.101,-0.47,-0.015,-0.095,-0.462,-0.011,-1.569,-0.432,-0.497,101.25,82.8,40.498501,-3.378536,598.1,4,5,236.2,0.352
102.31,1,-0.12,-0.437,-0.017,-0.112,-0.45,-0.014,-1.569,-0.433,-0.497,101.25,82.8,40.498501,-3.378536,598.1,4,5,236.2,0.352
102.41,1,-0.106,-0.453,-0.031,-0.119,-0.448,-0.023,-1.57,-0.434,-0.497,101.25,82.8,40.498501,-3.378536,598.1,4,5,236.2,0.352
102.5,1,-0.076,-0.439,-0.0,-0.09,-0.449,-0.014,-1.57,-0.435,-0.498,101.25,82.8,40.498501,-3.378536,598.1,4,5,236.2,0.352
102.61,1,-0.112,-0.447,-0.005,-0.1,-0.444,-0.007,-1.57,-0.435,-0.498,102.27,83.3,40.498383,-3.378764,598.4,4,5,236.2,0.352
102.71,1,-0.151,-0.442,-0.023,-0.119,-0.441,-0.007,-1.57,-0.435,-0.498,102.27,83.3,40.498383,-3.378764,598.4,4,5,236.2,0.352
102.81,1,-0.091,-0.446,0.011,-0.115,-0.448,-0.009,-1.571,-0.436,-0.498,102.27,83.3,40.498383,-3.378764,598.4,4,5,236.2,0.352
102.91,1,-0.075,-0.443,-0.017,-0.096,-0.442,-0.006,-1.57,-0.436,-0.498,102.27,83.3,40.498383,-3.378764,598.4,4,5,236.2,0.352
103.01,1,-0.11,-0.428,-0.012,-0.093,-0.438,-0.008,-1.57,-0.436,-0.498,102.27,83.3,40.498383,-3.378764,598.4,4,5,236.2,0.352
103.11,1,-0.122,-0.446,-0.011,-0.111,-0.442,-0.017,-1.57,-0.435,-0.498,102.27,83.3,40.498383,-3.378764,598.4,4,5,236.2,0.352
103.21,1,-0.095,-0.446,0.017,-0.107,-0.443,0.001,-1.57,-0.435,-0.498,102.27,83.3,40.498383,-3.378764,598.4,4,5,236.2,0.352
103.31,1,-0.091,-0.463,-0.005,-0.099,-0.449,0.003,-1.57,-0.436,-0.498,102.27,83.3,40.498383,-3.378764,598.4,4,5,236.2,0.352
103.41,1,-0.107,-0.448,-0.01,-0.098,-0.451,-0.003,-1.57,-0.436,-0.498,102.27,83.3,40.498383,-3.378764,598.4,4,5,236.2,0.352
103.52,1,-0.113,-0.437,-0.01,-0.102,-0.445,-0.007,-1.569,-0.437,-0.498,102.27,83.3,40.498383,-3.378764,598.4,4,5,236.2,0.352
103.62,1,-0.141,-0.441,-0.009,-0.125,-0.446,-0.013,-1.569,-0.436,-0.497,103.27,83.8,40.498264,-3.378985,598.3,4,5,236.2,0.0
103.71,1,-0.125,-0.445,-0.019,-0.131,-0.441,-0.01,-1.57,-0.436,-0.497,103.27,83.8,40.498264,-3.378985,598.3,4,5,236.2,0.0
103.81,1,-0.103,-0.432,0.009,-0.117,-0.442,-0.012,-1.571,-0.436,-0.497,103.27,83.8,40.498264,-3.378985,598.3,4,5,236.2,0.0
103.91,1,-0.107,-0.442,0.001,-0.111,-0.435,0.004,-1.571,-0.435,-0.497,103.27,83.8,40.498264,-3.378985,598.3,4,5,236.2,0.0
104.01,1,-0.074,-0.435,0.014,-0.097,-0.435,0.003,-1.57,-0.435,-0.497,103.27,83.8,40.498264,-3.378985,598.3,4,5,236.2,0.0
104.12,1,-0.074,-0.435,-0.007,-0.079,-0.438,0.007,-1.569,-0.435,-0.497,103.27,83.8,40.498264,-3.378985,598.3,4,5,236.2,0.0
104.21,1,-0.101,-0.449,-0.026,-0.08,-0.442,-0.01,-1.569,-0.435,-0.497,103.27,83.8,40.498264,-3.378985,598.3,4,5,236.2,0.0
104.31,1,-0.142,-0.446,0.004,-0.117,-0.441,-0.009,-1.569,-0.435,-0.497,103.27,83.8,40.498264,-3.378985,598.3,4,5,236.2,0.0
104.41,1,-0.132,-0.42,0.011,-0.129,-0.436,0.003,-1.57,-0.435,-0.497,103.27,83.8,40.498264,-3.378985,598.3,4,5,236.2,0.0
104.52,1,-0.084,-0.415,0.028,-0.114,-0.423,0.011,-1.57,-0.435,-0.497,103.27,83.8,40.498264,-3.378985,598.3,4,5,236.2,0.0
104.62,1,-0.082,-0.436,-0.026,-0.088,-0.429,0.002,-1.569,-0.434,-0.497,104.27,84.3,40.498146,-3.379208,598.2,4,5,236.2,0.0
104.71,1,-0.126,-0.446,-0.007,-0.104,-0.433,-0.006,-1.569,-0.433,-0.497,104.27,84.3,40.498146,-3.379208,598.2,4,5,236.2,0.0
104.81,1,-0.123,-0.439,-0.005,-0.124,-0.444,-0.009,-1.57,-0.434,-0.497,104.27,84.3,40.498146,-3.379208,598.2,4,5,236.2,0.0
104.91,1,-0.066,-0.436,0.02,-0.099,-0.437,0.004,-1.571,-0.434,-0.498,104.27,84.3,40.498146,-3.379208,598.2,4,5,236.2,0.0
105.01,1,-0.104,-0.43,-0.003,-0.088,-0.438,0.002,-1.57,-0.433,-0.498,104.27,84.3,40.498146,-3.379208,598.2,4,5,236.2,0.0
105.12,1,-0.072,-0.446,0.003,-0.085,-0.436,0.005,-1.569,-0.433,-0.498,104.27,84.3,40.498146,-3.379208,598.2,4,5,236.2,0.0
105.21,1,-0.09,-0.446,-0.017,-0.086,-0.442,-0.005,-1.569,-0.432,-0.497,104.27,84.3,40.498146,-3.379208,598.2,4,5,236.2,0.0
105.32,1,-0.106,-0.44,0.009,-0.096,-0.44,-0.001,-1.569,-0.432,-0.497,104.27,84.3,40.498146,-3.379208,598.2,4,5,236.2,0.0
105.42,1,-0.099,-0.434,0.003,-0.1,-0.438,-0.001,-1.57,-0.433,-0.498,104.27,84.3,40.498146,-3.379208,598.2,4,5,236.2,0.0
105.52,1,-0.091,-0.416,-0.011,-0.095,-0.427,0.001,-1.569,-0.434,-0.498,104.27,84.3,40.498146,-3.379208,598.2,4,5,236.2,0.0
105.62,1,-0.084,-0.425,0.002,-0.089,-0.423,-0.001,-1.569,-0.433,-0.499,105.25,85.1,40.498028,-3.379428,598.5,4,5,235.9,0.352
105.72,1,-0.111,-0.425,0.005,-0.1,-0.43,0.0,-1.569,-0.433,-0.5,105.25,85.1,40.498028,-3.379428,598.5,4,5,235.9,0.352
105.82,1,-0.123,-0.465,-0.014,-0.111,-0.445,-0.006,-1.569,-0.435,-0.5,105.25,85.1,40.498028,-3.379428,598.5,4,5,235.9,0.352
105.92,1,-0.097,-0.439,0.025,-0.102,-0.444,0.007,-1.571,-0.437,-0.501,105.25,85.1,40.498028,-3.379428,598.5,4,5,235.9,0.352
106.02,1,-0.113,-0.411,0.013,-0.106,-0.431,0.013,-1.571,-0.438,-0.501,105.25,85.1,40.498028,-3.379428,598.5,4,5,235.9,0.352
106.12,1,-0.113,-0.42,0.004,-0.114,-0.421,0.01,-1.571,-0.438,-0.502,105.25,85.1,40.498028,-3.379428,598.5,4,5,235.9,0.352
106.22,1,-0.101,-0.441,0.009,-0.103,-0.432,0.007,-1.571,-0.436,-0.501,105.25,85.1,40.498028,-3.379428,598.5,4,5,235.9,0.352
106.32,1,-0.117,-0.453,-0.029,-0.113,-0.439,-0.01,-1.572,-0.435,-0.501,105.25,85.1,40.498028,-3.379428,598.5,4,5,235.9,0.352
106.42,1,-0.099,-0.437,-0.003,-0.095,-0.444,-0.008,-1.573,-0.435,-0.502,105.25,85.1,40.498028,-3.379428,598.5,4,5,235.9,0.352
106.52,1,-0.13,-0.417,-0.012,-0.123,-0.427,-0.006,-1.572,-0.434,-0.502,105.25,85.1,40.498028,-3.379428,598.5,4,5,235.9,0.352
106.62,1,-0.097,-0.414,0.013,-0.12,-0.422,-0.002,-1.572,-0.433,-0.502,106.26,86.4,40.49791,-3.379662,597.7,4,5,235.9,0.352
106.72,1,-0.075,-0.444,-0.002,-0.087,-0.43,0.0,-1.572,-0.432,-0.502,106.26,86.4,40.49791,-3.379662,597.7,4,5,235.9,0.352
106.82,1,-0.13,-0.444,-0.016,-0.102,-0.434,-0.008,-1.572,-0.432,-0.503,106.26,86.4,40.49791,-3.379662,597.7,4,5,235.9,0.352
106.92,1,-0.104,-0.422,0.009,-0.113,-0.438,0.0,-1.573,-0.433,-0.504,106.26,86.4,40.49791,-3.379662,597.7,4,5,235.9,0.352
107.02,1,-0.091,-0.399,0.006,-0.1,-0.416,0.011,-1.572,-0.434,-0.504,106.26,86.4,40.49791,-3.379662,597.7,4,5,235.9,0.352
107.12,1,-0.09,-0.431,-0.005,-0.09,-0.417,-0.007,-1.572,-0.434,-0.504,106.26,86.4,40.49791,-3.379662,597.7,4,5,235.9,0.352
107.23,1,-0.088,-0.445,-0.017,-0.091,-0.432,-0.005,-1.572,-0.433,-0.505,106.26,86.4,40.49791,-3.379662,597.7,4,5,235.9,0.352
107.42,1,-0.132,-0.432,-0.026,-0.125,-0.431,-0.016,-1.572,-0.434,-0.505,106.26,86.4,40.49791,-3.379662,597.7,4,5,235.9,0.352
107.52,1,-0.098,-0.45,-0.005,-0.116,-0.435,-0.014,-1.574,-0.433,-0.506,106.26,86.4,40.49791,-3.379662,597.7,4,5,235.9,0.352
107.62,1,-0.08,-0.445,0.004,-0.09,-0.444,0.004,-1.574,-0.433,-0.506,106.26,86.4,40.49791,-3.379662,597.7,4,5,235.9,0.352
107.72,1,-0.097,-0.431,-0.022,-0.09,-0.44,-0.012,-1.573,-0.433,-0.506,107.28,86.9,40.497784,-3.379903,598.0,3,5,235.9,0.0
107.82,1,-0.108,-0.418,-0.005,-0.096,-0.431,-0.016,-1.575,-0.433,-0.507,107.28,86.9,40.497784,-3.379903,598.0,3,5,235.9,0.0
107.92,1,-0.121,-0.426,0.006,-0.116,-0.422,0.0,-1.575,-0.432,-0.507,107.28,86.9,40.497784,-3.379903,598.0,3,5,235.9,0.0
108.02,1,-0.081,-0.44,0.001,-0.104,-0.431,0.003,-1.574,-0.431,-0.507,107.28,86.9,40.497784,-3.379903,598.0,3,5,235.9,0.0
108.14,1,-0.093,-0.437,-0.014,-0.085,-0.439,-0.003,-1.574,-0.431,-0.507,107.28,86.9,40.497784,-3.379903,598.0,3,5,235.9,0.0
108.23,1,-0.12,-0.435,-0.011,-0.106,-0.435,-0.011,-1.574,-0.431,-0.508,107.28,86.9,40.497784,-3.379903,598.0,3,5,235.9,0.0
108.34,1,-0.094,-0.442,0.012,-0.107,-0.44,-0.002,-1.574,-0.432,-0.508,107.28,86.9,40.497784,-3.379903,598.0,3,5,235.9,0.0
108.43,1,-0.052,-0.44,-0.008,-0.082,-0.435,0.003,-1.573,-0.432,-0.508,107.28,86.9,40.497784,-3.379903,598.0,3,5,235.9,0.0
108.53,1,-0.07,-0.436,-0.021,-0.066,-0.442,-0.016,-1.572,-0.431,-0.508,107.28,86.9,40.497784,-3.379903,598.0,3,5,235.9,0.0
108.63,1,-0.114,-0.436,-0.005,-0.091,-0.44,-0.013,-1.572,-0.429,-0.508,107.28,86.9,40.497784,-3.379903,598.0,3,5,235.9,0.0
108.74,1,-0.103,-0.448,0.008,-0.098,-0.442,-0.004,-1.573,-0.429,-0.507,108.28,87.4,40.497673,-3.380135,597.8,4,5,237.0,1.055
108.83,1,-0.094,-0.429,0.012,-0.094,-0.435,0.01,-1.574,-0.43,-0.508,108.28,87.4,40.497673,-3.380135,597.8,4,5,237.0,1.055
108.93,1,-0.128,-0.425,-0.023,-0.112,-0.427,-0.006,-1.574,-0.43,-0.508,108.28,87.4,40.497673,-3.380135,597.8,4,5,237.0,1.055
109.03,1,-0.065,-0.429,0.0,-0.103,-0.427,-0.008,-1.574,-0.431,-0.508,108.28,87.4,40.497673,-3.380135,597.8,4,5,237.0,1.055
109.13,1,-0.084,-0.436,0.008,-0.071,-0.433,-0.001,-1.574,-0.43,-0.509,108.28,87.4,40.497673,-3.380135,597.8,4,5,237.0,1.055
109.23,1,-0.15,-0.416,-0.011,-0.12,-0.428,-0.002,-1.574,-0.43,-0.508,108.28,87.4,40.497673,-3.380135,597.8,4,5,237.0,1.055
109.34,1,-0.071,-0.442,0.001,-0.101,-0.431,0.0,-1.574,-0.429,-0.509,108.28,87.4,40.497673,-3.380135,597.8,4,5,237.0,1.055
109.43,1,-0.103,-0.459,0.002,-0.083,-0.445,0.002,-1.575,-0.428,-0.509,108.28,87.4,40.497673,-3.380135,597.8,4,5,237.0,1.055
109.53,1,-0.075,-0.426,-0.01,-0.098,-0.438,-0.006,-1.574,-0.429,-0.509,108.28,87.4,40.497673,-3.380135,597.8,4,5,237.0,1.055
109.63,1,-0.069,-0.399,-0.012,-0.082,-0.422,-0.008,-1.574,-0.429,-0.509,108.28,87.4,40.497673,-3.380135,597.8,4,5,237.0,1.055
109.73,1,-0.103,-0.426,0.004,-0.079,-0.42,-0.007,-1.574,-0.429,-0.51,109.28,89.0,40.497551,-3.380385,598.3,3,5,236.2,0.703
109.83,1,-0.117,-0.437,-0.018,-0.108,-0.427,-0.008,-1.573,-0.429,-0.509,109.28,89.0,40.497551,-3.380385,598.3,3,5,236.2,0.703
109.94,1,-0.08,-0.455,-0.003,-0.095,-0.441,-0.004,-1.573,-0.428,-0.509,109.28,89.0,40.497551,-3.380385,598.3,3,5,236.2,0.703
110.03,1,-0.131,-0.433,-0.046,-0.102,-0.442,-0.021,-1.573,-0.428,-0.509,109.28,89.0,40.497551,-3.380385,598.3,3,5,236.2,0.703
110.14,1,-0.081,-0.455,0.001,-0.107,-0.443,-0.019,-1.573,-0.428,-0.508,109.28,89.0,40.497551,-3.380385,598.3,3,5,236.2,0.703
110.23,1,-0.103,-0.433,0.007,-0.094,-0.443,-0.001,-1.574,-0.428,-0.508,109.28,89.0,40.497551,-3.380385,598.3,3,5,236.2,0.703
110.33,1,-0.115,-0.432,-0.01,-0.111,-0.434,-0.008,-1.574,-0.428,-0.508,109.28,89.0,40.497551,-3.380385,598.3,3,5,236.2,0.703
110.43,1,-0.094,-0.459,0.002,-0.1,-0.444,-0.002,-1.574,-0.428,-0.507,109.28,89.0,40.497551,-3.380385,598.3,3,5,236.2,0.703
110.53,1,-0.109,-0.429,0.006,-0.101,-0.44,-0.004,-1.574,-0.429,-0.507,109.28,89.0,40.497551,-3.380385,598.3,3,5,236.2,0.703
110.64,1,-0.083,-0.454,0.003,-0.106,-0.442,0.001,-1.574,-0.429,-0.506,109.28,89.0,40.497551,-3.380385,598.3,3,5,236.2,0.703
110.73,1,-0.106,-0.452,-0.012,-0.089,-0.452,-0.0,-1.574,-0.43,-0.506,110.26,89.8,40.497425,-3.380628,597.7,3,5,236.2,0.703
110.83,1,-0.098,-0.442,-0.019,-0.104,-0.447,-0.01,-1.573,-0.431,-0.506,110.26,89.8,40.497425,-3.380628,597.7,3,5,236.2,0.703
110.93,1,-0.11,-0.453,-0.006,-0.1,-0.45,-0.01,-1.574,-0.431,-0.505,110.26,89.8,40.497425,-3.380628,597.7,3,5,236.2,0.703
111.03,1,-0.104,-0.443,0.011,-0.109,-0.448,-0.003,-1.575,-0.431,-0.504,110.26,89.8,40.497425,-3.380628,597.7,3,5,236.2,0.703
111.14,1,-0.045,-0.457,-0.014,-0.077,-0.446,0.0,-1.573,-0.431,-0.504,110.26,89.8,40.497425,-3.380628,597.7,3,5,236.2,0.703
111.24,1,-0.102,-0.436,-0.011,-0.074,-0.447,-0.013,-1.572,-0.431,-0.504,110.26,89.8,40.497425,-3.380628,597.7,3,5,236.2,0.703
111.35,1,-0.101,-0.453,-0.008,-0.097,-0.445,-0.006,-1.573,-0.431,-0.503,110.26,89.8,40.497425,-3.380628,597.7,3,5,236.2,0.703
111.44,1,-0.111,-0.447,-0.009,-0.098,-0.45,-0.007,-1.574,-0.432,-0.503,110.26,89.8,40.497425,-3.380628,597.7,3,5,236.2,0.703
111.54,1,-0.104,-0.425,0.003,-0.112,-0.438,-0.007,-1.574,-0.432,-0.503,110.26,89.8,40.497425,-3.380628,597.7,3,5,236.2,0.703
111.64,1,-0.074,-0.441,-0.002,-0.094,-0.435,-0.001,-1.573,-0.432,-0.502,110.26,89.8,40.497425,-3.380628,597.7,3,5,236.2,0.703
111.74,1,-0.1,-0.435,-0.0,-0.09,-0.435,-0.002,-1.572,-0.431,-0.501,111.28,90.3,40.497295,-3.380883,597.7,4,5,237.3,1.055
111.84,1,-0.076,-0.458,0.022,-0.088,-0.446,0.004,-1.571,-0.43,-0.501,111.28,90.3,40.497295,-3.380883,597.7,4,5,237.3,1.055
111.94,1,-0.085,-0.446,-0.019,-0.08,-0.452,0.002,-1.571,-0.43,-0.501,111.28,90.3,40.497295,-3.380883,597.7,4,5,237.3,1.055
112.04,1,-0.136,-0.436,-0.02,-0.108,-0.442,-0.011,-1.571,-0.43,-0.5,111.28,90.3,40.497295,-3.380883,597.7,4,5,237.3,1.055
112.14,1,-0.123,-0.46,-0.025,-0.119,-0.448,-0.02,-1.572,-0.43,-0.5,111.28,90.3,40.497295,-3.380883,597.7,4,5,237.3,1.055
112.24,1,-0.093,-0.443,0.004,-0.108,-0.448,-0.012,-1.572,-0.43,-0.5,111.28,90.3,40.497295,-3.380883,597.7,4,5,237.3,1.055
112.35,1,-0.104,-0.45,-0.037,-0.105,-0.444,-0.018,-1.572,-0.431,-0.499,111.28,90.3,40.497295,-3.380883,597.7,4,5,237.3,1.055
112.44,1,-0.073,-0.448,-0.011,-0.099,-0.448,-0.015,-1.572,-0.431,-0.499,111.28,90.3,40.497295,-3.380883,597.7,4,5,237.3,1.055
112.54,1,-0.084,-0.428,0.003,-0.074,-0.442,-0.01,-1.572,-0.431,-0.499,111.28,90.3,40.497295,-3.380883,597.7,4,5,237.3,1.055
112.64,1,-0.14,-0.439,-0.057,-0.103,-0.436,-0.028,-1.57,-0.429,-0.498,111.28,90.3,40.497295,-3.380883,597.7,4,5,237.3,1.055
112.74,1,-0.106,-0.451,-0.045,-0.12,-0.445,-0.041,-1.57,-0.429,-0.497,112.27,91.3,40.497166,-3.381132,597.5,4,5,236.2,1.055
112.84,1,-0.09,-0.432,-0.012,-0.102,-0.441,-0.031,-1.571,-0.428,-0.497,112.27,91.3,40.497166,-3.381132,597.5,4,5,236.2,1.055
112.94,1,-0.128,-0.415,-0.035,-0.11,-0.427,-0.029,-1.572,-0.428,-0.497,112.27,91.3,40.497166,-3.381132,597.5,4,5,236.2,1.055
113.04,1,-0.104,-0.441,-0.009,-0.115,-0.429,-0.022,-1.573,-0.428,-0.497,112.27,91.3,40.497166,-3.381132,597.5,4,5,236.2,1.055
113.14,1,-0.114,-0.439,-0.042,-0.106,-0.436,-0.021,-1.572,-0.428,-0.497,112.27,91.3,40.497166,-3.381132,597.5,4,5,236.2,1.055
113.24,1,-0.121,-0.449,-0.025,-0.121,-0.441,-0.036,-1.573,-0.428,-0.497,112.27,91.3,40.497166,-3.381132,597.5,4,5,236.2,1.055
113.34,1,-0.067,-0.439,-0.019,-0.091,-0.441,-0.023,-1.573,-0.428,-0.497,112.27,91.3,40.497166,-3.381132,597.5,4,5,236.2,1.055
113.44,1,-0.122,-0.436,-0.044,-0.098,-0.442,-0.029,-1.572,-0.428,-0.497,112.27,91.3,40.497166,-3.381132,597.5,4,5,236.2,1.055
113.54,1,-0.136,-0.439,-0.033,-0.124,-0.439,-0.035,-1.573,-0.429,-0.497,112.27,91.3,40.497166,-3.381132,597.5,4,5,236.2,1.055
113.64,1,-0.105,-0.459,-0.0,-0.114,-0.447,-0.019,-1.574,-0.429,-0.496,112.27,91.3,40.497166,-3.381132,597.5,4,5,236.2,1.055
113.75,1,-0.068,-0.438,-0.033,-0.099,-0.444,-0.024,-1.573,-0.43,-0.496,113.31,92.1,40.497036,-3.381374,597.5,4,5,235.9,1.406
113.85,1,-0.074,-0.412,-0.025,-0.075,-0.43,-0.024,-1.573,-0.43,-0.496,113.31,92.1,40.497036,-3.381374,597.5,4,5,235.9,1.406
113.94,1,-0.12,-0.459,-0.073,-0.094,-0.433,-0.041,-1.572,-0.428,-0.495,113.31,92.1,40.497036,-3.381374,597.5,4,5,235.9,1.406
114.04,1,-0.12,-0.441,-0.037,-0.113,-0.444,-0.049,-1.574,-0.428,-0.495,113.31,92.1,40.497036,-3.381374,597.5,4,5,235.9,1.406
114.15,1,-0.134,-0.436,-0.022,-0.121,-0.441,-0.034,-1.574,-0.427,-0.495,113.31,92.1,40.497036,-3.381374,597.5,4,5,235.9,1.406
114.25,1,-0.091,-0.438,-0.039,-0.114,-0.437,-0.04,-1.574,-0.428,-0.495,113.31,92.1,40.497036,-3.381374,597.5,4,5,235.9,1.406
114.35,1,-0.101,-0.429,-0.039,-0.102,-0.436,-0.032,-1.574,-0.429,-0.495,113.31,92.1,40.497036,-3.381374,597.5,4,5,235.9,1.406
114.45,1,-0.11,-0.448,-0.031,-0.108,-0.439,-0.037,-1.575,-0.429,-0.495,113.31,92.1,40.497036,-3.381374,597.5,4,5,235.9,1.406
114.55,1,-0.108,-0.44,-0.006,-0.106,-0.442,-0.024,-1.576,-0.431,-0.495,113.31,92.1,40.497036,-3.381374,597.5,4,5,235.9,1.406
114.65,1,-0.105,-0.449,-0.035,-0.113,-0.446,-0.026,-1.576,-0.433,-0.495,113.31,92.1,40.497036,-3.381374,597.5,4,5,235.9,1.406
114.75,1,-0.049,-0.411,-0.028,-0.077,-0.423,-0.021,-1.575,-0.436,-0.495,114.29,92.1,40.496902,-3.381626,597.4,4,5,235.9,0.352
114.85,1,-0.025,-0.381,-0.03,-0.043,-0.406,-0.028,-1.573,-0.436,-0.495,114.29,92.1,40.496902,-3.381626,597.4,4,5,235.9,0.352
114.96,1,-0.141,-0.439,-0.068,-0.084,-0.42,-0.047,-1.573,-0.432,-0.494,114.29,92.1,40.496902,-3.381626,597.4,4,5,235.9,0.352
115.06,1,-0.254,-0.471,-0.07,-0.17,-0.437,-0.062,-1.574,-0.431,-0.493,114.29,92.1,40.496902,-3.381626,597.4,4,5,235.9,0.352
115.15,1,-0.026,-0.449,0.013,-0.129,-0.46,-0.034,-1.576,-0.432,-0.493,114.29,92.1,40.496902,-3.381626,597.4,4,5,235.9,0.352
115.25,1,-0.041,-0.434,-0.002,-0.086,-0.445,-0.007,-1.577,-0.433,-0.493,114.29,92.1,40.496902,-3.381626,597.4,4,5,235.9,0.352
115.35,1,-0.145,-0.434,-0.04,-0.081,-0.435,-0.021,-1.576,-0.431,-0.492,114.29,92.1,40.496902,-3.381626,597.4,4,5,235.9,0.352
115.45,1,-0.113,-0.434,-0.019,-0.116,-0.435,-0.029,-1.576,-0.431,-0.492,114.29,92.1,40.496902,-3.381626,597.4,4,5,235.9,0.352
115.56,1,-0.095,-0.431,-0.035,-0.104,-0.435,-0.024,-1.576,-0.432,-0.492,114.29,92.1,40.496902,-3.381626,597.4,4,5,235.9,0.352
115.65,1,-0.092,-0.445,-0.026,-0.095,-0.438,-0.025,-1.575,-0.432,-0.492,114.29,92.1,40.496902,-3.381626,597.4,4,5,235.9,0.352
115.75,1,-0.076,-0.446,-0.046,-0.092,-0.44,-0.04,-1.575,-0.433,-0.491,115.28,91.9,40.496777,-3.381875,597.3,4,5,235.9,0.0
115.85,1,-0.135,-0.428,-0.038,-0.098,-0.437,-0.032,-1.575,-0.433,-0.491,115.28,91.9,40.496777,-3.381875,597.3,4,5,235.9,0.0
115.96,1,-0.111,-0.438,-0.01,-0.115,-0.438,-0.031,-1.576,-0.434,-0.491,115.28,91.9,40.496777,-3.381875,597.3,4,5,235.9,0.0
116.05,1,-0.14,-0.421,-0.036,-0.122,-0.43,-0.026,-1.577,-0.434,-0.491,115.28,91.9,40.496777,-3.381875,597.3,4,5,235.9,0.0
116.16,1,-0.108,-0.424,-0.011,-0.123,-0.432,-0.024,-1.577,-0.435,-0.491,115.28,91.9,40.496777,-3.381875,597.3,4,5,235.9,0.0
116.26,1,-0.118,-0.432,-0.021,-0.117,-0.421,-0.022,-1.577,-0.436,-0.491,115.28,91.9,40.496777,-3.381875,597.3,4,5,235.9,0.0
116.35,1,-0.09,-0.42,-0.034,-0.108,-0.423,-0.027,-1.577,-0.435,-0.49,115.28,91.9,40.496777,-3.381875,597.3,4,5,235.9,0.0
116.45,1,-0.099,-0.421,-0.047,-0.102,-0.421,-0.032,-1.577,-0.433,-0.49,115.28,91.9,40.496777,-3.381875,597.3,4,5,235.9,0.0
116.55,1,-0.115,-0.438,-0.033,-0.105,-0.432,-0.041,-1.578,-0.431,-0.49,115.28,91.9,40.496777,-3.381875,597.3,4,5,235.9,0.0
116.66,1,-0.096,-0.421,0.019,-0.106,-0.43,-0.013,-1.579,-0.431,-0.491,115.28,91.9,40.496777,-3.381875,597.3,4,5,235.9,0.0
116.76,1,-0.089,-0.415,-0.048,-0.097,-0.42,-0.023,-1.579,-0.431,-0.491,116.26,92.0,40.496647,-3.382125,597.2,3,5,235.5,0.352
116.86,1,-0.111,-0.426,-0.045,-0.098,-0.428,-0.031,-1.579,-0.431,-0.491,116.26,92.0,40.496647,-3.382125,597.2,3,5,235.5,0.352
116.96,1,-0.124,-0.425,-0.038,-0.112,-0.422,-0.038,-1.58,-0.431,-0.491,116.26,92.0,40.496647,-3.382125,597.2,3,5,235.5,0.352
117.06,1,-0.076,-0.433,-0.03,-0.1,-0.424,-0.038,-1.58,-0.429,-0.491,116.26,92.0,40.496647,-3.382125,597.2,3,5,235.5,0.352
117.16,1,-0.121,-0.421,-0.037,-0.102,-0.422,-0.034,-1.58,-0.429,-0.491,116.26,92.0,40.496647,-3.382125,597.2,3,5,235.5,0.352
117.26,1,-0.049,-0.432,-0.011,-0.086,-0.426,-0.019,-1.579,-0.43,-0.491,116.26,92.0,40.496647,-3.382125,597.2,3,5,235.5,0.352
117.37,1,-0.082,-0.413,-0.039,-0.071,-0.426,-0.028,-1.578,-0.431,-0.491,116.26,92.0,40.496647,-3.382125,597.2,3,5,235.5,0.352
117.46,1,-0.14,-0.417,-0.038,-0.104,-0.418,-0.038,-1.578,-0.431,-0.491,116.26,92.0,40.496647,-3.382125,597.2,3,5,235.5,0.352
117.56,1,-0.117,-0.432,-0.025,-0.118,-0.427,-0.034,-1.58,-0.431,-0.491,116.26,92.0,40.496647,-3.382125,597.2,3,5,235.5,0.352
117.66,1,-0.071,-0.432,-0.027,-0.098,-0.432,-0.028,-1.58,-0.432,-0.491,116.26,92.0,40.496647,-3.382125,597.2,3,5,235.5,0.352
117.76,1,-0.063,-0.434,-0.016,-0.073,-0.431,-0.017,-1.58,-0.431,-0.491,117.31,92.0,40.496513,-3.382375,597.2,3,5,235.9,0.352
117.86,1,-0.154,-0.432,-0.033,-0.107,-0.428,-0.026,-1.58,-0.43,-0.491,117.31,92.0,40.496513,-3.382375,597.2,3,5,235.9,0.352
117.97,1,-0.056,-0.465,-0.025,-0.104,-0.444,-0.032,-1.58,-0.43,-0.491,117.31,92.0,40.496513,-3.382375,597.2,3,5,235.9,0.352
118.06,1,-0.081,-0.44,-0.028,-0.077,-0.453,-0.025,-1.579,-0.431,-0.491,117.31,92.0,40.496513,-3.382375,597.2,3,5,235.9,0.352
118.16,1,-0.146,-0.429,-0.047,-0.111,-0.434,-0.032,-1.579,-0.432,-0.491,117.31,92.0,40.496513,-3.382375,597.2,3,5,235.9,0.352
118.26,1,-0.119,-0.45,-0.013,-0.117,-0.438,-0.032,-1.58,-0.432,-0.49,117.31,92.0,40.496513,-3.382375,597.2,3,5,235.9,0.352
118.37,1,-0.083,-0.423,-0.036,-0.104,-0.439,-0.03,-1.58,-0.432,-0.49,117.31,92.0,40.496513,-3.382375,597.2,3,5,235.9,0.352
118.46,1,-0.153,-0.459,-0.027,-0.118,-0.437,-0.027,-1.581,-0.431,-0.49,117.31,92.0,40.496513,-3.382375,597.2,3,5,235.9,0.352
118.56,1,-0.141,-0.445,-0.047,-0.137,-0.452,-0.034,-1.582,-0.432,-0.489,117.31,92.0,40.496513,-3.382375,597.2,3,5,235.9,0.352
118.66,1,-0.115,-0.414,-0.027,-0.132,-0.433,-0.042,-1.582,-0.432,-0.489,117.31,92.0,40.496513,-3.382375,597.2,3,5,235.9,0.352
118.76,1,-0.082,-0.418,-0.031,-0.101,-0.426,-0.028,-1.582,-0.432,-0.489,118.28,91.8,40.496391,-3.382619,597.0,3,5,235.9,0.352
118.86,1,-0.093,-0.462,-0.027,-0.087,-0.439,-0.028,-1.583,-0.431,-0.489,118.28,91.8,40.496391,-3.382619,597.0,3,5,235.9,0.352
118.97,1,-0.109,-0.434,-0.033,-0.113,-0.437,-0.028,-1.581,-0.431,-0.488,118.28,91.8,40.496391,-3.382619,597.0,3,5,235.9,0.352
119.08,1,-0.103,-0.437,-0.044,-0.099,-0.436,-0.038,-1.581,-0.431,-0.488,118.28,91.8,40.496391,-3.382619,597.0,3,5,235.9,0.352
119.17,1,-0.121,-0.452,-0.028,-0.113,-0.445,-0.036,-1.583,-0.432,-0.488,118.28,91.8,40.496391,-3.382619,597.0,3,5,235.9,0.352
119.26,1,-0.124,-0.438,-0.028,-0.121,-0.442,-0.032,-1.584,-0.432,-0.488,118.28,91.8,40.496391,-3.382619,597.0,3,5,235.9,0.352
119.36,1,-0.101,-0.441,-0.038,-0.115,-0.439,-0.028,-1.584,-0.432,-0.487,118.28,91.8,40.496391,-3.382619,597.0,3,5,235.9,0.352
119.46,1,-0.091,-0.451,-0.039,-0.101,-0.447,-0.04,-1.583,-0.431,-0.487,118.28,91.8,40.496391,-3.382619,597.0,3,5,235.9,0.352
119.56,1,-0.098,-0.429,-0.036,-0.096,-0.441,-0.034,-1.583,-0.431,-0.486,118.28,91.8,40.496391,-3.382619,597.0,3,5,235.9,0.352
119.67,1,-0.104,-0.441,-0.022,-0.099,-0.439,-0.032,-1.582,-0.431,-0.485,118.28,91.8,40.496391,-3.382619,597.0,3,5,235.9,0.352
119.77,1,-0.08,-0.453,-0.02,-0.093,-0.442,-0.024,-1.583,-0.431,-0.485,119.28,91.9,40.496262,-3.38287,597.1,3,5,236.2,0.352
119.87,1,-0.125,-0.443,-0.017,-0.1,-0.448,-0.021,-1.584,-0.431,-0.484,119.28,91.9,40.496262,-3.38287,597.1,3,5,236.2,0.352
119.97,1,-0.092,-0.451,-0.038,-0.104,-0.449,-0.028,-1.584,-0.432,-0.484,119.28,91.9,40.496262,-3.38287,597.1,3,5,236.2,0.352
120.07,1,-0.109,-0.44,-0.066,-0.102,-0.446,-0.041,-1.583,-0.431,-0.483,119.28,91.9,40.496262,-3.38287,597.1,3,5,236.2,0.352
120.17,1,-0.058,-0.457,-0.014,-0.087,-0.446,-0.037,-1.584,-0.431,-0.482,119.28,91.9,40.496262,-3.38287,597.1,3,5,236.2,0.352
120.28,1,-0.11,-0.445,-0.028,-0.095,-0.446,-0.03,-1.583,-0.43,-0.481,119.28,91.9,40.496262,-3.38287,597.1,3,5,236.2,0.352
120.38,1,-0.056,-0.449,-0.04,-0.078,-0.449,-0.034,-1.582,-0.43,-0.48,119.28,91.9,40.496262,-3.38287,597.1,3,5,236.2,0.352
120.47,1,-0.105,-0.462,-0.042,-0.085,-0.452,-0.033,-1.581,-0.429,-0.479,119.28,91.9,40.496262,-3.38287,597.1,3,5,236.2,0.352
120.57,1,-0.107,-0.467,-0.036,-0.099,-0.46,-0.036,-1.581,-0.428,-0.477,119.28,91.9,40.496262,-3.38287,597.1,3,5,236.2,0.352
120.67,1,-0.119,-0.449,-0.05,-0.11,-0.459,-0.044,-1.581,-0.428,-0.477,119.28,91.9,40.496262,-3.38287,597.1,3,5,236.2,0.352
120.77,1,-0.116,-0.468,-0.039,-0.111,-0.463,-0.045,-1.581,-0.428,-0.476,120.27,92.1,40.496128,-3.383126,597.7,3,5,235.9,0.352
120.88,1,-0.071,-0.466,-0.03,-0.098,-0.465,-0.039,-1.582,-0.428,-0.475,120.27,92.1,40.496128,-3.383126,597.7,3,5,235.9,0.352
120.97,1,-0.089,-0.439,-0.049,-0.091,-0.455,-0.038,-1.581,-0.429,-0.474,120.27,92.1,40.496128,-3.383126,597.7,3,5,235.9,0.352
121.07,1,-0.078,-0.44,-0.05,-0.086,-0.443,-0.046,-1.579,-0.429,-0.473,120.27,92.1,40.496128,-3.383126,597.7,3,5,235.9,0.352
121.17,1,-0.109,-0.452,-0.022,-0.092,-0.446,-0.04,-1.579,-0.429,-0.472,120.27,92.1,40.496128,-3.383126,597.7,3,5,235.9,0.352
121.27,1,-0.087,-0.444,-0.06,-0.093,-0.448,-0.043,-1.577,-0.428,-0.471,120.27,92.1,40.496128,-3.383126,597.7,3,5,235.9,0.352
121.37,1,-0.077,-0.474,-0.04,-0.087,-0.456,-0.047,-1.577,-0.427,-0.469,120.27,92.1,40.496128,-3.383126,597.7,3,5,235.9,0.352
121.47,1,-0.083,-0.464,-0.034,-0.076,-0.466,-0.036,-1.576,-0.427,-0.468,120.27,92.1,40.496128,-3.383126,597.7,3,5,235.9,0.352
121.58,1,-0.102,-0.461,-0.044,-0.093,-0.464,-0.04,-1.576,-0.427,-0.467,120.27,92.1,40.496128,-3.383126,597.7,3,5,235.9,0.352
121.67,1,-0.076,-0.485,-0.018,-0.093,-0.47,-0.034,-1.575,-0.427,-0.466,120.27,92.1,40.496128,-3.383126,597.7,3,5,235.9,0.352
121.77,1,-0.1,-0.457,-0.063,-0.084,-0.465,-0.04,-1.575,-0.429,-0.465,121.25,92.1,40.496029,-3.383339,597.5,3,5,235.2,1.003
121.87,1,-0.104,-0.413,-0.019,-0.103,-0.447,-0.04,-1.574,-0.429,-0.464,121.25,92.1,40.496029,-3.383339,597.5,3,5,235.2,1.003
121.97,1,-0.049,-0.463,-0.023,-0.079,-0.448,-0.029,-1.574,-0.428,-0.462,121.25,92.1,40.496029,-3.383339,597.5,3,5,235.2,1.003
122.08,1,-0.091,-0.457,-0.038,-0.075,-0.45,-0.025,-1.574,-0.427,-0.461,121.25,92.1,40.496029,-3.383339,597.5,3,5,235.2,1.003
122.17,1,-0.081,-0.462,-0.012,-0.079,-0.461,-0.027,-1.575,-0.426,-0.461,121.25,92.1,40.496029,-3.383339,597.5,3,5,235.2,1.003
122.27,1,-0.103,-0.474,-0.023,-0.097,-0.465,-0.026,-1.575,-0.427,-0.46,121.25,92.1,40.496029,-3.383339,597.5,3,5,235.2,1.003
122.37,1,-0.097,-0.433,-0.028,-0.089,-0.46,-0.025,-1.574,-0.429,-0.459,121.25,92.1,40.496029,-3.383339,597.5,3,5,235.2,1.003
122.47,1,-0.064,-0.468,-0.043,-0.084,-0.454,-0.031,-1.573,-0.429,-0.458,121.25,92.1,40.496029,-3.383339,597.5,3,5,235.2,1.003
122.58,1,-0.054,-0.44,-0.044,-0.064,-0.448,-0.036,-1.572,-0.429,-0.458,121.25,92.1,40.496029,-3.383339,597.5,3,5,235.2,1.003
122.68,1,-0.137,-0.442,-0.033,-0.094,-0.445,-0.038,-1.573,-0.428,-0.457,121.25,92.1,40.496029,-3.383339,597.5,3,5,235.2,1.003
122.78,1,-0.089,-0.467,-0.032,-0.101,-0.452,-0.033,-1.573,-0.428,-0.456,122.26,91.6,40.495865,-3.383622,597.5,3,5,235.2,0.703
122.88,1,-0.091,-0.468,-0.039,-0.098,-0.459,-0.036,-1.573,-0.428,-0.456,122.26,91.6,40.495865,-3.383622,597.5,3,5,235.2,0.703
122.98,1,-0.091,-0.445,-0.013,-0.095,-0.458,-0.028,-1.573,-0.429,-0.455,122.26,91.6,40.495865,-3.383622,597.5,3,5,235.2,0.703
123.08,1,-0.096,-0.468,-0.024,-0.092,-0.456,-0.021,-1.572,-0.43,-0.455,122.26,91.6,40.495865,-3.383622,597.5,3,5,235.2,0.703
123.18,1,-0.111,-0.426,-0.038,-0.096,-0.449,-0.034,-1.572,-0.431,-0.454,122.26,91.6,40.495865,-3.383622,597.5,3,5,235.2,0.703
123.28,1,-0.082,-0.454,-0.019,-0.099,-0.446,-0.027,-1.572,-0.43,-0.453,122.26,91.6,40.495865,-3.383622,597.5,3,5,235.2,0.703
123.38,1,-0.102,-0.498,-0.045,-0.099,-0.466,-0.037,-1.573,-0.429,-0.453,122.26,91.6,40.495865,-3.383622,597.5,3,5,235.2,0.703
123.48,1,-0.088,-0.478,0.0,-0.091,-0.484,-0.015,-1.574,-0.431,-0.453,122.26,91.6,40.495865,-3.383622,597.5,3,5,235.2,0.703
123.58,1,-0.077,-0.425,-0.041,-0.088,-0.46,-0.027,-1.572,-0.433,-0.453,122.26,91.6,40.495865,-3.383622,597.5,3,5,235.2,0.703
123.69,1,-0.131,-0.431,-0.042,-0.099,-0.437,-0.032,-1.571,-0.434,-0.453,122.26,91.6,40.495865,-3.383622,597.5,3,5,235.2,0.703
123.78,1,-0.111,-0.471,-0.013,-0.115,-0.447,-0.026,-1.571,-0.432,-0.452,123.26,91.3,40.495731,-3.383869,597.4,3,5,234.5,0.755
123.88,1,-0.099,-0.465,-0.042,-0.104,-0.458,-0.034,-1.571,-0.43,-0.451,123.26,91.3,40.495731,-3.383869,597.4,3,5,234.5,0.755
123.98,1,-0.108,-0.49,-0.063,-0.103,-0.475,-0.053,-1.571,-0.429,-0.449,123.26,91.3,40.495731,-3.383869,597.4,3,5,234.5,0.755
124.08,1,-0.094,-0.5,-0.038,-0.098,-0.486,-0.051,-1.57,-0.429,-0.448,123.26,91.3,40.495731,-3.383869,597.4,3,5,234.5,0.755
124.18,1,-0.121,-0.473,-0.061,-0.11,-0.486,-0.04,-1.569,-0.429,-0.446,123.26,91.3,40.495731,-3.383869,597.4,3,5,234.5,0.755
124.28,1,-0.093,-0.487,-0.027,-0.115,-0.485,-0.044,-1.568,-0.429,-0.444,123.26,91.3,40.495731,-3.383869,597.4,3,5,234.5,0.755
124.38,1,-0.081,-0.496,-0.07,-0.089,-0.491,-0.044,-1.567,-0.428,-0.441,123.26,91.3,40.495731,-3.383869,597.4,3,5,234.5,0.755
124.48,1,-0.074,-0.516,-0.089,-0.081,-0.497,-0.068,-1.565,-0.427,-0.438,123.26,91.3,40.495731,-3.383869,597.4,3,5,234.5,0.755
124.58,1,-0.077,-0.526,-0.043,-0.081,-0.517,-0.065,-1.563,-0.426,-0.435,123.26,91.3,40.495731,-3.383869,597.4,3,5,234.5,0.755
124.68,1,-0.063,-0.56,-0.041,-0.073,-0.535,-0.056,-1.562,-0.425,-0.432,123.26,91.3,40.495731,-3.383869,597.4,3,5,234.5,0.755
124.78,1,-0.059,-0.541,-0.015,-0.059,-0.546,-0.032,-1.559,-0.425,-0.428,124.33,90.9,40.495598,-3.38412,597.2,3,5,234.5,0.703
124.89,1,-0.074,-0.509,-0.098,-0.065,-0.525,-0.06,-1.556,-0.426,-0.423,124.33,90.9,40.495598,-3.38412,597.2,3,5,234.5,0.703
124.98,1,-0.106,-0.525,-0.071,-0.085,-0.523,-0.079,-1.554,-0.427,-0.42,124.33,90.9,40.495598,-3.38412,597.2,3,5,234.5,0.703
125.09,1,-0.126,-0.502,-0.056,-0.109,-0.518,-0.061,-1.554,-0.428,-0.417,124.33,90.9,40.495598,-3.38412,597.2,3,5,234.5,0.703
125.18,1,-0.074,-0.506,-0.047,-0.102,-0.507,-0.048,-1.553,-0.428,-0.414,124.33,90.9,40.495598,-3.38412,597.2,3,5,234.5,0.703
125.28,1,-0.052,-0.499,-0.037,-0.067,-0.505,-0.048,-1.55,-0.428,-0.41,124.33,90.9,40.495598,-3.38412,597.2,3,5,234.5,0.703
125.38,1,-0.101,-0.48,-0.085,-0.076,-0.496,-0.056,-1.549,-0.429,-0.409,124.33,90.9,40.495598,-3.38412,597.2,3,5,234.5,0.703
125.49,1,-0.132,-0.416,-0.046,-0.11,-0.457,-0.06,-1.55,-0.431,-0.409,124.33,90.9,40.495598,-3.38412,597.2,3,5,234.5,0.703
125.59,1,-0.105,-0.401,-0.037,-0.112,-0.428,-0.051,-1.552,-0.433,-0.411,124.33,90.9,40.495598,-3.38412,597.2,3,5,234.5,0.703
125.7,1,-0.068,-0.412,-0.042,-0.096,-0.413,-0.043,-1.552,-0.434,-0.413,124.33,90.9,40.495598,-3.38412,597.2,3,5,234.5,0.703
125.79,1,-0.067,-0.416,-0.061,-0.072,-0.411,-0.047,-1.551,-0.434,-0.414,125.28,90.3,40.495464,-3.384361,597.7,4,5,233.4,1.055
125.89,1,-0.101,-0.419,-0.068,-0.085,-0.415,-0.061,-1.551,-0.433,-0.415,125.28,90.3,40.495464,-3.384361,597.7,4,5,233.4,1.055
125.99,1,-0.084,-0.438,-0.045,-0.086,-0.431,-0.059,-1.553,-0.433,-0.416,125.28,90.3,40.495464,-3.384361,597.7,4,5,233.4,1.055
126.09,1,-0.102,-0.408,-0.046,-0.091,-0.42,-0.047,-1.555,-0.434,-0.418,125.28,90.3,40.495464,-3.384361,597.7,4,5,233.4,1.055
126.19,1,-0.141,-0.41,-0.061,-0.115,-0.409,-0.052,-1.556,-0.435,-0.42,125.28,90.3,40.495464,-3.384361,597.7,4,5,233.4,1.055
126.29,1,-0.08,-0.414,-0.035,-0.106,-0.412,-0.052,-1.557,-0.436,-0.421,125.28,90.3,40.495464,-3.384361,597.7,4,5,233.4,1.055
126.39,1,-0.072,-0.404,-0.032,-0.087,-0.411,-0.034,-1.557,-0.437,-0.423,125.28,90.3,40.495464,-3.384361,597.7,4,5,233.4,1.055
126.49,1,-0.059,-0.432,-0.039,-0.075,-0.421,-0.04,-1.557,-0.437,-0.424,125.28,90.3,40.495464,-3.384361,597.7,4,5,233.4,1.055
126.59,1,-0.111,-0.395,-0.027,-0.092,-0.41,-0.033,-1.557,-0.437,-0.425,125.28,90.3,40.495464,-3.384361,597.7,4,5,233.4,1.055
