Timestamp_Accel,SystemActivated,accelerometerXAxis,accelerometerYAxis,accelerometerZAxis,AccelX_KF,AccelY_KF,AccelZ_KF,gyroscopeXAxis,gyroscopeYAxis,gyroscopeZAxis,Timestamp_GPS,Speed,latitude,longitude,Altitude,VerticalAccuracy,HorizontalAccuracy,Course,Difcourse
18.46,0,-0.001,0.052,-0.0,-0.01,0.032,0.002,-1.594,-0.016,0.147,18.42,0.0,40.583424,-3.555156,601.5,13,229,-1.0,-1.0
18.56,0,0.077,-0.014,-0.027,0.016,0.03,-0.009,-1.593,-0.016,0.143,18.42,0.0,40.583424,-3.555156,601.5,13,229,-1.0,-1.0
18.66,0,-0.107,0.046,-0.003,-0.006,0.02,-0.016,-1.595,-0.017,0.14,18.42,0.0,40.583424,-3.555156,601.5,13,229,-1.0,-1.0
18.76,0,-0.036,0.022,-0.011,-0.058,0.031,-0.016,-1.595,-0.017,0.137,18.42,0.0,40.583424,-3.555156,601.5,13,229,-1.0,-1.0
18.86,0,0.04,-0.007,-0.017,0.0,0.015,-0.008,-1.593,-0.015,0.135,18.42,0.0,40.583424,-3.555156,601.5,13,229,-1.0,-1.0
18.96,0,-0.046,0.02,-0.011,-0.015,0.004,-0.014,-1.59,-0.013,0.132,18.42,0.0,40.583424,-3.555156,601.5,13,229,-1.0,-1.0
19.06,0,0.022,-0.005,-0.03,-0.004,0.008,-0.018,-1.588,-0.009,0.13,18.42,0.0,40.583424,-3.555156,601.5,13,229,-1.0,-1.0
19.16,0,-0.092,-0.03,-0.035,-0.028,-0.01,-0.025,-1.586,-0.003,0.13,18.42,0.0,40.583424,-3.555156,601.5,13,229,-1.0,-1.0
19.26,0,0.045,-0.041,-0.039,-0.025,-0.022,-0.034,-1.588,0.002,0.129,18.42,0.0,40.583424,-3.555156,601.5,13,229,-1.0,-1.0
19.37,0,0.002,-0.026,-0.0,0.009,-0.029,-0.025,-1.592,0.003,0.129,18.42,0.0,40.583424,-3.555156,601.5,13,229,-1.0,-1.0
19.47,0,0.066,-0.029,0.061,0.032,-0.024,0.012,-1.597,0.003,0.128,19.42,0.0,40.583424,-3.555156,601.5,13,229,-1.0,-1.0
19.56,0,-0.041,-0.019,0.023,-0.006,-0.031,0.032,-1.604,0.001,0.128,19.42,0.0,40.583424,-3.555156,601.5,13,229,-1.0,-1.0
19.66,1,0.009,-0.01,0.012,-0.005,-0.027,0.023,-1.603,-0.003,0.127,19.42,0.0,40.583424,-3.555156,601.5,13,229,-1.0,-1.0
19.76,1,0.025,0.002,-0.018,-0.001,-0.007,0.008,-1.601,-0.006,0.127,19.42,0.0,40.583424,-3.555156,601.5,13,229,-1.0,-1.0
19.87,1,0.002,-0.063,0.032,0.014,-0.023,0.008,-1.599,-0.002,0.126,19.42,0.0,40.583424,-3.555156,601.5,13,229,-1.0,-1.0
19.97,1,-0.005,-0.054,0.02,0.026,-0.04,0.013,-1.598,0.004,0.126,19.42,0.0,40.583424,-3.555156,601.5,13,229,-1.0,-1.0
20.06,1,-0.106,-0.064,-0.024,-0.064,-0.058,0.003,-1.603,0.006,0.126,19.42,0.0,40.583424,-3.555156,601.5,13,229,-1.0,-1.0
20.17,1,-0.01,-0.023,0.041,-0.033,-0.056,0.011,-1.612,0.008,0.125,19.42,0.0,40.583424,-3.555156,601.5,13,229,-1.0,-1.0
20.27,1,-0.003,-0.023,0.015,-0.021,-0.03,0.009,-1.611,0.007,0.125,19.42,0.0,40.583424,-3.555156,601.5,13,229,-1.0,-1.0
20.36,1,0.052,-0.019,0.015,0.022,-0.024,0.022,-1.609,0.006,0.124,19.42,0.0,40.583424,-3.555156,601.5,13,229,-1.0,-1.0
20.47,1,0.0,-0.061,0.003,0.009,-0.034,0.014,-1.607,0.006,0.124,20.42,72.4,40.584461,-3.554159,612.9,12,5,96.0,177.539
20.57,1,0.009,0.011,-0.023,0.018,-0.018,0.0,-1.607,0.005,0.124,20.42,72.4,40.584461,-3.554159,612.9,12,5,96.0,177.539
20.67,1,-0.089,-0.033,0.042,-0.023,-0.018,0.005,-1.61,0.006,0.123,20.42,72.4,40.584461,-3.554159,612.9,12,5,96.0,177.539
20.77,1,-0.095,-0.022,-0.006,-0.069,-0.025,0.018,-1.614,0.006,0.123,20.42,72.4,40.584461,-3.554159,612.9,12,5,96.0,177.539
20.87,1,0.0,-0.045,0.014,-0.054,-0.034,0.01,-1.614,0.005,0.122,20.42,72.4,40.584461,-3.554159,612.9,12,5,96.0,177.539
20.98,1,-0.038,-0.011,-0.005,-0.014,-0.023,0.004,-1.615,0.002,0.121,20.42,72.4,40.584461,-3.554159,612.9,12,5,96.0,177.539
21.07,1,-0.071,0.011,-0.014,-0.081,-0.006,-0.016,-1.615,0.001,0.119,20.42,72.4,40.584461,-3.554159,612.9,12,5,96.0,177.539
21.18,1,0.014,0.046,0.017,-0.034,0.023,0.007,-1.616,0.002,0.118,20.42,72.4,40.584461,-3.554159,612.9,12,5,96.0,177.539
21.27,1,-0.093,0.0,-0.02,-0.036,0.008,-0.009,-1.615,0.001,0.117,20.42,72.4,40.584461,-3.554159,612.9,12,5,96.0,177.539
21.37,1,0.012,-0.039,0.029,-0.04,-0.012,0.007,-1.616,-0.002,0.115,20.42,72.4,40.584461,-3.554159,612.9,12,5,96.0,177.539
21.47,1,0.006,0.007,-0.003,-0.006,-0.001,0.005,-1.619,-0.009,0.113,21.45,73.0,40.584465,-3.553945,607.9,8,5,96.7,178.242
21.57,1,-0.034,-0.006,-0.019,-0.005,-0.003,-0.001,-1.616,-0.013,0.112,21.45,73.0,40.584465,-3.553945,607.9,8,5,96.7,178.242
21.67,1,-0.054,0.02,-0.017,-0.049,-0.002,-0.02,-1.615,-0.015,0.11,21.45,73.0,40.584465,-3.553945,607.9,8,5,96.7,178.242
21.77,1,0.074,-0.013,0.024,0.02,0.011,0.004,-1.617,-0.014,0.109,21.45,73.0,40.584465,-3.553945,607.9,8,5,96.7,178.242
21.87,1,-0.076,-0.027,-0.011,-0.008,-0.016,0.007,-1.62,-0.013,0.107,21.45,73.0,40.584465,-3.553945,607.9,8,5,96.7,178.242
21.97,1,0.024,0.001,-0.012,-0.013,-0.019,-0.011,-1.621,-0.015,0.106,21.45,73.0,40.584465,-3.553945,607.9,8,5,96.7,178.242
22.07,1,-0.011,-0.016,-0.009,0.001,-0.007,-0.01,-1.621,-0.017,0.104,21.45,73.0,40.584465,-3.553945,607.9,8,5,96.7,178.242
22.17,1,0.008,-0.019,0.004,-0.005,-0.012,-0.007,-1.619,-0.019,0.102,21.45,73.0,40.584465,-3.553945,607.9,8,5,96.7,178.242
22.27,1,0.006,-0.015,0.0,0.012,-0.017,0.01,-1.621,-0.02,0.101,21.45,73.0,40.584465,-3.553945,607.9,8,5,96.7,178.242
22.37,1,-0.027,0.017,-0.012,-0.008,-0.004,-0.003,-1.62,-0.014,0.099,21.45,73.0,40.584465,-3.553945,607.9,8,5,96.7,178.242
22.48,1,-0.103,0.015,-0.011,-0.068,0.012,-0.016,-1.62,-0.014,0.098,22.4,75.0,40.584431,-3.553701,611.5,4,5,96.7,0.703
22.58,1,0.029,0.012,-0.006,-0.026,0.008,-0.007,-1.624,-0.015,0.096,22.4,75.0,40.584431,-3.553701,611.5,4,5,96.7,0.703
22.67,1,-0.058,-0.009,-0.009,-0.029,0.007,-0.005,-1.627,-0.013,0.094,22.4,75.0,40.584431,-3.553701,611.5,4,5,96.7,0.703
22.77,1,0.017,-0.002,-0.018,-0.018,-0.002,-0.014,-1.629,-0.014,0.092,22.4,75.0,40.584431,-3.553701,611.5,4,5,96.7,0.703
22.87,1,0.016,-0.012,0.007,0.011,-0.006,-0.006,-1.631,-0.01,0.09,22.4,75.0,40.584431,-3.553701,611.5,4,5,96.7,0.703
22.99,1,-0.001,-0.014,-0.034,0.005,-0.014,-0.016,-1.626,-0.008,0.089,22.4,75.0,40.584431,-3.553701,611.5,4,5,96.7,0.703
23.08,1,0.011,0.041,-0.043,0.007,0.008,-0.025,-1.624,-0.007,0.086,22.4,75.0,40.584431,-3.553701,611.5,4,5,96.7,0.703
23.17,1,0.03,0.005,-0.006,0.021,0.02,-0.025,-1.624,-0.007,0.084,22.4,75.0,40.584431,-3.553701,611.5,4,5,96.7,0.703
23.27,1,0.03,0.013,-0.018,0.018,0.007,-0.02,-1.622,-0.008,0.082,22.4,75.0,40.584431,-3.553701,611.5,4,5,96.7,0.703
23.37,1,-0.04,0.023,-0.054,-0.0,0.021,-0.031,-1.621,-0.008,0.08,22.4,75.0,40.584431,-3.553701,611.5,4,5,96.7,0.703
23.47,1,0.008,0.003,-0.029,0.002,0.016,-0.037,-1.623,-0.007,0.078,23.4,76.9,40.584404,-3.553449,611.3,4,5,97.7,1.055
23.59,1,-0.09,0.006,-0.012,-0.032,0.007,-0.025,-1.626,-0.005,0.077,23.4,76.9,40.584404,-3.553449,611.3,4,5,97.7,1.055
23.68,1,-0.043,-0.041,0.019,-0.066,-0.018,-0.006,-1.63,-0.001,0.075,23.4,76.9,40.584404,-3.553449,611.3,4,5,97.7,1.055
23.78,1,-0.066,0.017,-0.039,-0.052,-0.008,-0.008,-1.627,-0.002,0.073,23.4,76.9,40.584404,-3.553449,611.3,4,5,97.7,1.055
23.87,1,0.043,0.023,-0.033,-0.022,0.014,-0.031,-1.625,-0.003,0.072,23.4,76.9,40.584404,-3.553449,611.3,4,5,97.7,1.055
23.97,1,-0.055,0.04,-0.022,-0.017,0.028,-0.022,-1.626,-0.003,0.07,23.4,76.9,40.584404,-3.553449,611.3,4,5,97.7,1.055
24.07,1,-0.053,-0.008,-0.034,-0.033,0.019,-0.03,-1.625,-0.002,0.069,23.4,76.9,40.584404,-3.553449,611.3,4,5,97.7,1.055
24.18,1,0.039,0.007,-0.009,-0.002,0.003,-0.017,-1.624,0.002,0.068,23.4,76.9,40.584404,-3.553449,611.3,4,5,97.7,1.055
24.28,1,-0.009,0.002,-0.016,-0.001,0.003,-0.02,-1.619,0.002,0.067,23.4,76.9,40.584404,-3.553449,611.3,4,5,97.7,1.055
24.38,1,-0.003,-0.004,0.013,-0.01,0.003,-0.006,-1.617,0.001,0.065,23.4,76.9,40.584404,-3.553449,611.3,4,5,97.7,1.055
24.48,1,-0.014,0.018,0.007,-0.001,0.007,0.004,-1.618,-0.004,0.064,24.47,78.6,40.584373,-3.553189,611.4,4,5,98.8,2.109
24.58,1,-0.082,0.023,-0.015,-0.047,0.019,-0.002,-1.616,-0.011,0.063,24.47,78.6,40.584373,-3.553189,611.4,4,5,98.8,2.109
24.68,1,0.001,0.028,-0.026,-0.031,0.017,-0.013,-1.618,-0.007,0.061,24.47,78.6,40.584373,-3.553189,611.4,4,5,98.8,2.109
24.78,1,-0.048,0.028,0.009,-0.012,0.025,-0.014,-1.617,-0.003,0.06,24.47,78.6,40.584373,-3.553189,611.4,4,5,98.8,2.109
24.88,1,-0.073,0.014,-0.002,-0.073,0.022,-0.004,-1.616,-0.004,0.059,24.47,78.6,40.584373,-3.553189,611.4,4,5,98.8,2.109
24.98,1,0.148,0.007,0.001,0.027,0.012,0.005,-1.616,-0.005,0.058,24.47,78.6,40.584373,-3.553189,611.4,4,5,98.8,2.109
25.08,1,-0.04,0.042,-0.02,0.014,0.026,-0.011,-1.613,-0.006,0.057,24.47,78.6,40.584373,-3.553189,611.4,4,5,98.8,2.109
25.18,1,0.069,0.012,-0.003,0.028,0.025,-0.006,-1.609,-0.004,0.056,24.47,78.6,40.584373,-3.553189,611.4,4,5,98.8,2.109
25.29,1,-0.054,0.007,0.01,0.014,0.014,-0.001,-1.606,-0.001,0.054,24.47,78.6,40.584373,-3.553189,611.4,4,5,98.8,2.109
25.38,1,0.053,0.009,0.023,-0.003,0.007,0.012,-1.607,0.002,0.053,24.47,78.6,40.584373,-3.553189,611.4,4,5,98.8,2.109
25.48,1,0.025,0.019,-0.036,0.035,0.016,-0.001,-1.602,0.005,0.051,25.48,80.4,40.584328,-3.552922,611.4,4,5,99.8,2.109
25.58,1,-0.083,0.012,-0.04,-0.007,0.014,-0.026,-1.598,0.004,0.05,25.48,80.4,40.584328,-3.552922,611.4,4,5,99.8,2.109
25.69,1,-0.141,0.006,-0.01,-0.076,0.007,-0.028,-1.6,0.003,0.048,25.48,80.4,40.584328,-3.552922,611.4,4,5,99.8,2.109
25.78,1,-0.135,0.084,0.023,-0.125,0.038,-0.007,-1.599,0.004,0.047,25.48,80.4,40.584328,-3.552922,611.4,4,5,99.8,2.109
25.88,1,-0.04,0.016,0.011,-0.093,0.039,0.016,-1.603,0.001,0.045,25.48,80.4,40.584328,-3.552922,611.4,4,5,99.8,2.109
25.98,1,-0.062,-0.008,-0.017,-0.078,0.013,0.0,-1.605,0.0,0.044,25.48,80.4,40.584328,-3.552922,611.4,4,5,99.8,2.109
26.09,1,0.017,-0.028,0.028,-0.034,-0.008,0.008,-1.606,-0.0,0.042,25.48,80.4,40.584328,-3.552922,611.4,4,5,99.8,2.109
26.18,1,-0.02,0.03,0.031,-0.003,0.008,0.021,-1.606,-0.002,0.04,25.48,80.4,40.584328,-3.552922,611.4,4,5,99.8,2.109
26.28,1,0.013,0.049,0.023,-0.0,0.029,0.025,-1.606,-0.002,0.038,25.48,80.4,40.584328,-3.552922,611.4,4,5,99.8,2.109
26.38,1,0.003,0.042,0.021,-0.005,0.039,0.022,-1.607,-0.003,0.036,25.48,80.4,40.584328,-3.552922,611.4,4,5,99.8,2.109
26.49,1,0.051,0.019,-0.009,0.022,0.03,0.011,-1.604,-0.007,0.033,26.43,82.1,40.584286,-3.552658,611.5,4,5,100.9,2.109
26.58,1,0.021,0.056,0.016,0.03,0.038,0.01,-1.602,-0.011,0.031,26.43,82.1,40.584286,-3.552658,611.5,4,5,100.9,2.109
26.69,1,0.049,0.015,-0.006,0.034,0.034,0.002,-1.6,-0.015,0.027,26.43,82.1,40.584286,-3.552658,611.5,4,5,100.9,2.109
26.78,1,-0.017,0.048,-0.042,0.022,0.033,-0.018,-1.598,-0.021,0.024,26.43,82.1,40.584286,-3.552658,611.5,4,5,100.9,2.109
26.88,1,-0.012,0.052,0.011,-0.008,0.046,-0.013,-1.599,-0.027,0.021,26.43,82.1,40.584286,-3.552658,611.5,4,5,100.9,2.109
26.98,1,-0.047,-0.009,-0.028,-0.022,0.022,-0.009,-1.6,-0.026,0.018,26.43,82.1,40.584286,-3.552658,611.5,4,5,100.9,2.109
27.09,1,0.012,0.021,-0.016,-0.025,0.016,-0.014,-1.601,-0.025,0.016,26.43,82.1,40.584286,-3.552658,611.5,4,5,100.9,2.109
27.18,1,0.03,0.029,-0.05,0.024,0.025,-0.03,-1.599,-0.023,0.014,26.43,82.1,40.584286,-3.552658,611.5,4,5,100.9,2.109
27.28,1,0.027,-0.004,0.023,0.018,0.014,-0.016,-1.598,-0.02,0.012,26.43,82.1,40.584286,-3.552658,611.5,4,5,100.9,2.109
27.38,1,0.032,-0.018,-0.008,0.022,0.001,-0.007,-1.598,-0.018,0.01,26.43,82.1,40.584286,-3.552658,611.5,4,5,100.9,2.109
27.48,1,-0.002,0.02,0.007,0.013,-0.002,-0.002,-1.602,-0.019,0.008,27.4,83.6,40.58424,-3.552391,611.4,4,5,102.0,2.109
27.78,1,0.003,-0.0,0.002,-0.01,0.004,-0.016,-1.598,-0.026,0.001,27.4,83.6,40.58424,-3.552391,611.4,4,5,102.0,2.109
27.88,1,-0.019,-0.034,0.052,-0.011,-0.017,0.014,-1.6,-0.026,-0.001,27.4,83.6,40.58424,-3.552391,611.4,4,5,102.0,2.109
27.98,1,0.027,0.039,0.027,-0.008,0.009,0.023,-1.598,-0.027,-0.003,27.4,83.6,40.58424,-3.552391,611.4,4,5,102.0,2.109
28.09,1,0.006,0.007,-0.005,0.018,0.01,0.021,-1.595,-0.025,-0.005,27.4,83.6,40.58424,-3.552391,611.4,4,5,102.0,2.109
28.18,1,-0.029,0.035,0.023,-0.013,0.021,0.01,-1.596,-0.027,-0.007,27.4,83.6,40.58424,-3.552391,611.4,4,5,102.0,2.109
28.28,1,-0.029,-0.063,0.013,-0.017,-0.012,0.014,-1.597,-0.028,-0.008,27.4,83.6,40.58424,-3.552391,611.4,4,5,102.0,2.109
28.38,1,0.002,-0.02,-0.004,-0.013,-0.024,0.013,-1.597,-0.028,-0.01,27.4,83.6,40.58424,-3.552391,611.4,4,5,102.0,2.109
28.49,1,0.013,-0.001,-0.004,-0.006,-0.013,-0.002,-1.597,-0.028,-0.012,27.4,83.6,40.58424,-3.552391,611.4,4,5,102.0,2.109
28.59,1,0.003,-0.001,0.024,0.009,-0.006,0.013,-1.597,-0.027,-0.013,27.4,83.6,40.58424,-3.552391,611.4,4,5,102.0,2.109
28.7,1,0.013,-0.016,-0.001,0.007,-0.009,0.005,-1.595,-0.025,-0.014,28.4,85.1,40.58419,-3.552123,611.1,4,5,103.7,2.812
28.79,1,0.016,-0.026,-0.003,0.011,-0.018,0.001,-1.594,-0.022,-0.015,28.4,85.1,40.58419,-3.552123,611.1,4,5,103.7,2.812
28.89,1,0.013,-0.023,0.014,0.02,-0.02,0.009,-1.594,-0.018,-0.016,28.4,85.1,40.58419,-3.552123,611.1,4,5,103.7,2.812
28.99,1,-0.04,-0.005,-0.003,-0.007,-0.013,0.002,-1.596,-0.014,-0.017,28.4,85.1,40.58419,-3.552123,611.1,4,5,103.7,2.812
29.09,1,-0.01,0.005,-0.002,-0.019,-0.007,0.0,-1.598,-0.016,-0.018,28.4,85.1,40.58419,-3.552123,611.1,4,5,103.7,2.812
29.2,1,0.002,-0.029,0.007,-0.012,-0.014,0.003,-1.601,-0.018,-0.019,28.4,85.1,40.58419,-3.552123,611.1,4,5,103.7,2.812
29.29,1,0.039,0.02,0.006,0.01,0.003,-0.001,-1.598,-0.021,-0.02,28.4,85.1,40.58419,-3.552123,611.1,4,5,103.7,2.812
29.39,1,-0.017,0.003,0.021,0.013,0.004,0.017,-1.595,-0.024,-0.022,28.4,85.1,40.58419,-3.552123,611.1,4,5,103.7,2.812
29.49,1,-0.01,-0.009,0.001,-0.006,-0.001,0.009,-1.598,-0.028,-0.023,28.4,85.1,40.58419,-3.552123,611.1,4,5,103.7,2.812
29.59,1,-0.033,-0.007,0.019,-0.016,-0.009,0.008,-1.602,-0.029,-0.025,28.4,85.1,40.58419,-3.552123,611.1,4,5,103.7,2.812
29.69,1,0.011,-0.031,-0.012,-0.012,-0.018,0.006,-1.607,-0.031,-0.026,29.4,86.5,40.584129,-3.551846,611.9,4,5,105.1,3.164
29.79,1,-0.073,0.009,-0.009,-0.027,-0.008,-0.005,-1.608,-0.036,-0.028,29.4,86.5,40.584129,-3.551846,611.9,4,5,105.1,3.164
29.89,1,0.036,0.007,-0.025,-0.017,-0.001,-0.012,-1.607,-0.038,-0.03,29.4,86.5,40.584129,-3.551846,611.9,4,5,105.1,3.164
30.0,1,0.009,0.021,0.009,0.017,0.013,-0.008,-1.606,-0.035,-0.032,29.4,86.5,40.584129,-3.551846,611.9,4,5,105.1,3.164
30.09,1,-0.075,-0.015,-0.037,-0.032,0.006,-0.017,-1.605,-0.033,-0.033,29.4,86.5,40.584129,-3.551846,611.9,4,5,105.1,3.164
30.2,1,0.055,0.031,0.01,-0.004,0.01,-0.008,-1.601,-0.034,-0.035,29.4,86.5,40.584129,-3.551846,611.9,4,5,105.1,3.164
30.29,1,-0.139,-0.007,-0.039,-0.032,0.006,-0.018,-1.595,-0.038,-0.038,29.4,86.5,40.584129,-3.551846,611.9,4,5,105.1,3.164
30.4,1,0.08,0.016,-0.004,-0.03,0.004,-0.019,-1.596,-0.039,-0.041,29.4,86.5,40.584129,-3.551846,611.9,4,5,105.1,3.164
30.49,1,-0.042,0.046,0.015,0.007,0.027,-0.001,-1.597,-0.041,-0.044,29.4,86.5,40.584129,-3.551846,611.9,4,5,105.1,3.164
30.6,1,-0.05,0.042,0.016,-0.039,0.042,0.009,-1.596,-0.039,-0.047,29.4,86.5,40.584129,-3.551846,611.9,4,5,105.1,3.164
30.69,1,0.031,0.039,0.025,-0.011,0.038,0.019,-1.598,-0.04,-0.049,30.45,87.9,40.584061,-3.551568,612.2,4,5,106.5,2.812
30.8,1,-0.016,0.013,-0.008,0.007,0.028,0.01,-1.597,-0.042,-0.051,30.45,87.9,40.584061,-3.551568,612.2,4,5,106.5,2.812
30.89,1,-0.037,0.022,-0.031,-0.031,0.02,-0.008,-1.594,-0.041,-0.053,30.45,87.9,40.584061,-3.551568,612.2,4,5,106.5,2.812
30.99,1,-0.05,-0.028,-0.031,-0.038,0.003,-0.029,-1.589,-0.038,-0.054,30.45,87.9,40.584061,-3.551568,612.2,4,5,106.5,2.812
31.09,1,-0.129,0.011,-0.089,-0.072,-0.007,-0.053,-1.583,-0.038,-0.056,30.45,87.9,40.584061,-3.551568,612.2,4,5,106.5,2.812
31.2,1,0.054,0.018,-0.083,-0.053,0.016,-0.069,-1.578,-0.038,-0.058,30.45,87.9,40.584061,-3.551568,612.2,4,5,106.5,2.812
31.29,1,0.011,0.029,-0.094,0.013,0.02,-0.086,-1.57,-0.036,-0.06,30.45,87.9,40.584061,-3.551568,612.2,4,5,106.5,2.812
31.4,1,-0.017,-0.003,-0.079,-0.013,0.012,-0.086,-1.566,-0.035,-0.062,30.45,87.9,40.584061,-3.551568,612.2,4,5,106.5,2.812
31.49,1,-0.032,0.023,-0.061,-0.012,0.014,-0.068,-1.559,-0.037,-0.064,30.45,87.9,40.584061,-3.551568,612.2,4,5,106.5,2.812
31.59,1,-0.09,0.002,-0.047,-0.027,0.01,-0.06,-1.556,-0.037,-0.065,30.45,87.9,40.584061,-3.551568,612.2,4,5,106.5,2.812
31.7,1,-0.003,0.024,-0.031,-0.055,0.013,-0.045,-1.556,-0.036,-0.066,31.41,89.6,40.583988,-3.551284,612.5,4,5,107.9,2.812
31.8,1,0.041,0.013,-0.049,0.005,0.018,-0.045,-1.552,-0.035,-0.068,31.41,89.6,40.583988,-3.551284,612.5,4,5,107.9,2.812
31.9,1,0.002,-0.009,-0.07,0.009,0.006,-0.053,-1.545,-0.035,-0.07,31.41,89.6,40.583988,-3.551284,612.5,4,5,107.9,2.812
31.99,1,0.01,0.007,-0.079,0.007,0.001,-0.072,-1.539,-0.036,-0.072,31.41,89.6,40.583988,-3.551284,612.5,4,5,107.9,2.812
32.1,1,-0.01,0.019,-0.011,0.004,0.009,-0.052,-1.537,-0.039,-0.074,31.41,89.6,40.583988,-3.551284,612.5,4,5,107.9,2.812
32.19,1,-0.002,0.029,-0.03,-0.012,0.018,-0.03,-1.533,-0.04,-0.076,31.41,89.6,40.583988,-3.551284,612.5,4,5,107.9,2.812
32.31,1,0.005,-0.003,-0.041,0.006,0.014,-0.039,-1.527,-0.039,-0.078,31.41,89.6,40.583988,-3.551284,612.5,4,5,107.9,2.812
32.41,1,0.047,0.022,-0.021,0.02,0.012,-0.031,-1.525,-0.041,-0.081,31.41,89.6,40.583988,-3.551284,612.5,4,5,107.9,2.812
32.5,1,-0.01,0.035,-0.065,0.012,0.025,-0.036,-1.523,-0.042,-0.083,31.41,89.6,40.583988,-3.551284,612.5,4,5,107.9,2.812
32.6,1,0.009,0.03,-0.052,0.002,0.033,-0.056,-1.518,-0.042,-0.085,31.41,89.6,40.583988,-3.551284,612.5,4,5,107.9,2.812
32.7,1,-0.044,0.012,0.016,-0.007,0.02,-0.024,-1.517,-0.04,-0.086,32.4,90.4,40.583912,-3.550998,612.6,4,5,109.7,3.164
32.8,1,-0.135,-0.0,0.009,-0.082,0.013,-0.002,-1.519,-0.034,-0.088,32.4,90.4,40.583912,-3.550998,612.6,4,5,109.7,3.164
32.9,1,-0.025,-0.022,0.062,-0.063,-0.008,0.029,-1.525,-0.032,-0.089,32.4,90.4,40.583912,-3.550998,612.6,4,5,109.7,3.164
33.0,1,-0.022,-0.013,0.057,-0.028,-0.007,0.048,-1.529,-0.029,-0.091,32.4,90.4,40.583912,-3.550998,612.6,4,5,109.7,3.164
33.11,1,-0.024,-0.007,0.044,-0.033,-0.014,0.05,-1.533,-0.029,-0.092,32.4,90.4,40.583912,-3.550998,612.6,4,5,109.7,3.164
33.2,1,-0.038,-0.015,0.043,-0.032,-0.015,0.044,-1.537,-0.029,-0.093,32.4,90.4,40.583912,-3.550998,612.6,4,5,109.7,3.164
33.3,1,-0.044,0.001,0.067,-0.036,-0.006,0.05,-1.542,-0.028,-0.094,32.4,90.4,40.583912,-3.550998,612.6,4,5,109.7,3.164
33.4,1,-0.027,0.009,0.063,-0.035,0.002,0.061,-1.549,-0.027,-0.096,32.4,90.4,40.583912,-3.550998,612.6,4,5,109.7,3.164
33.5,1,-0.003,0.003,0.037,-0.018,0.003,0.055,-1.551,-0.024,-0.097,32.4,90.4,40.583912,-3.550998,612.6,4,5,109.7,3.164
33.61,1,0.005,0.024,0.005,-0.008,0.012,0.022,-1.554,-0.026,-0.098,32.4,90.4,40.583912,-3.550998,612.6,4,5,109.7,3.164
33.71,1,-0.018,0.014,0.032,-0.009,0.012,0.028,-1.556,-0.025,-0.099,33.39,89.0,40.583836,-3.550733,612.7,4,5,111.4,3.516
33.81,1,-0.011,-0.023,0.024,-0.015,0.005,0.029,-1.559,-0.024,-0.1,33.39,89.0,40.583836,-3.550733,612.7,4,5,111.4,3.516
33.9,1,-0.008,-0.01,0.016,-0.009,-0.007,0.02,-1.56,-0.022,-0.101,33.39,89.0,40.583836,-3.550733,612.7,4,5,111.4,3.516
34.0,1,-0.017,-0.024,0.027,-0.018,-0.016,0.026,-1.565,-0.019,-0.102,33.39,89.0,40.583836,-3.550733,612.7,4,5,111.4,3.516
34.1,1,0.026,-0.0,0.019,0.006,-0.009,0.02,-1.566,-0.018,-0.102,33.39,89.0,40.583836,-3.550733,612.7,4,5,111.4,3.516
34.2,1,-0.025,-0.004,0.006,0.004,-0.008,0.015,-1.568,-0.018,-0.102,33.39,89.0,40.583836,-3.550733,612.7,4,5,111.4,3.516
34.3,1,-0.036,-0.018,0.058,-0.034,-0.008,0.029,-1.569,-0.018,-0.102,33.39,89.0,40.583836,-3.550733,612.7,4,5,111.4,3.516
34.4,1,-0.039,0.012,-0.009,-0.028,-0.004,0.025,-1.571,-0.017,-0.103,33.39,89.0,40.583836,-3.550733,612.7,4,5,111.4,3.516
34.5,1,0.03,0.02,0.034,-0.015,0.005,0.018,-1.573,-0.017,-0.104,33.39,89.0,40.583836,-3.550733,612.7,4,5,111.4,3.516
34.6,1,-0.014,0.008,0.019,0.007,0.017,0.022,-1.574,-0.018,-0.105,33.39,89.0,40.583836,-3.550733,612.7,4,5,111.4,3.516
34.7,1,0.002,0.038,0.022,-0.012,0.018,0.021,-1.574,-0.015,-0.106,34.4,87.6,40.583748,-3.55047,612.9,4,5,113.2,3.516
34.8,1,-0.077,0.016,0.036,-0.01,0.026,0.025,-1.574,-0.017,-0.107,34.4,87.6,40.583748,-3.55047,612.9,4,5,113.2,3.516
34.9,1,-0.076,-0.005,0.012,-0.075,0.005,0.022,-1.574,-0.017,-0.109,34.4,87.6,40.583748,-3.55047,612.9,4,5,113.2,3.516
35.01,1,0.005,0.026,0.018,-0.036,0.013,0.02,-1.579,-0.018,-0.11,34.4,87.6,40.583748,-3.55047,612.9,4,5,113.2,3.516
35.1,1,-0.063,0.006,0.001,-0.045,0.01,0.013,-1.582,-0.02,-0.112,34.4,87.6,40.583748,-3.55047,612.9,4,5,113.2,3.516
35.2,1,0.062,0.071,-0.01,-0.0,0.038,-0.001,-1.581,-0.021,-0.113,34.4,87.6,40.583748,-3.55047,612.9,4,5,113.2,3.516
35.3,1,0.021,0.032,0.021,0.027,0.044,0.007,-1.579,-0.023,-0.115,34.4,87.6,40.583748,-3.55047,612.9,4,5,113.2,3.516
35.4,1,-0.034,0.033,0.016,0.005,0.036,0.014,-1.581,-0.022,-0.116,34.4,87.6,40.583748,-3.55047,612.9,4,5,113.2,3.516
35.5,1,-0.015,0.015,0.011,-0.029,0.026,0.011,-1.578,-0.021,-0.117,34.4,87.6,40.583748,-3.55047,612.9,4,5,113.2,3.516
35.61,1,0.017,0.017,0.002,0.006,0.021,0.012,-1.578,-0.02,-0.118,34.4,87.6,40.583748,-3.55047,612.9,4,5,113.2,3.516
35.71,1,0.02,-0.005,-0.005,0.009,0.015,0.001,-1.578,-0.021,-0.119,35.41,88.5,40.583652,-3.550205,612.9,4,5,114.6,3.164
35.81,1,0.076,0.024,0.021,0.035,0.009,0.011,-1.578,-0.022,-0.12,35.41,88.5,40.583652,-3.550205,612.9,4,5,114.6,3.164
35.9,1,-0.057,0.024,-0.009,0.016,0.019,-0.0,-1.578,-0.024,-0.122,35.41,88.5,40.583652,-3.550205,612.9,4,5,114.6,3.164
36.01,1,-0.063,0.015,0.021,-0.036,0.016,0.007,-1.577,-0.024,-0.123,35.41,88.5,40.583652,-3.550205,612.9,4,5,114.6,3.164
36.1,1,-0.051,0.021,0.002,-0.038,0.018,0.01,-1.576,-0.02,-0.124,35.41,88.5,40.583652,-3.550205,612.9,4,5,114.6,3.164
36.2,1,-0.043,0.001,0.041,-0.051,0.016,0.019,-1.578,-0.02,-0.125,35.41,88.5,40.583652,-3.550205,612.9,4,5,114.6,3.164
36.3,1,0.038,0.011,0.023,-0.031,0.006,0.023,-1.579,-0.021,-0.126,35.41,88.5,40.583652,-3.550205,612.9,4,5,114.6,3.164
36.41,1,-0.025,0.006,0.005,0.011,0.011,0.022,-1.577,-0.022,-0.128,35.41,88.5,40.583652,-3.550205,612.9,4,5,114.6,3.164
36.5,1,-0.044,0.035,0.004,-0.031,0.017,0.005,-1.58,-0.025,-0.129,35.41,88.5,40.583652,-3.550205,612.9,4,5,114.6,3.164
36.6,1,0.003,0.025,0.024,-0.013,0.027,0.017,-1.584,-0.028,-0.131,35.41,88.5,40.583652,-3.550205,612.9,4,5,114.6,3.164
36.71,1,-0.018,0.009,-0.025,-0.013,0.018,0.001,-1.582,-0.031,-0.132,36.4,89.4,40.583557,-3.549936,612.9,4,5,116.0,2.812
36.81,1,0.027,0.031,0.003,-0.015,0.019,-0.007,-1.581,-0.032,-0.133,36.4,89.4,40.583557,-3.549936,612.9,4,5,116.0,2.812
36.92,1,0.028,0.03,0.022,0.029,0.03,0.01,-1.582,-0.032,-0.135,36.4,89.4,40.583557,-3.549936,612.9,4,5,116.0,2.812
37.01,1,-0.04,0.018,0.016,0.004,0.019,0.018,-1.583,-0.034,-0.136,36.4,89.4,40.583557,-3.549936,612.9,4,5,116.0,2.812
37.11,1,-0.015,0.014,-0.006,-0.022,0.023,0.002,-1.584,-0.035,-0.138,36.4,89.4,40.583557,-3.549936,612.9,4,5,116.0,2.812
37.21,1,-0.061,0.018,0.004,-0.033,0.017,0.004,-1.586,-0.037,-0.14,36.4,89.4,40.583557,-3.549936,612.9,4,5,116.0,2.812
37.31,1,-0.002,0.021,0.007,-0.028,0.02,0.0,-1.589,-0.036,-0.141,36.4,89.4,40.583557,-3.549936,612.9,4,5,116.0,2.812
37.41,1,-0.01,0.014,0.004,-0.011,0.014,0.012,-1.591,-0.036,-0.142,36.4,89.4,40.583557,-3.549936,612.9,4,5,116.0,2.812
37.62,1,-0.028,0.021,-0.003,-0.029,0.013,-0.003,-1.59,-0.04,-0.145,36.4,89.4,40.583557,-3.549936,612.9,4,5,116.0,2.812
37.71,1,0.007,0.015,-0.007,-0.005,0.018,-0.001,-1.59,-0.04,-0.146,36.4,89.4,40.583557,-3.549936,612.9,4,5,116.0,2.812
37.81,1,-0.006,0.013,-0.033,-0.006,0.016,-0.019,-1.585,-0.041,-0.148,37.42,90.4,40.58345,-3.549673,613.3,4,5,117.8,3.164
37.91,1,-0.038,0.027,-0.034,-0.012,0.02,-0.028,-1.58,-0.043,-0.149,37.42,90.4,40.58345,-3.549673,613.3,4,5,117.8,3.164
38.01,1,0.008,0.007,-0.025,-0.017,0.016,-0.028,-1.579,-0.045,-0.151,37.42,90.4,40.58345,-3.549673,613.3,4,5,117.8,3.164
38.11,1,0.054,0.007,-0.01,0.02,0.011,-0.02,-1.576,-0.046,-0.152,37.42,90.4,40.58345,-3.549673,613.3,4,5,117.8,3.164
38.23,1,-0.016,-0.004,-0.018,0.014,0.001,-0.009,-1.574,-0.048,-0.154,37.42,90.4,40.58345,-3.549673,613.3,4,5,117.8,3.164
38.32,1,0.0,-0.026,-0.06,0.001,-0.006,-0.045,-1.573,-0.049,-0.155,37.42,90.4,40.58345,-3.549673,613.3,4,5,117.8,3.164
38.41,1,0.015,0.014,-0.01,0.008,-0.005,-0.026,-1.574,-0.051,-0.156,37.42,90.4,40.58345,-3.549673,613.3,4,5,117.8,3.164
38.51,1,-0.049,0.023,-0.026,-0.017,0.009,-0.027,-1.571,-0.051,-0.157,37.42,90.4,40.58345,-3.549673,613.3,4,5,117.8,3.164
38.61,1,0.021,-0.012,-0.047,-0.006,0.008,-0.027,-1.568,-0.049,-0.158,37.42,90.4,40.58345,-3.549673,613.3,4,5,117.8,3.164
38.71,1,-0.024,-0.026,-0.026,-0.008,-0.009,-0.04,-1.565,-0.047,-0.158,37.42,90.4,40.58345,-3.549673,613.3,4,5,117.8,3.164
38.82,1,-0.013,-0.006,-0.008,-0.006,-0.012,-0.026,-1.566,-0.047,-0.159,38.39,91.3,40.583344,-3.549409,613.6,4,5,119.5,3.516
38.91,1,0.003,-0.023,-0.021,-0.011,-0.019,-0.014,-1.566,-0.044,-0.16,38.39,91.3,40.583344,-3.549409,613.6,4,5,119.5,3.516
39.01,1,0.065,-0.034,-0.036,0.025,-0.026,-0.028,-1.563,-0.044,-0.16,38.39,91.3,40.583344,-3.549409,613.6,4,5,119.5,3.516
39.11,1,-0.023,-0.023,-0.042,0.009,-0.025,-0.03,-1.559,-0.044,-0.161,38.39,91.3,40.583344,-3.549409,613.6,4,5,119.5,3.516
39.22,1,0.012,-0.009,-0.035,0.002,-0.015,-0.041,-1.554,-0.044,-0.161,38.39,91.3,40.583344,-3.549409,613.6,4,5,119.5,3.516
39.31,1,-0.052,-0.014,-0.062,-0.012,-0.016,-0.041,-1.547,-0.045,-0.161,38.39,91.3,40.583344,-3.549409,613.6,4,5,119.5,3.516
39.42,1,-0.027,-0.024,-0.046,-0.03,-0.018,-0.048,-1.543,-0.044,-0.162,38.39,91.3,40.583344,-3.549409,613.6,4,5,119.5,3.516
39.51,1,-0.025,-0.013,-0.06,-0.024,-0.017,-0.058,-1.538,-0.046,-0.162,38.39,91.3,40.583344,-3.549409,613.6,4,5,119.5,3.516
39.62,1,-0.018,-0.013,-0.038,-0.022,-0.012,-0.046,-1.536,-0.048,-0.163,38.39,91.3,40.583344,-3.549409,613.6,4,5,119.5,3.516
39.71,1,-0.032,-0.019,-0.047,-0.024,-0.022,-0.048,-1.533,-0.048,-0.163,38.39,91.3,40.583344,-3.549409,613.6,4,5,119.5,3.516
39.81,1,-0.01,-0.016,-0.008,-0.022,-0.018,-0.028,-1.531,-0.046,-0.163,39.41,92.0,40.583225,-3.549153,613.9,3,5,121.3,3.516
39.91,1,0.011,0.001,-0.068,-0.01,-0.006,-0.043,-1.526,-0.046,-0.164,39.41,92.0,40.583225,-3.549153,613.9,3,5,121.3,3.516
40.02,1,0.006,-0.006,-0.018,0.006,-0.004,-0.035,-1.525,-0.045,-0.164,39.41,92.0,40.583225,-3.549153,613.9,3,5,121.3,3.516
40.12,1,-0.005,-0.013,-0.042,0.001,-0.012,-0.036,-1.52,-0.044,-0.164,39.41,92.0,40.583225,-3.549153,613.9,3,5,121.3,3.516
40.21,1,-0.031,-0.028,-0.023,-0.014,-0.015,-0.031,-1.519,-0.043,-0.164,39.41,92.0,40.583225,-3.549153,613.9,3,5,121.3,3.516
40.31,1,0.011,-0.027,-0.049,-0.007,-0.026,-0.039,-1.517,-0.041,-0.165,39.41,92.0,40.583225,-3.549153,613.9,3,5,121.3,3.516
40.42,1,-0.044,-0.007,-0.014,-0.017,-0.016,-0.028,-1.517,-0.042,-0.165,39.41,92.0,40.583225,-3.549153,613.9,3,5,121.3,3.516
40.53,1,-0.03,-0.042,-0.016,-0.029,-0.022,-0.024,-1.516,-0.045,-0.166,39.41,92.0,40.583225,-3.549153,613.9,3,5,121.3,3.516
40.63,1,-0.052,-0.042,-0.028,-0.04,-0.039,-0.017,-1.515,-0.048,-0.166,39.41,92.0,40.583225,-3.549153,613.9,3,5,121.3,3.516
40.72,1,-0.019,-0.011,-0.013,-0.035,-0.025,-0.024,-1.514,-0.05,-0.166,39.41,92.0,40.583225,-3.549153,613.9,3,5,121.3,3.516
40.81,1,0.002,0.006,-0.034,-0.012,-0.01,-0.019,-1.513,-0.05,-0.167,40.41,91.4,40.583099,-3.548902,614.3,3,5,122.7,3.164
40.92,1,0.04,-0.017,-0.038,0.016,-0.012,-0.035,-1.511,-0.051,-0.167,40.41,91.4,40.583099,-3.548902,614.3,3,5,122.7,3.164
41.02,1,-0.029,-0.043,-0.026,-0.008,-0.028,-0.035,-1.51,-0.048,-0.168,40.41,91.4,40.583099,-3.548902,614.3,3,5,122.7,3.164
41.12,1,-0.024,-0.02,-0.006,-0.01,-0.023,-0.02,-1.509,-0.049,-0.168,40.41,91.4,40.583099,-3.548902,614.3,3,5,122.7,3.164
41.22,1,-0.033,-0.023,-0.01,-0.035,-0.023,-0.011,-1.507,-0.05,-0.168,40.41,91.4,40.583099,-3.548902,614.3,3,5,122.7,3.164
41.37,1,-0.099,-0.058,0.026,-0.051,-0.035,0.005,-1.511,-0.048,-0.169,40.41,91.4,40.583099,-3.548902,614.3,3,5,122.7,3.164
41.42,1,-0.042,-0.035,0.014,-0.061,-0.048,0.017,-1.511,-0.048,-0.169,40.41,91.4,40.583099,-3.548902,614.3,3,5,122.7,3.164
41.52,1,0.056,-0.008,0.0,-0.005,-0.025,0.005,-1.51,-0.046,-0.169,40.41,91.4,40.583099,-3.548902,614.3,3,5,122.7,3.164
41.62,1,-0.027,-0.011,-0.02,0.003,-0.012,-0.004,-1.507,-0.045,-0.17,40.41,91.4,40.583099,-3.548902,614.3,3,5,122.7,3.164
41.73,1,-0.04,-0.018,-0.034,-0.021,-0.018,-0.025,-1.505,-0.042,-0.17,40.41,91.4,40.583099,-3.548902,614.3,3,5,122.7,3.164
41.82,1,-0.028,-0.008,0.029,-0.037,-0.012,0.001,-1.505,-0.041,-0.17,41.48,87.4,40.582973,-3.548656,614.1,4,5,124.8,3.516
41.92,1,-0.025,-0.009,0.041,-0.029,-0.012,0.022,-1.508,-0.042,-0.171,41.48,87.4,40.582973,-3.548656,614.1,4,5,124.8,3.516
42.02,1,0.013,-0.018,0.043,-0.004,-0.016,0.032,-1.508,-0.044,-0.171,41.48,87.4,40.582973,-3.548656,614.1,4,5,124.8,3.516
42.12,1,0.014,-0.005,0.041,-0.003,-0.007,0.04,-1.509,-0.047,-0.172,41.48,87.4,40.582973,-3.548656,614.1,4,5,124.8,3.516
42.22,1,-0.013,-0.012,0.051,-0.0,-0.005,0.045,-1.513,-0.047,-0.173,41.48,87.4,40.582973,-3.548656,614.1,4,5,124.8,3.516
42.33,1,-0.058,-0.034,0.066,-0.026,-0.022,0.055,-1.521,-0.045,-0.174,41.48,87.4,40.582973,-3.548656,614.1,4,5,124.8,3.516
42.43,1,0.033,-0.029,0.053,-0.01,-0.028,0.054,-1.527,-0.043,-0.174,41.48,87.4,40.582973,-3.548656,614.1,4,5,124.8,3.516
42.52,1,-0.042,-0.029,0.067,-0.01,-0.027,0.057,-1.532,-0.043,-0.175,41.48,87.4,40.582973,-3.548656,614.1,4,5,124.8,3.516
42.62,1,-0.011,-0.035,0.056,-0.026,-0.034,0.06,-1.536,-0.042,-0.175,41.48,87.4,40.582973,-3.548656,614.1,4,5,124.8,3.516
42.72,1,-0.011,0.003,0.063,-0.003,-0.018,0.063,-1.538,-0.042,-0.176,41.48,87.4,40.582973,-3.548656,614.1,4,5,124.8,3.516
42.83,1,-0.018,-0.021,0.055,-0.022,-0.016,0.059,-1.541,-0.042,-0.176,42.41,82.8,40.582851,-3.548432,614.4,4,5,125.9,3.164
42.92,1,0.019,0.0,0.039,0.003,-0.01,0.051,-1.543,-0.041,-0.176,42.41,82.8,40.582851,-3.548432,614.4,4,5,125.9,3.164
43.02,1,-0.024,-0.013,0.062,-0.008,-0.011,0.052,-1.546,-0.041,-0.176,42.41,82.8,40.582851,-3.548432,614.4,4,5,125.9,3.164
43.13,1,0.002,0.004,0.051,-0.004,0.0,0.054,-1.548,-0.039,-0.177,42.41,82.8,40.582851,-3.548432,614.4,4,5,125.9,3.164
43.22,1,0.001,-0.022,0.046,-0.007,-0.009,0.049,-1.551,-0.04,-0.177,42.41,82.8,40.582851,-3.548432,614.4,4,5,125.9,3.164
43.32,1,-0.001,-0.002,0.043,0.006,-0.008,0.047,-1.551,-0.038,-0.177,42.41,82.8,40.582851,-3.548432,614.4,4,5,125.9,3.164
43.43,1,-0.003,0.015,0.048,0.001,0.003,0.047,-1.552,-0.038,-0.177,42.41,82.8,40.582851,-3.548432,614.4,4,5,125.9,3.164
43.52,1,-0.025,-0.009,0.029,-0.012,0.002,0.04,-1.551,-0.037,-0.178,42.41,82.8,40.582851,-3.548432,614.4,4,5,125.9,3.164
43.62,1,-0.038,-0.012,0.054,-0.023,-0.006,0.038,-1.556,-0.039,-0.178,42.41,82.8,40.582851,-3.548432,614.4,4,5,125.9,3.164
43.72,1,-0.105,-0.012,0.03,-0.06,-0.012,0.045,-1.559,-0.04,-0.178,42.41,82.8,40.582851,-3.548432,614.4,4,5,125.9,3.164
43.82,1,-0.016,-0.013,0.051,-0.053,-0.014,0.042,-1.563,-0.041,-0.179,43.4,85.2,40.582729,-3.548205,614.3,4,5,128.0,3.164
43.93,1,-0.029,-0.016,0.039,-0.045,-0.017,0.045,-1.565,-0.043,-0.179,43.4,85.2,40.582729,-3.548205,614.3,4,5,128.0,3.164
44.02,1,0.03,0.0,0.021,-0.005,-0.007,0.034,-1.566,-0.044,-0.18,43.4,85.2,40.582729,-3.548205,614.3,4,5,128.0,3.164
44.12,1,-0.017,-0.02,-0.01,0.0,-0.008,0.009,-1.567,-0.045,-0.18,43.4,85.2,40.582729,-3.548205,614.3,4,5,128.0,3.164
44.23,1,-0.036,-0.009,0.023,-0.023,-0.013,0.009,-1.569,-0.046,-0.181,43.4,85.2,40.582729,-3.548205,614.3,4,5,128.0,3.164
44.32,1,-0.048,0.006,-0.006,-0.038,-0.006,0.011,-1.573,-0.047,-0.181,43.4,85.2,40.582729,-3.548205,614.3,4,5,128.0,3.164
44.42,1,-0.009,-0.008,0.041,-0.028,-0.002,0.019,-1.576,-0.046,-0.182,43.4,85.2,40.582729,-3.548205,614.3,4,5,128.0,3.164
44.52,1,-0.03,-0.002,0.025,-0.022,-0.004,0.024,-1.578,-0.045,-0.183,43.4,85.2,40.582729,-3.548205,614.3,4,5,128.0,3.164
44.62,1,-0.039,-0.001,-0.002,-0.032,-0.007,0.016,-1.579,-0.045,-0.184,43.4,85.2,40.582729,-3.548205,614.3,4,5,128.0,3.164
44.72,1,-0.003,0.0,0.009,-0.023,0.004,0.006,-1.578,-0.045,-0.184,43.4,85.2,40.582729,-3.548205,614.3,4,5,128.0,3.164
44.83,1,-0.032,-0.019,0.002,-0.02,-0.005,0.008,-1.579,-0.046,-0.185,44.4,85.2,40.582596,-3.547988,614.2,4,5,129.0,3.164
44.92,1,0.005,-0.005,0.002,-0.009,-0.009,-0.001,-1.578,-0.049,-0.185,44.4,85.2,40.582596,-3.547988,614.2,4,5,129.0,3.164
45.04,1,-0.055,-0.001,0.005,-0.026,-0.006,0.006,-1.577,-0.05,-0.186,44.4,85.2,40.582596,-3.547988,614.2,4,5,129.0,3.164
45.12,1,0.001,-0.013,0.0,-0.027,-0.007,0.005,-1.58,-0.049,-0.186,44.4,85.2,40.582596,-3.547988,614.2,4,5,129.0,3.164
45.23,1,0.019,0.006,0.009,0.004,-0.004,0.005,-1.579,-0.049,-0.187,44.4,85.2,40.582596,-3.547988,614.2,4,5,129.0,3.164
45.33,1,-0.038,0.0,0.018,-0.01,-0.004,0.015,-1.577,-0.05,-0.187,44.4,85.2,40.582596,-3.547988,614.2,4,5,129.0,3.164
45.43,1,0.024,-0.017,0.013,-0.009,-0.004,0.01,-1.577,-0.05,-0.187,44.4,85.2,40.582596,-3.547988,614.2,4,5,129.0,3.164
45.53,1,0.033,-0.026,0.006,0.027,-0.02,0.009,-1.578,-0.051,-0.187,44.4,85.2,40.582596,-3.547988,614.2,4,5,129.0,3.164
45.64,1,-0.02,-0.02,-0.032,-0.007,-0.018,-0.002,-1.577,-0.051,-0.187,44.4,85.2,40.582596,-3.547988,614.2,4,5,129.0,3.164
45.74,1,0.005,-0.038,0.028,0.01,-0.022,-0.008,-1.578,-0.051,-0.186,44.4,85.2,40.582596,-3.547988,614.2,4,5,129.0,3.164
45.83,1,-0.073,-0.036,0.017,-0.026,-0.037,0.017,-1.579,-0.049,-0.186,45.41,87.2,40.582458,-3.547767,614.8,4,5,130.8,2.812
45.93,1,0.04,-0.019,0.006,-0.014,-0.026,0.01,-1.578,-0.048,-0.185,45.41,87.2,40.582458,-3.547767,614.8,4,5,130.8,2.812
46.03,1,-0.017,-0.02,-0.008,-0.001,-0.025,0.003,-1.578,-0.047,-0.184,45.41,87.2,40.582458,-3.547767,614.8,4,5,130.8,2.812
46.13,1,-0.007,-0.066,0.001,-0.018,-0.039,0.002,-1.579,-0.045,-0.183,45.41,87.2,40.582458,-3.547767,614.8,4,5,130.8,2.812
46.23,1,-0.017,-0.023,0.012,-0.001,-0.038,0.002,-1.58,-0.043,-0.181,45.41,87.2,40.582458,-3.547767,614.8,4,5,130.8,2.812
46.33,1,-0.003,-0.011,0.018,-0.011,-0.025,0.016,-1.581,-0.041,-0.18,45.41,87.2,40.582458,-3.547767,614.8,4,5,130.8,2.812
46.43,1,0.001,-0.036,0.008,0.01,-0.023,0.009,-1.581,-0.041,-0.179,45.41,87.2,40.582458,-3.547767,614.8,4,5,130.8,2.812
46.53,1,-0.084,-0.068,-0.02,-0.053,-0.052,-0.001,-1.58,-0.038,-0.178,45.41,87.2,40.582458,-3.547767,614.8,4,5,130.8,2.812
46.63,1,-0.051,-0.044,0.008,-0.05,-0.051,-0.007,-1.582,-0.037,-0.176,45.41,87.2,40.582458,-3.547767,614.8,4,5,130.8,2.812
46.73,1,-0.066,-0.019,-0.004,-0.073,-0.039,0.004,-1.581,-0.039,-0.175,45.41,87.2,40.582458,-3.547767,614.8,4,5,130.8,2.812
46.83,1,0.063,-0.018,0.016,-0.007,-0.022,0.006,-1.581,-0.037,-0.174,46.4,88.1,40.582317,-3.547554,615.1,4,5,132.5,3.516
46.94,1,-0.031,-0.017,-0.006,0.004,-0.017,0.003,-1.579,-0.033,-0.173,46.4,88.1,40.582317,-3.547554,615.1,4,5,132.5,3.516
47.04,1,-0.009,-0.012,-0.031,-0.021,-0.017,-0.014,-1.58,-0.031,-0.172,46.4,88.1,40.582317,-3.547554,615.1,4,5,132.5,3.516
47.13,1,-0.062,-0.03,-0.029,-0.017,-0.02,-0.026,-1.58,-0.032,-0.17,46.4,88.1,40.582317,-3.547554,615.1,4,5,132.5,3.516
47.23,1,0.011,-0.01,0.006,-0.025,-0.018,-0.011,-1.581,-0.031,-0.169,46.4,88.1,40.582317,-3.547554,615.1,4,5,132.5,3.516
47.34,1,-0.002,-0.018,-0.037,-0.002,-0.014,-0.023,-1.578,-0.029,-0.168,46.4,88.1,40.582317,-3.547554,615.1,4,5,132.5,3.516
47.44,1,-0.008,-0.027,-0.023,-0.003,-0.024,-0.02,-1.577,-0.026,-0.166,46.4,88.1,40.582317,-3.547554,615.1,4,5,132.5,3.516
47.63,1,0.039,-0.008,-0.051,0.01,-0.011,-0.043,-1.568,-0.023,-0.164,46.4,88.1,40.582317,-3.547554,615.1,4,5,132.5,3.516
47.73,1,-0.01,-0.028,-0.053,0.001,-0.018,-0.054,-1.561,-0.021,-0.162,46.4,88.1,40.582317,-3.547554,615.1,4,5,132.5,3.516
47.83,1,-0.046,0.001,-0.046,-0.024,-0.014,-0.047,-1.556,-0.021,-0.161,46.4,88.1,40.582317,-3.547554,615.1,4,5,132.5,3.516
47.93,1,-0.01,0.012,-0.035,-0.013,-0.0,-0.039,-1.554,-0.021,-0.159,47.45,88.7,40.582157,-3.54734,615.6,4,5,133.6,2.812
48.03,1,-0.02,-0.012,-0.032,-0.014,0.001,-0.037,-1.55,-0.022,-0.158,47.45,88.7,40.582157,-3.54734,615.6,4,5,133.6,2.812
48.14,1,-0.023,0.005,-0.058,-0.018,-0.001,-0.041,-1.546,-0.019,-0.156,47.45,88.7,40.582157,-3.54734,615.6,4,5,133.6,2.812
48.23,1,0.003,-0.004,-0.047,-0.012,0.003,-0.053,-1.538,-0.017,-0.155,47.45,88.7,40.582157,-3.54734,615.6,4,5,133.6,2.812
48.33,1,-0.035,0.016,-0.045,-0.018,0.004,-0.047,-1.536,-0.016,-0.153,47.45,88.7,40.582157,-3.54734,615.6,4,5,133.6,2.812
48.43,1,-0.013,-0.02,-0.042,-0.029,-0.007,-0.038,-1.534,-0.014,-0.151,47.45,88.7,40.582157,-3.54734,615.6,4,5,133.6,2.812
48.53,1,0.023,-0.022,-0.01,0.002,-0.012,-0.031,-1.529,-0.015,-0.148,47.45,88.7,40.582157,-3.54734,615.6,4,5,133.6,2.812
48.64,1,-0.053,-0.006,-0.042,-0.011,-0.012,-0.033,-1.525,-0.014,-0.145,47.45,88.7,40.582157,-3.54734,615.6,4,5,133.6,2.812
48.73,1,0.008,0.007,-0.011,-0.008,-0.006,-0.025,-1.524,-0.012,-0.143,47.45,88.7,40.582157,-3.54734,615.6,4,5,133.6,2.812
48.84,1,-0.043,-0.013,0.057,-0.019,-0.004,0.011,-1.526,-0.011,-0.14,47.45,88.7,40.582157,-3.54734,615.6,4,5,133.6,2.812
48.94,1,-0.055,-0.016,0.056,-0.042,-0.01,0.042,-1.532,-0.011,-0.138,48.46,89.0,40.582001,-3.547123,616.1,4,5,134.3,1.758
49.03,1,0.011,-0.034,0.036,-0.027,-0.022,0.039,-1.537,-0.009,-0.135,48.46,89.0,40.582001,-3.547123,616.1,4,5,134.3,1.758
49.13,1,-0.051,-0.025,0.029,-0.03,-0.027,0.038,-1.54,-0.008,-0.133,48.46,89.0,40.582001,-3.547123,616.1,4,5,134.3,1.758
49.23,1,0.04,-0.007,0.048,-0.006,-0.018,0.034,-1.543,-0.01,-0.131,48.46,89.0,40.582001,-3.547123,616.1,4,5,134.3,1.758
49.34,1,-0.012,-0.023,0.041,0.009,-0.01,0.044,-1.544,-0.01,-0.128,48.46,89.0,40.582001,-3.547123,616.1,4,5,134.3,1.758
49.44,1,-0.044,-0.009,0.05,-0.029,-0.018,0.042,-1.547,-0.011,-0.126,48.46,89.0,40.582001,-3.547123,616.1,4,5,134.3,1.758
49.54,1,-0.003,-0.013,0.055,-0.03,-0.014,0.053,-1.552,-0.01,-0.124,48.46,89.0,40.582001,-3.547123,616.1,4,5,134.3,1.758
49.64,1,0.016,-0.004,0.015,0.008,-0.01,0.037,-1.552,-0.01,-0.122,48.46,89.0,40.582001,-3.547123,616.1,4,5,134.3,1.758
49.74,1,0.001,-0.028,0.059,0.002,-0.008,0.04,-1.556,-0.006,-0.119,48.46,89.0,40.582001,-3.547123,616.1,4,5,134.3,1.758
49.84,1,-0.016,0.016,0.049,-0.01,-0.013,0.048,-1.561,-0.007,-0.117,48.46,89.0,40.582001,-3.547123,616.1,4,5,134.3,1.758
49.94,1,0.041,-0.007,0.044,0.013,-0.005,0.046,-1.563,-0.007,-0.115,49.41,88.1,40.581833,-3.546914,616.2,4,5,135.0,1.406
50.04,1,-0.048,-0.011,0.006,-0.002,-0.002,0.026,-1.566,-0.004,-0.112,49.41,88.1,40.581833,-3.546914,616.2,4,5,135.0,1.406
50.14,1,-0.002,-0.011,0.036,-0.011,-0.011,0.031,-1.571,-0.003,-0.11,49.41,88.1,40.581833,-3.546914,616.2,4,5,135.0,1.406
50.24,1,0.018,-0.001,0.017,0.007,-0.007,0.029,-1.57,-0.0,-0.108,49.41,88.1,40.581833,-3.546914,616.2,4,5,135.0,1.406
50.34,1,-0.002,-0.003,0.027,0.003,-0.003,0.022,-1.571,0.002,-0.106,49.41,88.1,40.581833,-3.546914,616.2,4,5,135.0,1.406
50.44,1,0.016,-0.027,-0.003,0.002,-0.012,0.018,-1.573,0.006,-0.103,49.41,88.1,40.581833,-3.546914,616.2,4,5,135.0,1.406
50.54,1,-0.033,0.011,0.018,-0.012,-0.01,0.013,-1.576,0.003,-0.101,49.41,88.1,40.581833,-3.546914,616.2,4,5,135.0,1.406
50.64,1,-0.017,-0.002,0.01,-0.019,0.003,0.007,-1.576,0.0,-0.099,49.41,88.1,40.581833,-3.546914,616.2,4,5,135.0,1.406
50.74,1,0.07,-0.017,0.017,0.02,-0.014,0.019,-1.576,0.004,-0.097,49.41,88.1,40.581833,-3.546914,616.2,4,5,135.0,1.406
50.84,1,0.027,-0.001,0.014,0.041,-0.003,0.013,-1.576,0.009,-0.094,49.41,88.1,40.581833,-3.546914,616.2,4,5,135.0,1.406
50.94,1,-0.056,0.008,0.005,-0.018,0.003,0.008,-1.576,0.007,-0.092,50.46,87.7,40.581676,-3.546701,616.7,4,5,135.0,0.703
51.04,1,-0.011,-0.015,-0.002,-0.012,-0.004,0.009,-1.576,0.003,-0.09,50.46,87.7,40.581676,-3.546701,616.7,4,5,135.0,0.703
51.15,1,-0.034,0.018,0.022,-0.015,0.003,0.01,-1.577,0.002,-0.088,50.46,87.7,40.581676,-3.546701,616.7,4,5,135.0,0.703
51.24,1,-0.03,-0.005,0.0,-0.03,0.001,0.007,-1.578,0.003,-0.086,50.46,87.7,40.581676,-3.546701,616.7,4,5,135.0,0.703
51.34,1,-0.008,-0.012,0.014,-0.02,-0.006,0.007,-1.579,0.006,-0.084,50.46,87.7,40.581676,-3.546701,616.7,4,5,135.0,0.703
51.44,1,0.07,-0.007,-0.02,0.014,-0.01,-0.002,-1.578,0.006,-0.082,50.46,87.7,40.581676,-3.546701,616.7,4,5,135.0,0.703
51.54,1,-0.033,-0.017,-0.005,0.002,-0.007,-0.008,-1.578,0.004,-0.08,50.46,87.7,40.581676,-3.546701,616.7,4,5,135.0,0.703
51.65,1,-0.014,-0.031,-0.022,0.001,-0.022,-0.012,-1.578,0.005,-0.077,50.46,87.7,40.581676,-3.546701,616.7,4,5,135.0,0.703
51.75,1,-0.017,0.0,0.012,-0.014,-0.012,-0.002,-1.582,0.004,-0.075,50.46,87.7,40.581676,-3.546701,616.7,4,5,135.0,0.703
51.84,1,-0.037,0.006,-0.019,-0.02,-0.003,-0.009,-1.58,0.005,-0.072,50.46,87.7,40.581676,-3.546701,616.7,4,5,135.0,0.703
51.94,1,0.0,0.012,-0.021,-0.026,0.002,-0.014,-1.581,0.009,-0.069,51.41,87.6,40.581528,-3.546499,616.7,4,5,134.6,0.352
52.04,1,-0.031,-0.023,-0.007,-0.02,-0.006,-0.015,-1.579,0.011,-0.067,51.41,87.6,40.581528,-3.546499,616.7,4,5,134.6,0.352
52.14,1,-0.039,-0.011,-0.036,-0.028,-0.011,-0.02,-1.577,0.012,-0.065,51.41,87.6,40.581528,-3.546499,616.7,4,5,134.6,0.352
52.24,1,-0.014,-0.02,-0.009,-0.021,-0.017,-0.018,-1.577,0.012,-0.062,51.41,87.6,40.581528,-3.546499,616.7,4,5,134.6,0.352
52.34,1,-0.004,0.005,-0.038,-0.012,-0.003,-0.022,-1.577,0.008,-0.06,51.41,87.6,40.581528,-3.546499,616.7,4,5,134.6,0.352
52.44,1,-0.007,-0.026,-0.02,-0.009,-0.012,-0.03,-1.577,0.008,-0.058,51.41,87.6,40.581528,-3.546499,616.7,4,5,134.6,0.352
52.54,1,-0.045,-0.023,-0.028,-0.025,-0.018,-0.031,-1.574,0.004,-0.055,51.41,87.6,40.581528,-3.546499,616.7,4,5,134.6,0.352
52.64,1,-0.023,0.007,-0.012,-0.034,-0.015,-0.012,-1.575,0.002,-0.053,51.41,87.6,40.581528,-3.546499,616.7,4,5,134.6,0.352
52.74,1,-0.041,-0.017,-0.017,-0.021,-0.009,-0.021,-1.578,0.001,-0.051,51.41,87.6,40.581528,-3.546499,616.7,4,5,134.6,0.352
52.84,1,-0.001,0.014,-0.026,-0.027,-0.002,-0.019,-1.579,0.001,-0.049,51.41,87.6,40.581528,-3.546499,616.7,4,5,134.6,0.352
52.94,1,0.018,0.018,0.01,0.001,0.012,-0.009,-1.579,-0.001,-0.047,52.42,88.3,40.581367,-3.546284,617.0,4,5,134.6,0.352
53.05,1,-0.065,0.044,-0.002,-0.016,0.028,-0.004,-1.577,-0.003,-0.045,52.42,88.3,40.581367,-3.546284,617.0,4,5,134.6,0.352
53.15,1,0.023,-0.031,0.009,-0.016,0.007,0.0,-1.577,-0.003,-0.044,52.42,88.3,40.581367,-3.546284,617.0,4,5,134.6,0.352
53.24,1,0.01,-0.001,-0.037,0.015,-0.006,-0.009,-1.577,-0.004,-0.042,52.42,88.3,40.581367,-3.546284,617.0,4,5,134.6,0.352
53.34,1,-0.047,-0.004,0.006,-0.032,-0.006,-0.014,-1.576,-0.002,-0.041,52.42,88.3,40.581367,-3.546284,617.0,4,5,134.6,0.352
53.45,1,-0.037,0.026,-0.007,-0.031,0.008,-0.003,-1.578,-0.003,-0.039,52.42,88.3,40.581367,-3.546284,617.0,4,5,134.6,0.352
53.55,1,-0.008,0.002,0.011,-0.026,0.007,0.004,-1.579,-0.004,-0.038,52.42,88.3,40.581367,-3.546284,617.0,4,5,134.6,0.352
53.66,1,-0.036,0.015,-0.006,-0.024,0.012,-0.0,-1.578,-0.003,-0.036,52.42,88.3,40.581367,-3.546284,617.0,4,5,134.6,0.352
53.75,1,-0.018,-0.006,0.001,-0.031,0.004,-0.003,-1.577,-0.001,-0.035,52.42,88.3,40.581367,-3.546284,617.0,4,5,134.6,0.352
53.85,1,-0.017,0.016,-0.005,-0.014,0.007,-0.001,-1.577,-0.002,-0.034,52.42,88.3,40.581367,-3.546284,617.0,4,5,134.6,0.352
53.95,1,-0.001,-0.022,0.024,-0.017,0.0,0.004,-1.581,-0.005,-0.032,53.41,88.3,40.581207,-3.546079,617.7,4,5,134.3,0.352
54.05,1,-0.02,0.018,-0.04,-0.012,-0.003,-0.006,-1.579,-0.005,-0.031,53.41,88.3,40.581207,-3.546079,617.7,4,5,134.3,0.352
54.15,1,-0.026,-0.02,0.015,-0.015,-0.0,-0.002,-1.582,-0.008,-0.029,53.41,88.3,40.581207,-3.546079,617.7,4,5,134.3,0.352
54.25,1,0.007,0.002,-0.018,-0.016,-0.004,-0.007,-1.583,-0.007,-0.027,53.41,88.3,40.581207,-3.546079,617.7,4,5,134.3,0.352
54.35,1,0.116,-0.023,-0.004,0.045,-0.01,-0.007,-1.583,-0.006,-0.026,53.41,88.3,40.581207,-3.546079,617.7,4,5,134.3,0.352
54.46,1,-0.03,-0.008,-0.015,0.05,-0.012,-0.008,-1.583,-0.005,-0.024,53.41,88.3,40.581207,-3.546079,617.7,4,5,134.3,0.352
54.55,1,0.018,-0.018,0.012,-0.002,-0.016,-0.004,-1.583,-0.008,-0.023,53.41,88.3,40.581207,-3.546079,617.7,4,5,134.3,0.352
54.65,1,-0.054,0.004,-0.011,-0.008,-0.006,-0.001,-1.583,-0.009,-0.021,53.41,88.3,40.581207,-3.546079,617.7,4,5,134.3,0.352
54.75,1,-0.06,-0.033,0.018,-0.04,-0.012,0.001,-1.584,-0.008,-0.019,53.41,88.3,40.581207,-3.546079,617.7,4,5,134.3,0.352
54.86,1,-0.029,0.013,0.013,-0.048,-0.009,0.009,-1.585,-0.004,-0.017,53.41,88.3,40.581207,-3.546079,617.7,4,5,134.3,0.352
54.95,1,-0.003,-0.015,-0.017,-0.015,-0.004,0.003,-1.586,-0.002,-0.015,54.45,88.8,40.581047,-3.545866,617.8,4,5,134.3,0.352
55.07,1,0.009,-0.018,0.019,-0.015,-0.014,0.002,-1.588,-0.001,-0.014,54.45,88.8,40.581047,-3.545866,617.8,4,5,134.3,0.352
55.16,1,-0.046,-0.015,-0.012,-0.011,-0.018,0.003,-1.59,0.001,-0.012,54.45,88.8,40.581047,-3.545866,617.8,4,5,134.3,0.352
55.25,1,0.013,-0.014,-0.009,-0.015,-0.015,-0.005,-1.59,0.0,-0.011,54.45,88.8,40.581047,-3.545866,617.8,4,5,134.3,0.352
55.35,1,-0.012,-0.008,0.003,-0.005,-0.011,-0.001,-1.59,-0.001,-0.009,54.45,88.8,40.581047,-3.545866,617.8,4,5,134.3,0.352
55.45,1,-0.041,-0.005,-0.021,-0.034,-0.009,-0.015,-1.587,0.0,-0.007,54.45,88.8,40.581047,-3.545866,617.8,4,5,134.3,0.352
55.57,1,-0.025,-0.005,-0.007,-0.023,-0.006,-0.005,-1.588,0.004,-0.004,54.45,88.8,40.581047,-3.545866,617.8,4,5,134.3,0.352
55.66,1,-0.018,-0.021,-0.02,-0.021,-0.014,-0.02,-1.586,0.006,-0.002,54.45,88.8,40.581047,-3.545866,617.8,4,5,134.3,0.352
55.75,1,-0.021,-0.034,-0.002,-0.017,-0.021,-0.01,-1.588,0.006,0.001,54.45,88.8,40.581047,-3.545866,617.8,4,5,134.3,0.352
55.85,1,0.011,-0.007,-0.025,-0.009,-0.023,-0.014,-1.589,0.005,0.003,54.45,88.8,40.581047,-3.545866,617.8,4,5,134.3,0.352
55.95,1,0.043,0.007,-0.008,0.019,-0.001,-0.016,-1.588,0.004,0.005,55.47,89.9,40.580883,-3.545656,618.3,4,5,134.3,0.0
56.06,1,-0.012,-0.041,-0.023,0.011,-0.012,-0.015,-1.588,0.007,0.007,55.47,89.9,40.580883,-3.545656,618.3,4,5,134.3,0.0
56.16,1,-0.014,-0.006,-0.021,0.002,-0.023,-0.021,-1.587,0.011,0.009,55.47,89.9,40.580883,-3.545656,618.3,4,5,134.3,0.0
56.26,1,-0.033,0.007,0.001,-0.027,-0.004,-0.01,-1.587,0.011,0.011,55.47,89.9,40.580883,-3.545656,618.3,4,5,134.3,0.0
56.35,1,-0.048,0.008,-0.037,-0.034,0.0,-0.016,-1.588,0.012,0.013,55.47,89.9,40.580883,-3.545656,618.3,4,5,134.3,0.0
56.46,1,0.005,-0.015,0.006,-0.027,-0.002,-0.012,-1.59,0.01,0.015,55.47,89.9,40.580883,-3.545656,618.3,4,5,134.3,0.0
56.55,1,0.027,-0.006,-0.017,0.008,-0.01,-0.012,-1.587,0.008,0.017,55.47,89.9,40.580883,-3.545656,618.3,4,5,134.3,0.0
56.66,1,-0.032,-0.002,-0.024,-0.004,-0.005,-0.016,-1.587,0.006,0.019,55.47,89.9,40.580883,-3.545656,618.3,4,5,134.3,0.0
56.76,1,-0.023,-0.011,0.02,-0.018,-0.006,-0.007,-1.587,0.008,0.021,55.47,89.9,40.580883,-3.545656,618.3,4,5,134.3,0.0
56.86,1,-0.006,0.001,0.004,-0.013,-0.006,0.007,-1.587,0.011,0.022,55.47,89.9,40.580883,-3.545656,618.3,4,5,134.3,0.0
56.95,1,-0.054,0.014,-0.022,-0.029,0.005,-0.007,-1.588,0.01,0.024,56.42,90.4,40.580734,-3.545442,618.7,4,5,133.9,0.352
57.06,1,-0.017,0.012,0.006,-0.03,0.011,-0.003,-1.589,0.009,0.025,56.42,90.4,40.580734,-3.545442,618.7,4,5,133.9,0.352
57.16,1,-0.016,0.001,-0.013,-0.025,0.007,-0.008,-1.59,0.009,0.027,56.42,90.4,40.580734,-3.545442,618.7,4,5,133.9,0.352
57.25,1,0.089,0.012,-0.035,0.023,0.005,-0.018,-1.588,0.007,0.029,56.42,90.4,40.580734,-3.545442,618.7,4,5,133.9,0.352
57.36,1,-0.012,0.003,-0.026,0.025,0.005,-0.028,-1.587,0.006,0.03,56.42,90.4,40.580734,-3.545442,618.7,4,5,133.9,0.352
57.56,1,0.029,0.005,-0.004,0.017,0.007,-0.014,-1.584,0.008,0.034,56.42,90.4,40.580734,-3.545442,618.7,4,5,133.9,0.352
57.66,1,-0.039,-0.016,0.009,-0.014,-0.001,-0.003,-1.583,0.006,0.035,56.42,90.4,40.580734,-3.545442,618.7,4,5,133.9,0.352
57.76,1,-0.009,-0.01,-0.007,-0.015,-0.012,0.001,-1.585,0.005,0.037,56.42,90.4,40.580734,-3.545442,618.7,4,5,133.9,0.352
57.86,1,-0.053,0.005,-0.015,-0.036,-0.006,-0.012,-1.584,0.005,0.039,56.42,90.4,40.580734,-3.545442,618.7,4,5,133.9,0.352
57.96,1,0.007,-0.006,-0.033,-0.017,-0.0,-0.02,-1.584,0.008,0.04,56.42,90.4,40.580734,-3.545442,618.7,4,5,133.9,0.352
58.06,1,-0.044,-0.015,0.013,-0.014,-0.008,-0.01,-1.584,0.009,0.042,57.4,90.5,40.580578,-3.545233,619.1,4,5,133.2,1.055
58.17,1,-0.001,-0.007,-0.008,-0.029,-0.008,-0.003,-1.583,0.01,0.044,57.4,90.5,40.580578,-3.545233,619.1,4,5,133.2,1.055
58.27,1,-0.015,-0.017,-0.014,-0.0,-0.012,-0.004,-1.582,0.009,0.046,57.4,90.5,40.580578,-3.545233,619.1,4,5,133.2,1.055
58.36,1,-0.092,-0.013,0.009,-0.047,-0.014,-0.008,-1.584,0.008,0.048,57.4,90.5,40.580578,-3.545233,619.1,4,5,133.2,1.055
58.46,1,-0.031,0.004,-0.0,-0.058,-0.005,0.003,-1.585,0.008,0.05,57.4,90.5,40.580578,-3.545233,619.1,4,5,133.2,1.055
58.56,1,0.004,-0.015,0.004,-0.024,-0.006,0.002,-1.584,0.009,0.052,57.4,90.5,40.580578,-3.545233,619.1,4,5,133.2,1.055
58.66,1,0.012,-0.018,0.009,0.013,-0.018,0.003,-1.583,0.009,0.054,57.4,90.5,40.580578,-3.545233,619.1,4,5,133.2,1.055
58.76,1,-0.066,0.028,-0.018,-0.022,-0.001,0.002,-1.582,0.009,0.055,57.4,90.5,40.580578,-3.545233,619.1,4,5,133.2,1.055
58.87,1,-0.016,-0.018,-0.009,-0.043,0.006,-0.015,-1.58,0.007,0.057,57.4,90.5,40.580578,-3.545233,619.1,4,5,133.2,1.055
58.96,1,-0.007,0.005,0.005,-0.01,-0.001,-0.003,-1.581,0.007,0.059,57.4,90.5,40.580578,-3.545233,619.1,4,5,133.2,1.055
59.06,1,0.062,-0.038,-0.009,0.01,-0.017,0.001,-1.583,0.008,0.06,58.42,90.9,40.580414,-3.54501,619.5,4,5,132.9,1.055
59.16,1,-0.048,0.003,-0.005,0.004,-0.015,-0.005,-1.584,0.01,0.062,58.42,90.9,40.580414,-3.54501,619.5,4,5,132.9,1.055
59.26,1,0.029,0.014,0.006,0.001,0.0,0.002,-1.582,0.012,0.063,58.42,90.9,40.580414,-3.54501,619.5,4,5,132.9,1.055
59.36,1,0.024,0.031,-0.003,0.008,0.026,-0.003,-1.578,0.01,0.065,58.42,90.9,40.580414,-3.54501,619.5,4,5,132.9,1.055
59.46,1,0.008,-0.007,-0.007,0.026,0.006,-0.0,-1.577,0.008,0.066,58.42,90.9,40.580414,-3.54501,619.5,4,5,132.9,1.055
59.57,1,0.001,-0.019,0.01,-0.002,-0.001,-0.001,-1.577,0.007,0.068,58.42,90.9,40.580414,-3.54501,619.5,4,5,132.9,1.055
59.66,1,-0.049,0.009,-0.024,-0.002,-0.005,-0.007,-1.579,0.01,0.069,58.42,90.9,40.580414,-3.54501,619.5,4,5,132.9,1.055
59.76,1,-0.024,-0.015,-0.028,-0.046,-0.005,-0.023,-1.58,0.01,0.071,58.42,90.9,40.580414,-3.54501,619.5,4,5,132.9,1.055
59.87,1,-0.016,-0.001,0.026,-0.01,-0.005,-0.001,-1.582,0.008,0.072,58.42,90.9,40.580414,-3.54501,619.5,4,5,132.9,1.055
59.96,1,-0.035,0.013,-0.016,-0.041,0.003,-0.005,-1.582,0.006,0.073,58.42,90.9,40.580414,-3.54501,619.5,4,5,132.9,1.055
60.07,1,0.015,0.018,-0.009,-0.003,0.006,-0.007,-1.58,0.009,0.075,59.41,91.3,40.580257,-3.544793,620.2,4,5,132.2,1.055
60.17,1,-0.068,-0.006,-0.007,-0.018,0.006,-0.006,-1.578,0.012,0.076,59.41,91.3,40.580257,-3.544793,620.2,4,5,132.2,1.055
60.26,1,0.028,-0.01,0.003,-0.036,0.004,-0.006,-1.577,0.013,0.078,59.41,91.3,40.580257,-3.544793,620.2,4,5,132.2,1.055
60.36,1,-0.006,-0.011,0.025,0.011,-0.007,0.013,-1.577,0.013,0.079,59.41,91.3,40.580257,-3.544793,620.2,4,5,132.2,1.055
60.46,1,-0.047,-0.005,-0.01,-0.022,-0.004,0.005,-1.576,0.014,0.08,59.41,91.3,40.580257,-3.544793,620.2,4,5,132.2,1.055
60.57,1,0.01,0.01,-0.026,-0.004,-0.006,-0.012,-1.576,0.009,0.082,59.41,91.3,40.580257,-3.544793,620.2,4,5,132.2,1.055
60.66,1,-0.013,0.042,0.016,-0.014,0.022,-0.004,-1.57,0.013,0.083,59.41,91.3,40.580257,-3.544793,620.2,4,5,132.2,1.055
60.76,1,-0.064,-0.005,-0.001,-0.022,0.01,0.006,-1.569,0.014,0.084,59.41,91.3,40.580257,-3.544793,620.2,4,5,132.2,1.055
60.86,1,-0.036,0.004,-0.026,-0.053,0.007,-0.011,-1.566,0.014,0.086,59.41,91.3,40.580257,-3.544793,620.2,4,5,132.2,1.055
60.96,1,0.037,0.003,-0.04,0.004,0.003,-0.025,-1.563,0.014,0.087,59.41,91.3,40.580257,-3.544793,620.2,4,5,132.2,1.055
61.06,1,-0.052,-0.015,-0.047,-0.014,-0.004,-0.038,-1.559,0.015,0.088,60.39,91.7,40.580112,-3.544575,620.7,4,5,131.5,1.406
61.16,1,-0.027,0.01,-0.057,-0.034,0.002,-0.049,-1.552,0.014,0.089,60.39,91.7,40.580112,-3.544575,620.7,4,5,131.5,1.406
61.27,1,-0.049,0.012,-0.064,-0.034,0.005,-0.052,-1.55,0.015,0.09,60.39,91.7,40.580112,-3.544575,620.7,4,5,131.5,1.406
61.37,1,-0.072,0.021,-0.05,-0.058,0.013,-0.063,-1.546,0.02,0.092,60.39,91.7,40.580112,-3.544575,620.7,4,5,131.5,1.406
61.46,1,-0.005,0.01,-0.057,-0.049,0.014,-0.061,-1.54,0.022,0.093,60.39,91.7,40.580112,-3.544575,620.7,4,5,131.5,1.406
61.56,1,0.165,0.004,-0.038,0.048,0.008,-0.04,-1.536,0.023,0.094,60.39,91.7,40.580112,-3.544575,620.7,4,5,131.5,1.406
61.67,1,-0.015,0.023,-0.047,0.051,0.015,-0.047,-1.532,0.021,0.094,60.39,91.7,40.580112,-3.544575,620.7,4,5,131.5,1.406
61.77,1,0.0,0.018,-0.041,0.023,0.017,-0.046,-1.529,0.019,0.095,60.39,91.7,40.580112,-3.544575,620.7,4,5,131.5,1.406
61.87,1,-0.018,0.001,-0.04,0.001,0.012,-0.038,-1.53,0.016,0.097,60.39,91.7,40.580112,-3.544575,620.7,4,5,131.5,1.406
61.97,1,-0.024,-0.01,-0.027,-0.019,-0.003,-0.036,-1.527,0.019,0.099,60.39,91.7,40.580112,-3.544575,620.7,4,5,131.5,1.406
62.08,1,0.03,-0.014,-0.023,0.006,-0.012,-0.03,-1.522,0.023,0.101,61.4,92.3,40.579964,-3.54435,621.1,4,5,130.8,1.406
62.17,1,0.031,-0.022,-0.004,0.029,-0.009,-0.015,-1.518,0.025,0.104,61.4,92.3,40.579964,-3.54435,621.1,4,5,130.8,1.406
62.27,1,-0.061,0.009,-0.064,-0.014,-0.01,-0.036,-1.514,0.031,0.105,61.4,92.3,40.579964,-3.54435,621.1,4,5,130.8,1.406
62.37,1,0.008,-0.003,0.011,-0.016,0.001,-0.021,-1.515,0.033,0.107,61.4,92.3,40.579964,-3.54435,621.1,4,5,130.8,1.406
62.47,1,0.002,0.018,-0.034,-0.012,0.008,-0.021,-1.512,0.033,0.108,61.4,92.3,40.579964,-3.54435,621.1,4,5,130.8,1.406
62.57,1,0.018,0.009,-0.036,0.01,0.004,-0.03,-1.509,0.03,0.11,61.4,92.3,40.579964,-3.54435,621.1,4,5,130.8,1.406
62.67,1,0.009,0.005,-0.038,0.007,0.013,-0.035,-1.505,0.028,0.111,61.4,92.3,40.579964,-3.54435,621.1,4,5,130.8,1.406
62.77,1,-0.012,0.007,-0.038,0.003,0.004,-0.036,-1.503,0.026,0.112,61.4,92.3,40.579964,-3.54435,621.1,4,5,130.8,1.406
62.87,1,-0.01,0.022,0.013,-0.0,0.015,-0.012,-1.504,0.026,0.113,61.4,92.3,40.579964,-3.54435,621.1,4,5,130.8,1.406
62.97,1,0.033,0.018,-0.0,-0.003,0.015,-0.006,-1.503,0.026,0.115,61.4,92.3,40.579964,-3.54435,621.1,4,5,130.8,1.406
63.07,1,0.023,0.045,-0.014,0.027,0.031,-0.006,-1.499,0.026,0.115,62.41,91.1,40.579819,-3.544124,621.5,4,5,130.1,1.406
63.17,1,-0.006,0.037,0.012,0.016,0.032,-0.005,-1.497,0.026,0.116,62.41,91.1,40.579819,-3.544124,621.5,4,5,130.1,1.406
63.28,1,-0.013,0.021,-0.019,-0.004,0.03,-0.005,-1.493,0.028,0.117,62.41,91.1,40.579819,-3.544124,621.5,4,5,130.1,1.406
63.37,1,-0.012,0.021,0.015,-0.012,0.023,0.001,-1.491,0.024,0.118,62.41,91.1,40.579819,-3.544124,621.5,4,5,130.1,1.406
63.47,1,-0.048,0.045,0.019,-0.029,0.035,0.012,-1.491,0.021,0.119,62.41,91.1,40.579819,-3.544124,621.5,4,5,130.1,1.406
63.57,1,-0.064,0.063,0.018,-0.046,0.045,0.015,-1.492,0.022,0.119,62.41,91.1,40.579819,-3.544124,621.5,4,5,130.1,1.406
63.68,1,-0.013,0.008,0.016,-0.039,0.037,0.015,-1.493,0.021,0.12,62.41,91.1,40.579819,-3.544124,621.5,4,5,130.1,1.406
63.78,1,0.007,0.021,0.009,-0.005,0.023,0.013,-1.49,0.021,0.121,62.41,91.1,40.579819,-3.544124,621.5,4,5,130.1,1.406
63.88,1,0.009,0.017,0.012,0.0,0.021,0.009,-1.489,0.021,0.122,62.41,91.1,40.579819,-3.544124,621.5,4,5,130.1,1.406
63.98,1,-0.005,0.016,-0.003,-0.002,0.021,0.008,-1.488,0.019,0.122,62.41,91.1,40.579819,-3.544124,621.5,4,5,130.1,1.406
64.07,1,0.039,0.021,0.003,0.013,0.02,-0.001,-1.49,0.02,0.123,63.39,89.1,40.579674,-3.543898,621.8,4,5,129.4,1.406
64.17,1,0.012,-0.002,-0.039,0.013,0.01,-0.009,-1.496,0.02,0.124,63.39,89.1,40.579674,-3.543898,621.8,4,5,129.4,1.406
64.27,1,-0.017,0.022,0.015,0.014,0.014,-0.007,-1.5,0.017,0.124,63.39,89.1,40.579674,-3.543898,621.8,4,5,129.4,1.406
64.37,1,-0.071,0.024,0.042,-0.033,0.019,0.014,-1.503,0.015,0.125,63.39,89.1,40.579674,-3.543898,621.8,4,5,129.4,1.406
64.48,1,0.028,0.023,0.042,-0.016,0.023,0.031,-1.506,0.015,0.126,63.39,89.1,40.579674,-3.543898,621.8,4,5,129.4,1.406
64.57,1,-0.035,0.02,0.06,-0.014,0.02,0.044,-1.511,0.016,0.126,63.39,89.1,40.579674,-3.543898,621.8,4,5,129.4,1.406
64.67,1,-0.016,0.008,0.082,-0.027,0.01,0.067,-1.518,0.018,0.127,63.39,89.1,40.579674,-3.543898,621.8,4,5,129.4,1.406
64.77,1,-0.021,0.055,0.064,-0.025,0.028,0.067,-1.521,0.018,0.127,63.39,89.1,40.579674,-3.543898,621.8,4,5,129.4,1.406
64.87,1,-0.026,0.037,0.084,-0.02,0.037,0.076,-1.525,0.019,0.128,63.39,89.1,40.579674,-3.543898,621.8,4,5,129.4,1.406
64.97,1,-0.013,0.024,0.077,-0.011,0.034,0.077,-1.528,0.016,0.128,63.39,89.1,40.579674,-3.543898,621.8,4,5,129.4,1.406
65.08,1,0.043,0.019,0.078,0.017,0.026,0.078,-1.533,0.015,0.128,64.4,85.8,40.579544,-3.543678,622.2,4,5,128.7,1.406
65.18,1,-0.046,0.023,0.053,-0.018,0.022,0.065,-1.54,0.013,0.129,64.4,85.8,40.579544,-3.543678,622.2,4,5,128.7,1.406
65.27,1,-0.017,0.024,0.071,-0.025,0.021,0.064,-1.546,0.013,0.13,64.4,85.8,40.579544,-3.543678,622.2,4,5,128.7,1.406
65.37,1,0.016,0.016,0.038,-0.003,0.018,0.057,-1.548,0.014,0.13,64.4,85.8,40.579544,-3.543678,622.2,4,5,128.7,1.406
65.48,1,-0.023,0.001,0.013,-0.007,0.012,0.034,-1.553,0.009,0.13,64.4,85.8,40.579544,-3.543678,622.2,4,5,128.7,1.406
65.58,1,-0.028,0.006,0.043,-0.012,0.008,0.032,-1.559,0.01,0.131,64.4,85.8,40.579544,-3.543678,622.2,4,5,128.7,1.406
65.67,1,-0.074,-0.0,0.041,-0.045,0.01,0.042,-1.562,0.012,0.131,64.4,85.8,40.579544,-3.543678,622.2,4,5,128.7,1.406
65.78,1,-0.074,-0.011,0.046,-0.066,-0.004,0.043,-1.566,0.012,0.132,64.4,85.8,40.579544,-3.543678,622.2,4,5,128.7,1.406
65.88,1,-0.007,0.006,0.052,-0.043,-0.002,0.047,-1.569,0.013,0.133,64.4,85.8,40.579544,-3.543678,622.2,4,5,128.7,1.406
65.98,1,-0.009,0.011,0.038,-0.025,0.007,0.043,-1.567,0.016,0.134,64.4,85.8,40.579544,-3.543678,622.2,4,5,128.7,1.406
66.07,1,-0.001,-0.005,0.019,-0.005,0.003,0.032,-1.571,0.017,0.135,65.45,84.0,40.579422,-3.543468,622.7,4,5,128.0,1.406
66.18,1,-0.036,-0.006,0.019,-0.018,-0.001,0.025,-1.571,0.017,0.137,65.45,84.0,40.579422,-3.543468,622.7,4,5,128.0,1.406
66.28,1,-0.011,-0.018,0.05,-0.029,-0.012,0.032,-1.575,0.018,0.138,65.45,84.0,40.579422,-3.543468,622.7,4,5,128.0,1.406
66.4,1,-0.027,0.012,0.057,-0.013,-0.004,0.047,-1.579,0.017,0.139,65.45,84.0,40.579422,-3.543468,622.7,4,5,128.0,1.406
66.48,1,0.013,0.005,0.045,-0.013,0.005,0.047,-1.58,0.018,0.14,65.45,84.0,40.579422,-3.543468,622.7,4,5,128.0,1.406
66.58,1,-0.036,0.001,0.035,-0.003,0.006,0.042,-1.583,0.018,0.141,65.45,84.0,40.579422,-3.543468,622.7,4,5,128.0,1.406
66.68,1,-0.055,-0.003,0.006,-0.029,-0.004,0.025,-1.583,0.021,0.142,65.45,84.0,40.579422,-3.543468,622.7,4,5,128.0,1.406
66.78,1,0.013,0.006,-0.005,-0.02,0.0,0.012,-1.584,0.022,0.143,65.45,84.0,40.579422,-3.543468,622.7,4,5,128.0,1.406
66.88,1,-0.024,0.002,-0.003,-0.022,0.009,0.004,-1.586,0.022,0.144,65.45,84.0,40.579422,-3.543468,622.7,4,5,128.0,1.406
66.99,1,-0.019,0.028,0.01,-0.024,0.009,0.004,-1.586,0.02,0.144,65.45,84.0,40.579422,-3.543468,622.7,4,5,128.0,1.406
67.09,1,-0.023,-0.002,0.004,-0.017,0.011,0.004,-1.587,0.02,0.145,66.42,84.5,40.579288,-3.543251,622.8,4,5,127.3,1.406
67.18,1,-0.074,-0.001,-0.024,-0.04,0.002,-0.009,-1.588,0.022,0.146,66.42,84.5,40.579288,-3.543251,622.8,4,5,127.3,1.406
67.28,1,0.033,-0.019,0.005,-0.029,-0.008,-0.006,-1.587,0.022,0.146,66.42,84.5,40.579288,-3.543251,622.8,4,5,127.3,1.406
67.38,1,0.037,0.017,0.002,0.02,0.0,-0.005,-1.59,0.023,0.147,66.42,84.5,40.579288,-3.543251,622.8,4,5,127.3,1.406
67.58,1,-0.023,-0.018,-0.018,-0.007,0.002,-0.001,-1.594,0.022,0.15,66.42,84.5,40.579288,-3.543251,622.8,4,5,127.3,1.406
67.68,1,-0.034,-0.006,-0.007,-0.026,-0.007,-0.005,-1.593,0.025,0.152,66.42,84.5,40.579288,-3.543251,622.8,4,5,127.3,1.406
67.78,1,-0.024,-0.026,-0.007,-0.025,-0.016,-0.002,-1.593,0.026,0.153,66.42,84.5,40.579288,-3.543251,622.8,4,5,127.3,1.406
67.88,1,-0.037,-0.007,0.007,-0.028,-0.009,-0.0,-1.592,0.025,0.154,66.42,84.5,40.579288,-3.543251,622.8,4,5,127.3,1.406
67.98,1,0.003,-0.003,-0.021,-0.015,-0.01,-0.007,-1.591,0.025,0.156,66.42,84.5,40.579288,-3.543251,622.8,4,5,127.3,1.406
68.08,1,0.031,-0.004,0.018,0.003,-0.011,0.003,-1.59,0.025,0.157,66.42,84.5,40.579288,-3.543251,622.8,4,5,127.3,1.406
68.18,1,-0.029,-0.039,-0.019,0.005,-0.015,-0.005,-1.591,0.027,0.158,67.43,85.6,40.579155,-3.543033,623.2,4,5,126.9,1.055
68.29,1,-0.013,0.004,-0.014,-0.018,-0.011,-0.013,-1.591,0.026,0.159,67.43,85.6,40.579155,-3.543033,623.2,4,5,126.9,1.055
68.38,1,-0.062,0.005,-0.02,-0.036,-0.003,-0.019,-1.591,0.024,0.16,67.43,85.6,40.579155,-3.543033,623.2,4,5,126.9,1.055
68.48,1,0.008,0.019,0.022,-0.019,0.007,0.004,-1.591,0.026,0.16,67.43,85.6,40.579155,-3.543033,623.2,4,5,126.9,1.055
68.58,1,-0.002,-0.007,-0.011,-0.006,0.004,-0.006,-1.588,0.026,0.161,67.43,85.6,40.579155,-3.543033,623.2,4,5,126.9,1.055
68.68,1,0.004,0.001,-0.003,-0.006,0.0,-0.002,-1.588,0.029,0.162,67.43,85.6,40.579155,-3.543033,623.2,4,5,126.9,1.055
68.78,1,-0.018,0.018,-0.01,-0.006,0.004,-0.003,-1.588,0.031,0.163,67.43,85.6,40.579155,-3.543033,623.2,4,5,126.9,1.055
68.89,1,-0.012,0.026,-0.003,-0.012,0.019,-0.007,-1.585,0.028,0.163,67.43,85.6,40.579155,-3.543033,623.2,4,5,126.9,1.055
68.98,1,-0.037,0.021,-0.015,-0.02,0.023,-0.004,-1.585,0.027,0.164,67.43,85.6,40.579155,-3.543033,623.2,4,5,126.9,1.055
69.08,1,-0.048,0.005,-0.003,-0.029,0.013,-0.011,-1.584,0.028,0.165,67.43,85.6,40.579155,-3.543033,623.2,4,5,126.9,1.055
69.22,1,0.001,0.012,-0.034,-0.031,0.014,-0.022,-1.585,0.028,0.165,68.42,87.3,40.579025,-3.542808,623.7,4,5,126.2,1.055
69.29,1,-0.029,0.017,-0.023,-0.015,0.011,-0.021,-1.584,0.028,0.166,68.42,87.3,40.579025,-3.542808,623.7,4,5,126.2,1.055
69.38,1,0.007,0.017,0.009,-0.034,0.02,-0.015,-1.584,0.026,0.166,68.42,87.3,40.579025,-3.542808,623.7,4,5,126.2,1.055
69.49,1,0.029,0.035,-0.04,0.02,0.023,-0.016,-1.582,0.023,0.167,68.42,87.3,40.579025,-3.542808,623.7,4,5,126.2,1.055
69.59,1,-0.02,0.004,0.008,0.007,0.02,-0.008,-1.582,0.024,0.167,68.42,87.3,40.579025,-3.542808,623.7,4,5,126.2,1.055
69.68,1,-0.038,-0.015,-0.002,-0.018,0.003,-0.004,-1.582,0.026,0.168,68.42,87.3,40.579025,-3.542808,623.7,4,5,126.2,1.055
69.78,1,0.014,0.015,-0.011,-0.012,-0.003,-0.001,-1.583,0.025,0.169,68.42,87.3,40.579025,-3.542808,623.7,4,5,126.2,1.055
69.88,1,-0.001,0.002,-0.045,0.004,0.007,-0.024,-1.581,0.023,0.169,68.42,87.3,40.579025,-3.542808,623.7,4,5,126.2,1.055
70.0,1,0.007,0.014,-0.023,0.002,0.009,-0.032,-1.579,0.023,0.17,68.42,87.3,40.579025,-3.542808,623.7,4,5,126.2,1.055
70.08,1,-0.052,0.01,-0.027,-0.024,0.01,-0.027,-1.578,0.023,0.171,68.42,87.3,40.579025,-3.542808,623.7,4,5,126.2,1.055
70.2,1,-0.027,0.011,-0.024,-0.032,0.011,-0.027,-1.578,0.024,0.171,69.41,87.5,40.578903,-3.542573,624.1,4,5,125.2,1.758
70.29,1,-0.014,-0.007,-0.012,-0.019,-0.002,-0.02,-1.577,0.022,0.172,69.41,87.5,40.578903,-3.542573,624.1,4,5,125.2,1.758
70.39,1,0.021,-0.004,-0.037,-0.008,0.003,-0.023,-1.576,0.019,0.173,69.41,87.5,40.578903,-3.542573,624.1,4,5,125.2,1.758
70.49,1,0.041,0.002,-0.026,0.025,-0.003,-0.027,-1.576,0.019,0.174,69.41,87.5,40.578903,-3.542573,624.1,4,5,125.2,1.758
70.59,1,-0.014,-0.026,-0.005,0.002,-0.013,-0.019,-1.576,0.02,0.175,69.41,87.5,40.578903,-3.542573,624.1,4,5,125.2,1.758
70.69,1,0.002,-0.018,-0.009,0.011,-0.015,-0.017,-1.575,0.021,0.175,69.41,87.5,40.578903,-3.542573,624.1,4,5,125.2,1.758
70.79,1,0.014,0.019,-0.038,0.011,-0.005,-0.018,-1.571,0.024,0.176,69.41,87.5,40.578903,-3.542573,624.1,4,5,125.2,1.758
70.89,1,-0.023,-0.01,-0.015,-0.006,-0.0,-0.023,-1.572,0.023,0.176,69.41,87.5,40.578903,-3.542573,624.1,4,5,125.2,1.758
70.99,1,0.03,-0.002,-0.027,0.0,-0.005,-0.023,-1.571,0.024,0.177,69.41,87.5,40.578903,-3.542573,624.1,4,5,125.2,1.758
71.09,1,0.001,0.002,0.003,0.015,-0.002,-0.015,-1.571,0.024,0.178,69.41,87.5,40.578903,-3.542573,624.1,4,5,125.2,1.758
71.2,1,0.002,0.007,-0.022,0.003,0.005,-0.016,-1.57,0.022,0.178,70.49,88.2,40.578781,-3.542329,624.5,6,5,124.5,1.758
71.29,1,-0.026,0.013,-0.035,-0.009,0.006,-0.017,-1.568,0.022,0.178,70.49,88.2,40.578781,-3.542329,624.5,6,5,124.5,1.758
71.4,1,-0.035,0.006,0.004,-0.023,0.01,-0.017,-1.566,0.022,0.179,70.49,88.2,40.578781,-3.542329,624.5,6,5,124.5,1.758
71.49,1,-0.023,0.032,-0.005,-0.027,0.018,-0.008,-1.565,0.016,0.179,70.49,88.2,40.578781,-3.542329,624.5,6,5,124.5,1.758
71.59,1,-0.009,0.003,-0.002,-0.017,0.012,-0.004,-1.566,0.013,0.179,70.49,88.2,40.578781,-3.542329,624.5,6,5,124.5,1.758
71.69,1,-0.015,-0.002,-0.004,-0.015,0.009,-0.007,-1.566,0.011,0.179,70.49,88.2,40.578781,-3.542329,624.5,6,5,124.5,1.758
71.79,1,0.001,0.019,-0.008,-0.001,0.008,-0.006,-1.567,0.012,0.179,70.49,88.2,40.578781,-3.542329,624.5,6,5,124.5,1.758
71.89,1,-0.024,-0.013,0.018,-0.021,0.003,0.002,-1.567,0.01,0.179,70.49,88.2,40.578781,-3.542329,624.5,6,5,124.5,1.758
71.99,1,-0.062,0.003,-0.001,-0.032,-0.001,0.009,-1.566,0.011,0.179,70.49,88.2,40.578781,-3.542329,624.5,6,5,124.5,1.758
72.09,1,-0.037,0.0,-0.006,-0.046,-0.002,0.004,-1.565,0.011,0.179,70.49,88.2,40.578781,-3.542329,624.5,6,5,124.5,1.758
72.2,1,-0.062,0.013,0.006,-0.041,0.008,-0.003,-1.562,0.01,0.179,71.42,88.5,40.578655,-3.542084,624.7,4,5,123.8,1.406
72.29,1,-0.007,0.035,-0.027,-0.039,0.019,-0.006,-1.562,0.011,0.179,71.42,88.5,40.578655,-3.542084,624.7,4,5,123.8,1.406
72.39,1,-0.049,-0.004,-0.013,-0.028,0.009,-0.018,-1.561,0.009,0.179,71.42,88.5,40.578655,-3.542084,624.7,4,5,123.8,1.406
72.49,1,0.056,0.011,-0.002,-0.011,0.013,-0.011,-1.562,0.006,0.179,71.42,88.5,40.578655,-3.542084,624.7,4,5,123.8,1.406
72.6,1,0.035,0.012,-0.001,0.033,0.011,-0.003,-1.563,0.006,0.179,71.42,88.5,40.578655,-3.542084,624.7,4,5,123.8,1.406
72.69,1,-0.037,-0.017,-0.003,-0.0,-0.002,-0.003,-1.564,0.005,0.179,71.42,88.5,40.578655,-3.542084,624.7,4,5,123.8,1.406
72.79,1,0.017,0.008,0.022,-0.004,-0.002,0.002,-1.567,0.004,0.178,71.42,88.5,40.578655,-3.542084,624.7,4,5,123.8,1.406
72.89,1,0.009,-0.005,0.012,0.004,-0.004,0.018,-1.568,0.003,0.178,71.42,88.5,40.578655,-3.542084,624.7,4,5,123.8,1.406
73.0,1,-0.034,0.023,0.006,0.001,0.012,0.005,-1.569,0.002,0.177,71.42,88.5,40.578655,-3.542084,624.7,4,5,123.8,1.406
73.09,1,-0.034,0.027,0.002,-0.027,0.022,0.009,-1.571,-0.002,0.177,71.42,88.5,40.578655,-3.542084,624.7,4,5,123.8,1.406
73.19,1,-0.059,0.015,0.019,-0.029,0.022,0.014,-1.571,-0.001,0.177,72.45,88.3,40.578537,-3.541843,625.0,4,5,122.7,1.758
73.3,1,-0.08,-0.042,0.013,-0.073,-0.008,0.014,-1.572,0.001,0.177,72.45,88.3,40.578537,-3.541843,625.0,4,5,122.7,1.758
73.4,1,-0.009,-0.016,0.004,-0.05,-0.021,0.008,-1.574,0.002,0.178,72.45,88.3,40.578537,-3.541843,625.0,4,5,122.7,1.758
73.49,1,-0.033,-0.032,0.005,-0.026,-0.021,0.004,-1.575,0.005,0.178,72.45,88.3,40.578537,-3.541843,625.0,4,5,122.7,1.758
73.6,1,0.014,-0.015,-0.013,-0.012,-0.024,0.001,-1.573,0.007,0.178,72.45,88.3,40.578537,-3.541843,625.0,4,5,122.7,1.758
73.69,1,-0.002,-0.012,0.022,0.004,-0.01,0.007,-1.57,0.008,0.178,72.45,88.3,40.578537,-3.541843,625.0,4,5,122.7,1.758
73.8,1,0.044,0.004,-0.038,0.023,-0.01,-0.011,-1.57,0.005,0.178,72.45,88.3,40.578537,-3.541843,625.0,4,5,122.7,1.758
73.9,1,0.022,-0.023,0.0,0.025,-0.015,-0.016,-1.571,0.003,0.179,72.45,88.3,40.578537,-3.541843,625.0,4,5,122.7,1.758
74.0,1,-0.018,-0.001,0.0,0.002,-0.009,-0.002,-1.571,0.003,0.179,72.45,88.3,40.578537,-3.541843,625.0,4,5,122.7,1.758
74.1,1,0.014,-0.022,0.016,-0.007,-0.014,0.009,-1.572,0.003,0.179,72.45,88.3,40.578537,-3.541843,625.0,4,5,122.7,1.758
74.2,1,0.031,0.003,0.003,0.025,-0.007,0.002,-1.572,0.002,0.179,73.42,88.5,40.578419,-3.541591,625.4,4,5,122.3,1.406
74.31,1,-0.044,-0.014,0.018,-0.009,-0.009,0.014,-1.575,0.002,0.179,73.42,88.5,40.578419,-3.541591,625.4,4,5,122.3,1.406
74.4,1,0.002,-0.016,0.017,-0.014,-0.015,0.012,-1.576,0.004,0.18,73.42,88.5,40.578419,-3.541591,625.4,4,5,122.3,1.406
74.5,1,-0.06,-0.03,-0.011,-0.028,-0.021,0.006,-1.577,0.004,0.18,73.42,88.5,40.578419,-3.541591,625.4,4,5,122.3,1.406
74.6,1,0.021,0.011,0.01,-0.014,-0.011,0.003,-1.577,0.005,0.18,73.42,88.5,40.578419,-3.541591,625.4,4,5,122.3,1.406
74.7,1,0.03,0.0,-0.026,0.011,-0.003,-0.006,-1.574,0.009,0.181,73.42,88.5,40.578419,-3.541591,625.4,4,5,122.3,1.406
74.8,1,-0.022,0.018,-0.014,0.003,0.011,-0.018,-1.572,0.01,0.181,73.42,88.5,40.578419,-3.541591,625.4,4,5,122.3,1.406
74.9,1,0.016,-0.001,-0.012,0.0,0.003,-0.01,-1.573,0.008,0.181,73.42,88.5,40.578419,-3.541591,625.4,4,5,122.3,1.406
75.0,1,-0.026,0.024,-0.009,-0.002,0.015,-0.011,-1.573,0.006,0.182,73.42,88.5,40.578419,-3.541591,625.4,4,5,122.3,1.406
75.1,1,0.005,-0.003,-0.018,-0.014,0.009,-0.012,-1.574,0.006,0.182,73.42,88.5,40.578419,-3.541591,625.4,4,5,122.3,1.406
75.2,1,0.023,-0.011,-0.015,0.014,-0.003,-0.018,-1.573,0.008,0.182,74.42,88.5,40.5783,-3.541347,625.6,4,5,121.6,1.055
75.3,1,-0.013,0.002,-0.011,0.002,-0.004,-0.01,-1.57,0.011,0.183,74.42,88.5,40.5783,-3.541347,625.6,4,5,121.6,1.055
75.4,1,-0.012,-0.014,-0.019,-0.006,-0.004,-0.017,-1.569,0.009,0.183,74.42,88.5,40.5783,-3.541347,625.6,4,5,121.6,1.055
75.5,1,-0.051,-0.007,-0.013,-0.029,-0.013,-0.016,-1.566,0.01,0.183,74.42,88.5,40.5783,-3.541347,625.6,4,5,121.6,1.055
75.6,1,-0.01,-0.021,-0.031,-0.025,-0.01,-0.019,-1.564,0.009,0.184,74.42,88.5,40.5783,-3.541347,625.6,4,5,121.6,1.055
75.7,1,-0.014,0.001,-0.021,-0.023,-0.011,-0.021,-1.562,0.01,0.184,74.42,88.5,40.5783,-3.541347,625.6,4,5,121.6,1.055
75.8,1,-0.013,-0.017,0.009,-0.019,-0.01,-0.014,-1.563,0.012,0.185,74.42,88.5,40.5783,-3.541347,625.6,4,5,121.6,1.055
75.91,1,0.022,0.01,0.001,0.005,-0.004,0.004,-1.563,0.014,0.185,74.42,88.5,40.5783,-3.541347,625.6,4,5,121.6,1.055
76.0,1,0.004,-0.023,-0.019,0.009,-0.006,-0.011,-1.562,0.016,0.186,74.42,88.5,40.5783,-3.541347,625.6,4,5,121.6,1.055
76.1,1,0.015,-0.013,-0.0,0.011,-0.013,-0.007,-1.563,0.019,0.187,74.42,88.5,40.5783,-3.541347,625.6,4,5,121.6,1.055
76.2,1,-0.009,-0.021,-0.007,0.004,-0.016,-0.0,-1.563,0.018,0.187,75.4,89.0,40.578194,-3.541091,626.0,4,5,120.9,1.406
76.3,1,-0.051,0.007,0.001,-0.019,-0.01,-0.006,-1.564,0.02,0.188,75.4,89.0,40.578194,-3.541091,626.0,4,5,120.9,1.406
76.4,1,-0.008,-0.016,-0.005,-0.022,-0.008,-0.006,-1.561,0.023,0.188,75.4,89.0,40.578194,-3.541091,626.0,4,5,120.9,1.406
76.5,1,-0.039,-0.02,0.005,-0.025,-0.013,0.003,-1.563,0.026,0.189,75.4,89.0,40.578194,-3.541091,626.0,4,5,120.9,1.406
76.6,1,0.011,0.006,-0.021,-0.019,-0.008,-0.01,-1.562,0.026,0.189,75.4,89.0,40.578194,-3.541091,626.0,4,5,120.9,1.406
76.7,1,-0.015,0.003,0.018,-0.009,-0.001,-0.001,-1.563,0.024,0.19,75.4,89.0,40.578194,-3.541091,626.0,4,5,120.9,1.406
76.81,1,-0.01,0.022,-0.028,-0.017,0.011,-0.007,-1.562,0.023,0.19,75.4,89.0,40.578194,-3.541091,626.0,4,5,120.9,1.406
76.91,1,0.004,0.01,-0.013,0.008,0.014,-0.009,-1.56,0.021,0.19,75.4,89.0,40.578194,-3.541091,626.0,4,5,120.9,1.406
77.0,1,-0.037,0.012,-0.02,-0.028,0.016,-0.022,-1.559,0.019,0.191,75.4,89.0,40.578194,-3.541091,626.0,4,5,120.9,1.406
77.1,1,-0.056,-0.004,0.017,-0.037,0.0,-0.0,-1.559,0.017,0.191,75.4,89.0,40.578194,-3.541091,626.0,4,5,120.9,1.406
77.2,1,0.009,0.003,0.013,-0.013,0.004,0.001,-1.56,0.015,0.192,76.41,89.3,40.578079,-3.540833,626.3,4,5,120.2,1.406
77.3,1,0.022,0.027,-0.006,0.001,0.005,0.007,-1.561,0.015,0.192,76.41,89.3,40.578079,-3.540833,626.3,4,5,120.2,1.406
77.4,1,-0.001,-0.014,-0.019,0.005,0.013,-0.01,-1.557,0.013,0.192,76.41,89.3,40.578079,-3.540833,626.3,4,5,120.2,1.406
77.6,1,0.004,-0.008,0.018,0.009,-0.0,0.004,-1.557,0.012,0.192,76.41,89.3,40.578079,-3.540833,626.3,4,5,120.2,1.406
77.7,1,-0.045,-0.021,0.005,-0.021,-0.015,0.01,-1.557,0.012,0.192,76.41,89.3,40.578079,-3.540833,626.3,4,5,120.2,1.406
77.8,1,0.035,0.02,-0.011,0.006,0.005,-0.005,-1.556,0.01,0.191,76.41,89.3,40.578079,-3.540833,626.3,4,5,120.2,1.406
77.9,1,-0.023,0.033,-0.017,-0.001,0.016,-0.005,-1.557,0.01,0.191,76.41,89.3,40.578079,-3.540833,626.3,4,5,120.2,1.406
78.0,1,-0.025,0.009,-0.008,-0.017,0.015,-0.014,-1.557,0.008,0.191,76.41,89.3,40.578079,-3.540833,626.3,4,5,120.2,1.406
78.11,1,0.017,0.021,-0.001,-0.0,0.015,-0.01,-1.556,0.012,0.191,76.41,89.3,40.578079,-3.540833,626.3,4,5,120.2,1.406
78.2,1,-0.014,0.0,-0.007,-0.01,0.01,-0.004,-1.557,0.012,0.191,76.41,89.3,40.578079,-3.540833,626.3,4,5,120.2,1.406
78.3,1,0.016,0.022,0.001,-0.003,0.016,0.0,-1.557,0.01,0.19,77.43,89.6,40.577969,-3.540582,626.6,4,5,119.5,1.406
78.4,1,0.06,0.018,0.01,0.027,0.017,0.005,-1.556,0.01,0.19,77.43,89.6,40.577969,-3.540582,626.6,4,5,119.5,1.406
78.5,1,0.023,0.005,0.001,0.049,0.015,0.002,-1.555,0.009,0.19,77.43,89.6,40.577969,-3.540582,626.6,4,5,119.5,1.406
78.6,1,-0.072,0.016,-0.009,-0.015,0.01,-0.006,-1.553,0.007,0.19,77.43,89.6,40.577969,-3.540582,626.6,4,5,119.5,1.406
78.71,1,0.052,-0.002,0.026,0.002,0.011,0.01,-1.554,0.006,0.189,77.43,89.6,40.577969,-3.540582,626.6,4,5,119.5,1.406
78.8,1,-0.102,-0.029,-0.004,-0.033,-0.013,0.008,-1.556,0.005,0.189,77.43,89.6,40.577969,-3.540582,626.6,4,5,119.5,1.406
78.91,1,0.002,0.03,-0.006,-0.035,0.003,-0.001,-1.555,0.005,0.189,77.43,89.6,40.577969,-3.540582,626.6,4,5,119.5,1.406
79.01,1,-0.02,-0.009,0.026,-0.014,0.002,0.007,-1.554,0.004,0.188,77.43,89.6,40.577969,-3.540582,626.6,4,5,119.5,1.406
79.11,1,0.022,0.0,0.0,-0.013,-0.003,0.008,-1.551,0.003,0.188,77.43,89.6,40.577969,-3.540582,626.6,4,5,119.5,1.406
79.21,1,-0.085,-0.01,0.01,-0.025,-0.004,0.012,-1.552,0.004,0.188,77.43,89.6,40.577969,-3.540582,626.6,4,5,119.5,1.406
79.31,1,-0.017,-0.007,0.011,-0.044,-0.005,0.011,-1.555,0.004,0.188,78.41,89.2,40.577858,-3.540326,626.9,4,5,118.8,1.406
79.41,1,0.045,-0.016,0.032,0.015,-0.011,0.018,-1.557,0.004,0.188,78.41,89.2,40.577858,-3.540326,626.9,4,5,118.8,1.406
79.51,1,0.021,-0.01,-0.018,0.016,-0.01,0.006,-1.558,0.006,0.188,78.41,89.2,40.577858,-3.540326,626.9,4,5,118.8,1.406
79.61,1,-0.001,0.003,0.009,0.011,-0.006,0.003,-1.559,0.007,0.188,78.41,89.2,40.577858,-3.540326,626.9,4,5,118.8,1.406
79.71,1,0.0,-0.014,0.019,-0.004,-0.005,0.011,-1.561,0.007,0.188,78.41,89.2,40.577858,-3.540326,626.9,4,5,118.8,1.406
79.81,1,-0.066,-0.018,0.034,-0.014,-0.014,0.024,-1.564,0.006,0.189,78.41,89.2,40.577858,-3.540326,626.9,4,5,118.8,1.406
79.91,1,-0.026,-0.013,-0.014,-0.055,-0.012,0.011,-1.564,0.008,0.19,78.41,89.2,40.577858,-3.540326,626.9,4,5,118.8,1.406
80.02,1,-0.025,-0.032,0.031,-0.017,-0.025,0.014,-1.564,0.011,0.191,78.41,89.2,40.577858,-3.540326,626.9,4,5,118.8,1.406
80.11,1,-0.07,-0.019,-0.025,-0.052,-0.022,-0.0,-1.563,0.013,0.192,78.41,89.2,40.577858,-3.540326,626.9,4,5,118.8,1.406
80.22,1,-0.003,-0.024,0.012,-0.027,-0.02,-0.002,-1.563,0.015,0.193,78.41,89.2,40.577858,-3.540326,626.9,4,5,118.8,1.406
80.32,1,0.015,-0.005,-0.019,-0.002,-0.018,-0.004,-1.562,0.016,0.193,79.42,89.3,40.577755,-3.540076,627.0,4,5,118.1,1.406
80.41,1,0.034,-0.016,0.025,0.009,-0.011,0.002,-1.562,0.017,0.194,79.42,89.3,40.577755,-3.540076,627.0,4,5,118.1,1.406
80.51,1,-0.011,-0.005,-0.011,0.013,-0.013,0.004,-1.562,0.017,0.195,79.42,89.3,40.577755,-3.540076,627.0,4,5,118.1,1.406
80.61,1,0.003,-0.019,-0.01,-0.01,-0.012,-0.006,-1.562,0.018,0.196,79.42,89.3,40.577755,-3.540076,627.0,4,5,118.1,1.406
80.71,1,0.005,-0.003,-0.003,0.01,-0.014,-0.004,-1.561,0.02,0.197,79.42,89.3,40.577755,-3.540076,627.0,4,5,118.1,1.406
80.81,1,0.031,-0.004,0.008,0.02,-0.005,-0.004,-1.557,0.021,0.198,79.42,89.3,40.577755,-3.540076,627.0,4,5,118.1,1.406
80.91,1,-0.121,-0.025,0.002,-0.033,-0.016,0.008,-1.556,0.021,0.198,79.42,89.3,40.577755,-3.540076,627.0,4,5,118.1,1.406
81.01,1,-0.033,-0.028,-0.002,-0.063,-0.02,-0.004,-1.556,0.022,0.199,79.42,89.3,40.577755,-3.540076,627.0,4,5,118.1,1.406
81.11,1,-0.001,-0.02,-0.01,-0.018,-0.023,0.0,-1.558,0.022,0.2,79.42,89.3,40.577755,-3.540076,627.0,4,5,118.1,1.406
81.21,1,-0.023,-0.004,-0.031,-0.034,-0.011,-0.024,-1.555,0.019,0.2,79.42,89.3,40.577755,-3.540076,627.0,4,5,118.1,1.406
81.31,1,0.052,0.019,0.007,0.008,0.0,-0.001,-1.553,0.015,0.201,80.41,89.5,40.577656,-3.539809,627.2,4,5,118.1,0.703
81.42,1,0.006,-0.008,-0.001,0.029,-0.0,-0.005,-1.553,0.009,0.201,80.41,89.5,40.577656,-3.539809,627.2,4,5,118.1,0.703
81.51,1,-0.012,-0.02,-0.01,-0.004,-0.01,-0.002,-1.553,0.011,0.202,80.41,89.5,40.577656,-3.539809,627.2,4,5,118.1,0.703
81.61,1,-0.038,-0.016,0.004,-0.01,-0.012,-0.007,-1.552,0.014,0.203,80.41,89.5,40.577656,-3.539809,627.2,4,5,118.1,0.703
81.71,1,-0.046,-0.009,-0.0,-0.053,-0.021,-0.003,-1.552,0.013,0.203,80.41,89.5,40.577656,-3.539809,627.2,4,5,118.1,0.703
81.81,1,-0.043,0.02,0.015,-0.032,0.003,0.005,-1.553,0.014,0.203,80.41,89.5,40.577656,-3.539809,627.2,4,5,118.1,0.703
81.92,1,-0.044,0.004,0.008,-0.043,0.01,0.011,-1.554,0.014,0.203,80.41,89.5,40.577656,-3.539809,627.2,4,5,118.1,0.703
82.01,1,-0.067,0.002,-0.0,-0.045,0.012,0.006,-1.556,0.015,0.203,80.41,89.5,40.577656,-3.539809,627.2,4,5,118.1,0.703
82.12,1,-0.014,-0.004,-0.025,-0.042,-0.003,-0.002,-1.555,0.015,0.203,80.41,89.5,40.577656,-3.539809,627.2,4,5,118.1,0.703
82.21,1,-0.023,-0.021,-0.015,-0.025,-0.006,-0.021,-1.552,0.015,0.203,80.41,89.5,40.577656,-3.539809,627.2,4,5,118.1,0.703
82.31,1,0.06,0.003,-0.009,0.007,-0.011,-0.007,-1.55,0.016,0.203,81.41,89.7,40.577553,-3.539536,627.4,4,5,116.7,1.406
82.41,1,0.04,-0.022,-0.042,0.041,-0.013,-0.026,-1.549,0.015,0.203,81.41,89.7,40.577553,-3.539536,627.4,4,5,116.7,1.406
82.51,1,-0.026,-0.0,-0.007,0.004,-0.012,-0.028,-1.546,0.009,0.203,81.41,89.7,40.577553,-3.539536,627.4,4,5,116.7,1.406
82.61,1,-0.009,0.012,0.009,0.003,0.002,-0.008,-1.542,0.009,0.203,81.41,89.7,40.577553,-3.539536,627.4,4,5,116.7,1.406
82.72,1,-0.077,-0.006,0.013,-0.039,0.003,0.007,-1.543,0.009,0.203,81.41,89.7,40.577553,-3.539536,627.4,4,5,116.7,1.406
82.82,1,-0.003,0.001,0.046,-0.037,-0.002,0.023,-1.545,0.009,0.202,81.41,89.7,40.577553,-3.539536,627.4,4,5,116.7,1.406
82.91,1,-0.058,0.0,0.042,-0.032,0.002,0.037,-1.546,0.009,0.201,81.41,89.7,40.577553,-3.539536,627.4,4,5,116.7,1.406
83.01,1,-0.014,0.011,0.061,-0.035,0.002,0.045,-1.548,0.009,0.2,81.41,89.7,40.577553,-3.539536,627.4,4,5,116.7,1.406
83.12,1,-0.021,0.013,0.016,-0.025,0.014,0.036,-1.552,0.006,0.2,81.41,89.7,40.577553,-3.539536,627.4,4,5,116.7,1.406
83.22,1,0.015,-0.039,0.001,-0.009,-0.002,0.027,-1.555,0.007,0.199,81.41,89.7,40.577553,-3.539536,627.4,4,5,116.7,1.406
83.32,1,-0.023,-0.006,0.018,-0.005,-0.015,0.01,-1.556,0.007,0.198,82.4,89.4,40.577457,-3.539274,627.8,4,5,116.0,2.109
83.42,1,0.015,0.018,0.012,0.007,-0.004,0.015,-1.557,0.007,0.197,82.4,89.4,40.577457,-3.539274,627.8,4,5,116.0,2.109
83.52,1,0.034,0.041,0.04,0.001,0.021,0.023,-1.559,0.007,0.196,82.4,89.4,40.577457,-3.539274,627.8,4,5,116.0,2.109
83.62,1,0.018,0.038,0.026,0.039,0.03,0.037,-1.561,0.005,0.195,82.4,89.4,40.577457,-3.539274,627.8,4,5,116.0,2.109
83.72,1,-0.098,0.003,0.016,-0.029,0.023,0.019,-1.562,0.006,0.194,82.4,89.4,40.577457,-3.539274,627.8,4,5,116.0,2.109
83.82,1,-0.031,0.01,-0.034,-0.04,0.013,0.002,-1.564,0.006,0.193,82.4,89.4,40.577457,-3.539274,627.8,4,5,116.0,2.109
83.92,1,-0.087,0.0,-0.006,-0.072,0.01,-0.009,-1.57,0.004,0.193,82.4,89.4,40.577457,-3.539274,627.8,4,5,116.0,2.109
84.03,1,0.002,0.015,-0.02,-0.04,0.008,-0.016,-1.573,0.005,0.192,82.4,89.4,40.577457,-3.539274,627.8,4,5,116.0,2.109
84.12,1,-0.03,0.02,0.016,-0.028,0.017,-0.008,-1.572,0.004,0.191,82.4,89.4,40.577457,-3.539274,627.8,4,5,116.0,2.109
84.22,1,-0.032,0.017,-0.003,-0.034,0.009,-0.001,-1.573,0.006,0.19,82.4,89.4,40.577457,-3.539274,627.8,4,5,116.0,2.109
84.32,1,0.024,0.008,0.032,-0.016,0.021,0.014,-1.574,0.007,0.189,83.42,88.6,40.577358,-3.539005,627.9,4,5,115.0,1.758
84.42,1,0.083,0.023,-0.043,0.053,0.008,-0.004,-1.574,0.007,0.188,83.42,88.6,40.577358,-3.539005,627.9,4,5,115.0,1.758
84.52,1,-0.019,0.022,0.019,0.022,0.033,-0.014,-1.574,0.003,0.187,83.42,88.6,40.577358,-3.539005,627.9,4,5,115.0,1.758
84.63,1,-0.034,0.014,0.039,-0.021,0.013,0.032,-1.577,0.008,0.187,83.42,88.6,40.577358,-3.539005,627.9,4,5,115.0,1.758
84.72,1,0.022,0.021,0.028,0.018,0.016,0.031,-1.576,0.01,0.186,83.42,88.6,40.577358,-3.539005,627.9,4,5,115.0,1.758
84.82,1,-0.013,-0.019,0.009,-0.007,0.005,0.018,-1.574,0.013,0.185,83.42,88.6,40.577358,-3.539005,627.9,4,5,115.0,1.758
84.92,1,0.053,-0.001,-0.012,0.023,-0.009,0.002,-1.572,0.013,0.184,83.42,88.6,40.577358,-3.539005,627.9,4,5,115.0,1.758
85.03,1,-0.017,0.01,0.034,0.006,0.003,0.012,-1.578,0.016,0.184,83.42,88.6,40.577358,-3.539005,627.9,4,5,115.0,1.758
85.12,1,0.002,0.022,0.003,-0.001,0.008,0.017,-1.58,0.016,0.183,83.42,88.6,40.577358,-3.539005,627.9,4,5,115.0,1.758
85.23,1,-0.008,0.007,0.008,-0.004,0.018,0.009,-1.578,0.013,0.182,83.42,88.6,40.577358,-3.539005,627.9,4,5,115.0,1.758
85.33,1,-0.038,-0.029,-0.01,-0.01,-0.007,-0.001,-1.579,0.012,0.181,84.43,87.0,40.577263,-3.538742,628.2,4,5,114.6,1.406
85.42,1,-0.053,0.007,-0.015,-0.042,-0.002,-0.005,-1.58,0.011,0.18,84.43,87.0,40.577263,-3.538742,628.2,4,5,114.6,1.406
85.52,1,-0.058,0.01,0.003,-0.047,0.005,-0.011,-1.581,0.012,0.179,84.43,87.0,40.577263,-3.538742,628.2,4,5,114.6,1.406
85.62,1,-0.003,0.005,-0.028,-0.034,0.002,-0.006,-1.581,0.011,0.178,84.43,87.0,40.577263,-3.538742,628.2,4,5,114.6,1.406
85.72,1,-0.024,0.001,0.006,-0.027,-0.003,-0.013,-1.577,0.009,0.177,84.43,87.0,40.577263,-3.538742,628.2,4,5,114.6,1.406
85.83,1,0.069,0.015,0.018,0.016,0.007,0.007,-1.575,0.01,0.176,84.43,87.0,40.577263,-3.538742,628.2,4,5,114.6,1.406
85.92,1,0.019,0.021,-0.042,0.023,0.019,-0.013,-1.571,0.008,0.175,84.43,87.0,40.577263,-3.538742,628.2,4,5,114.6,1.406
86.02,1,0.048,-0.023,0.002,0.033,-0.0,-0.012,-1.571,0.006,0.174,84.43,87.0,40.577263,-3.538742,628.2,4,5,114.6,1.406
86.12,1,-0.064,0.014,0.007,0.005,0.004,-0.001,-1.576,-0.0,0.173,84.43,87.0,40.577263,-3.538742,628.2,4,5,114.6,1.406
86.22,1,0.021,0.009,-0.015,-0.008,0.002,-0.009,-1.573,0.004,0.172,84.43,87.0,40.577263,-3.538742,628.2,4,5,114.6,1.406
86.32,1,0.001,0.004,0.013,0.009,0.014,0.002,-1.575,0.004,0.171,85.4,89.8,40.577175,-3.53848,628.4,4,5,114.6,0.352
86.42,1,-0.015,-0.005,-0.028,-0.004,0.002,-0.008,-1.573,0.002,0.17,85.4,89.8,40.577175,-3.53848,628.4,4,5,114.6,0.352
86.53,1,-0.007,0.005,0.006,-0.003,-0.003,-0.005,-1.572,0.003,0.169,85.4,89.8,40.577175,-3.53848,628.4,4,5,114.6,0.352
86.63,1,-0.011,0.032,-0.028,-0.005,0.018,-0.014,-1.57,-0.0,0.168,85.4,89.8,40.577175,-3.53848,628.4,4,5,114.6,0.352
86.72,1,-0.033,0.016,0.008,-0.026,0.02,-0.008,-1.57,-0.001,0.166,85.4,89.8,40.577175,-3.53848,628.4,4,5,114.6,0.352
86.82,1,-0.023,0.01,-0.005,-0.026,0.008,0.0,-1.571,-0.001,0.166,85.4,89.8,40.577175,-3.53848,628.4,4,5,114.6,0.352
86.92,1,0.02,-0.021,-0.019,0.007,0.002,-0.013,-1.572,0.001,0.165,85.4,89.8,40.577175,-3.53848,628.4,4,5,114.6,0.352
87.02,1,-0.005,-0.009,-0.03,-0.014,-0.009,-0.021,-1.573,0.002,0.163,85.4,89.8,40.577175,-3.53848,628.4,4,5,114.6,0.352
87.13,1,0.0,0.034,-0.011,-0.002,0.011,-0.019,-1.571,0.001,0.162,85.4,89.8,40.577175,-3.53848,628.4,4,5,114.6,0.352
87.23,1,-0.004,-0.005,-0.023,0.0,0.01,-0.017,-1.569,0.001,0.161,85.4,89.8,40.577175,-3.53848,628.4,4,5,114.6,0.352
87.32,1,-0.069,-0.004,-0.031,-0.028,-0.0,-0.02,-1.567,0.002,0.16,86.49,92.5,40.577072,-3.538211,628.8,4,5,115.7,1.055
87.53,1,0.031,-0.045,0.005,0.004,-0.023,-0.011,-1.569,-0.001,0.158,86.49,92.5,40.577072,-3.538211,628.8,4,5,115.7,1.055
87.63,1,0.039,0.017,-0.043,0.024,-0.014,-0.023,-1.564,-0.002,0.157,86.49,92.5,40.577072,-3.538211,628.8,4,5,115.7,1.055
87.74,1,0.086,-0.024,-0.013,0.063,-0.01,-0.024,-1.564,-0.001,0.156,86.49,92.5,40.577072,-3.538211,628.8,4,5,115.7,1.055
87.83,1,-0.088,-0.038,-0.022,-0.001,-0.023,-0.017,-1.566,0.003,0.156,86.49,92.5,40.577072,-3.538211,628.8,4,5,115.7,1.055
87.93,1,-0.028,-0.02,-0.032,-0.039,-0.021,-0.028,-1.566,0.007,0.156,86.49,92.5,40.577072,-3.538211,628.8,4,5,115.7,1.055
88.03,1,0.001,-0.016,0.018,-0.018,-0.017,-0.01,-1.567,0.01,0.156,86.49,92.5,40.577072,-3.538211,628.8,4,5,115.7,1.055
88.13,1,-0.004,-0.024,-0.016,-0.015,-0.024,0.0,-1.565,0.009,0.155,86.49,92.5,40.577072,-3.538211,628.8,4,5,115.7,1.055
88.23,1,0.028,0.003,-0.046,0.02,-0.011,-0.028,-1.561,0.008,0.155,86.49,92.5,40.577072,-3.538211,628.8,4,5,115.7,1.055
88.34,1,0.012,-0.052,-0.048,0.02,-0.025,-0.042,-1.56,0.009,0.155,86.49,92.5,40.577072,-3.538211,628.8,4,5,115.7,1.055
88.44,1,-0.082,-0.008,-0.007,-0.031,-0.031,-0.022,-1.564,0.004,0.155,87.41,91.0,40.576977,-3.537943,629.0,4,5,114.6,1.055
88.53,1,-0.105,-0.008,-0.024,-0.071,-0.013,-0.025,-1.563,0.0,0.155,87.41,91.0,40.576977,-3.537943,629.0,4,5,114.6,1.055
88.63,1,0.104,-0.001,0.053,-0.017,-0.005,0.007,-1.559,0.001,0.154,87.41,91.0,40.576977,-3.537943,629.0,4,5,114.6,1.055
88.73,1,-0.085,-0.021,-0.016,-0.01,-0.007,0.012,-1.557,0.002,0.154,87.41,91.0,40.576977,-3.537943,629.0,4,5,114.6,1.055
88.84,1,-0.025,-0.034,0.016,-0.032,-0.027,0.005,-1.557,0.003,0.154,87.41,91.0,40.576977,-3.537943,629.0,4,5,114.6,1.055
88.93,1,-0.026,-0.033,-0.01,-0.019,-0.034,0.003,-1.554,0.005,0.154,87.41,91.0,40.576977,-3.537943,629.0,4,5,114.6,1.055
89.04,1,0.005,-0.011,0.002,-0.024,-0.021,-0.003,-1.552,0.005,0.153,87.41,91.0,40.576977,-3.537943,629.0,4,5,114.6,1.055
89.13,1,0.063,-0.009,0.009,0.022,-0.006,0.004,-1.549,0.007,0.152,87.41,91.0,40.576977,-3.537943,629.0,4,5,114.6,1.055
89.23,1,-0.065,-0.002,0.021,-0.0,-0.009,0.015,-1.546,0.007,0.152,87.41,91.0,40.576977,-3.537943,629.0,4,5,114.6,1.055
89.33,1,-0.032,-0.016,-0.006,-0.04,-0.016,0.005,-1.545,0.007,0.151,87.41,91.0,40.576977,-3.537943,629.0,4,5,114.6,1.055
89.44,1,-0.05,0.018,0.017,-0.033,0.006,0.002,-1.545,0.006,0.151,88.39,91.3,40.576881,-3.537671,629.3,4,5,114.6,1.055
89.53,1,-0.007,-0.039,0.002,-0.014,-0.01,0.015,-1.543,0.005,0.15,88.39,91.3,40.576881,-3.537671,629.3,4,5,114.6,1.055
89.64,1,0.02,-0.026,0.005,-0.009,-0.023,0.003,-1.543,0.003,0.149,88.39,91.3,40.576881,-3.537671,629.3,4,5,114.6,1.055
89.73,1,0.042,-0.054,0.023,0.02,-0.04,0.01,-1.541,0.006,0.149,88.39,91.3,40.576881,-3.537671,629.3,4,5,114.6,1.055
89.83,1,-0.01,0.008,0.019,0.012,-0.024,0.018,-1.545,0.007,0.149,88.39,91.3,40.576881,-3.537671,629.3,4,5,114.6,1.055
89.93,1,-0.071,0.006,-0.007,-0.017,-0.0,0.009,-1.55,0.009,0.148,88.39,91.3,40.576881,-3.537671,629.3,4,5,114.6,1.055
90.03,1,-0.123,-0.017,0.058,-0.077,-0.006,0.024,-1.556,0.012,0.147,88.39,91.3,40.576881,-3.537671,629.3,4,5,114.6,1.055
90.13,1,-0.02,-0.028,0.06,-0.085,-0.019,0.05,-1.559,0.012,0.147,88.39,91.3,40.576881,-3.537671,629.3,4,5,114.6,1.055
90.23,1,0.119,-0.006,0.018,0.032,-0.021,0.038,-1.561,0.011,0.146,88.39,91.3,40.576881,-3.537671,629.3,4,5,114.6,1.055
90.34,1,0.057,0.004,0.001,0.059,-0.006,0.015,-1.558,0.011,0.146,88.39,91.3,40.576881,-3.537671,629.3,4,5,114.6,1.055
90.43,1,-0.017,0.0,-0.002,0.032,0.0,0.003,-1.559,0.01,0.145,89.41,90.7,40.576786,-3.537399,629.5,4,5,114.3,0.352
90.53,1,-0.053,-0.021,0.054,-0.013,-0.006,0.027,-1.565,0.012,0.145,89.41,90.7,40.576786,-3.537399,629.5,4,5,114.3,0.352
90.63,1,-0.043,0.005,0.019,-0.039,-0.003,0.028,-1.571,0.012,0.144,89.41,90.7,40.576786,-3.537399,629.5,4,5,114.3,0.352
90.75,1,-0.056,-0.015,-0.011,-0.051,-0.01,0.013,-1.572,0.012,0.143,89.41,90.7,40.576786,-3.537399,629.5,4,5,114.3,0.352
90.83,1,-0.029,0.023,-0.002,-0.032,0.002,-0.003,-1.573,0.011,0.142,89.41,90.7,40.576786,-3.537399,629.5,4,5,114.3,0.352
90.93,1,0.019,0.003,0.01,-0.016,0.011,0.007,-1.576,0.014,0.141,89.41,90.7,40.576786,-3.537399,629.5,4,5,114.3,0.352
91.04,1,0.029,0.006,-0.005,0.008,0.008,0.0,-1.578,0.012,0.14,89.41,90.7,40.576786,-3.537399,629.5,4,5,114.3,0.352
91.13,1,0.018,0.04,0.006,0.012,0.019,-0.002,-1.577,0.008,0.138,89.41,90.7,40.576786,-3.537399,629.5,4,5,114.3,0.352
91.23,1,-0.015,0.002,-0.018,0.02,0.016,-0.0,-1.579,0.008,0.137,89.41,90.7,40.576786,-3.537399,629.5,4,5,114.3,0.352
91.34,1,-0.066,0.016,-0.004,-0.035,0.013,-0.008,-1.581,0.006,0.135,89.41,90.7,40.576786,-3.537399,629.5,4,5,114.3,0.352
91.43,1,-0.021,0.006,0.023,-0.039,0.013,0.005,-1.58,0.004,0.134,90.4,90.7,40.576691,-3.537125,629.9,4,5,114.3,0.352
91.55,1,0.01,0.043,0.01,-0.015,0.018,0.015,-1.582,0.001,0.132,90.4,90.7,40.576691,-3.537125,629.9,4,5,114.3,0.352
91.63,1,0.03,0.015,-0.009,0.016,0.025,-0.001,-1.58,-0.004,0.13,90.4,90.7,40.576691,-3.537125,629.9,4,5,114.3,0.352
91.74,1,-0.036,-0.033,-0.017,-0.007,0.001,-0.01,-1.579,-0.004,0.129,90.4,90.7,40.576691,-3.537125,629.9,4,5,114.3,0.352
91.84,1,-0.091,-0.007,-0.025,-0.043,-0.009,-0.014,-1.582,-0.007,0.126,90.4,90.7,40.576691,-3.537125,629.9,4,5,114.3,0.352
91.94,1,-0.007,-0.003,0.02,-0.04,0.001,-0.005,-1.582,-0.013,0.125,90.4,90.7,40.576691,-3.537125,629.9,4,5,114.3,0.352
92.04,1,-0.053,0.039,0.01,-0.025,0.012,0.013,-1.583,-0.014,0.122,90.4,90.7,40.576691,-3.537125,629.9,4,5,114.3,0.352
92.15,1,-0.038,0.041,0.012,-0.068,0.022,0.004,-1.583,-0.013,0.121,90.4,90.7,40.576691,-3.537125,629.9,4,5,114.3,0.352
92.25,1,0.119,0.007,0.029,0.036,0.022,0.019,-1.585,-0.012,0.119,90.4,90.7,40.576691,-3.537125,629.9,4,5,114.3,0.352
92.34,1,-0.101,-0.019,-0.018,0.005,0.003,0.004,-1.586,-0.011,0.118,90.4,90.7,40.576691,-3.537125,629.9,4,5,114.3,0.352
92.44,1,-0.026,-0.0,-0.037,-0.079,-0.006,-0.019,-1.587,-0.011,0.115,91.42,91.0,40.576599,-3.536851,630.1,4,5,113.9,0.352
92.54,1,0.015,0.015,-0.021,0.02,0.0,-0.016,-1.586,-0.012,0.113,91.42,91.0,40.576599,-3.536851,630.1,4,5,113.9,0.352
92.64,1,-0.035,0.004,0.013,-0.03,0.011,-0.014,-1.586,-0.014,0.111,91.42,91.0,40.576599,-3.536851,630.1,4,5,113.9,0.352
92.74,1,-0.019,0.015,0.008,-0.013,0.013,0.005,-1.585,-0.016,0.108,91.42,91.0,40.576599,-3.536851,630.1,4,5,113.9,0.352
92.84,1,-0.094,0.017,0.005,-0.05,0.014,0.007,-1.584,-0.017,0.105,91.42,91.0,40.576599,-3.536851,630.1,4,5,113.9,0.352
92.94,1,0.076,0.035,-0.021,-0.023,0.021,-0.007,-1.585,-0.015,0.102,91.42,91.0,40.576599,-3.536851,630.1,4,5,113.9,0.352
93.04,1,-0.013,0.037,0.018,0.023,0.032,0.003,-1.585,-0.014,0.1,91.42,91.0,40.576599,-3.536851,630.1,4,5,113.9,0.352
93.14,1,-0.124,-0.018,-0.019,-0.059,0.017,-0.005,-1.583,-0.017,0.098,91.42,91.0,40.576599,-3.536851,630.1,4,5,113.9,0.352
93.24,1,0.006,0.035,-0.042,-0.042,0.014,-0.024,-1.584,-0.019,0.095,91.42,91.0,40.576599,-3.536851,630.1,4,5,113.9,0.352
93.34,1,-0.014,0.003,-0.016,-0.009,0.012,-0.023,-1.586,-0.02,0.092,91.42,91.0,40.576599,-3.536851,630.1,4,5,113.9,0.352
93.44,1,-0.032,-0.004,-0.01,-0.03,0.005,-0.018,-1.587,-0.02,0.09,92.4,91.6,40.576504,-3.536573,630.4,4,5,113.9,0.352
93.54,1,0.026,0.02,-0.023,-0.001,0.007,-0.017,-1.587,-0.017,0.087,92.4,91.6,40.576504,-3.536573,630.4,4,5,113.9,0.352
93.65,1,-0.079,0.025,-0.004,-0.028,0.022,-0.016,-1.588,-0.018,0.085,92.4,91.6,40.576504,-3.536573,630.4,4,5,113.9,0.352
93.74,1,0.001,0.009,0.014,-0.035,0.015,-0.002,-1.591,-0.019,0.082,92.4,91.6,40.576504,-3.536573,630.4,4,5,113.9,0.352
93.86,1,0.013,0.013,0.001,0.004,0.01,0.008,-1.593,-0.021,0.079,92.4,91.6,40.576504,-3.536573,630.4,4,5,113.9,0.352
93.95,1,-0.037,0.001,-0.019,-0.016,0.01,-0.006,-1.593,-0.024,0.077,92.4,91.6,40.576504,-3.536573,630.4,4,5,113.9,0.352
94.05,1,0.007,0.033,-0.036,-0.014,0.015,-0.02,-1.591,-0.028,0.074,92.4,91.6,40.576504,-3.536573,630.4,4,5,113.9,0.352
94.14,1,-0.027,0.039,-0.041,-0.007,0.027,-0.029,-1.589,-0.028,0.072,92.4,91.6,40.576504,-3.536573,630.4,4,5,113.9,0.352
94.24,1,-0.143,0.017,0.006,-0.079,0.03,-0.029,-1.585,-0.031,0.07,92.4,91.6,40.576504,-3.536573,630.4,4,5,113.9,0.352
94.34,1,0.024,-0.028,-0.002,-0.071,0.003,-0.006,-1.585,-0.029,0.069,92.4,91.6,40.576504,-3.536573,630.4,4,5,113.9,0.352
94.44,1,-0.102,-0.028,-0.021,-0.017,-0.017,-0.006,-1.586,-0.027,0.067,93.4,92.2,40.576412,-3.536301,630.8,4,5,114.6,0.703
94.54,1,-0.048,-0.046,-0.015,-0.069,-0.031,-0.016,-1.585,-0.026,0.066,93.4,92.2,40.576412,-3.536301,630.8,4,5,114.6,0.703
94.65,1,0.013,-0.013,-0.026,-0.026,-0.028,-0.017,-1.585,-0.027,0.064,93.4,92.2,40.576412,-3.536301,630.8,4,5,114.6,0.703
94.74,1,-0.042,-0.013,-0.019,-0.033,-0.018,-0.021,-1.585,-0.026,0.063,93.4,92.2,40.576412,-3.536301,630.8,4,5,114.6,0.703
94.84,1,0.076,-0.036,-0.002,0.008,-0.021,-0.016,-1.584,-0.024,0.062,93.4,92.2,40.576412,-3.536301,630.8,4,5,114.6,0.703
94.94,1,0.003,-0.035,0.021,0.026,-0.035,0.009,-1.584,-0.023,0.06,93.4,92.2,40.576412,-3.536301,630.8,4,5,114.6,0.703
95.04,1,-0.112,0.018,-0.016,-0.033,-0.01,0.001,-1.586,-0.026,0.058,93.4,92.2,40.576412,-3.536301,630.8,4,5,114.6,0.703
95.14,1,0.023,-0.034,-0.008,-0.024,-0.012,-0.013,-1.586,-0.025,0.057,93.4,92.2,40.576412,-3.536301,630.8,4,5,114.6,0.703
95.25,1,0.001,-0.0,-0.029,-0.005,-0.018,-0.02,-1.584,-0.023,0.056,93.4,92.2,40.576412,-3.536301,630.8,4,5,114.6,0.703
95.35,1,-0.034,-0.021,-0.015,-0.021,-0.011,-0.012,-1.585,-0.021,0.054,93.4,92.2,40.576412,-3.536301,630.8,4,5,114.6,0.703
95.44,1,-0.008,-0.02,-0.028,-0.013,-0.016,-0.023,-1.581,-0.017,0.053,94.4,92.3,40.576317,-3.536033,631.6,4,5,115.3,1.406
95.54,1,-0.03,-0.003,0.007,-0.027,-0.014,-0.016,-1.581,-0.014,0.051,94.4,92.3,40.576317,-3.536033,631.6,4,5,115.3,1.406
95.64,1,0.053,-0.01,0.008,0.012,-0.009,-0.001,-1.581,-0.013,0.049,94.4,92.3,40.576317,-3.536033,631.6,4,5,115.3,1.406
95.75,1,-0.11,0.005,-0.039,-0.031,-0.004,-0.011,-1.582,-0.013,0.048,94.4,92.3,40.576317,-3.536033,631.6,4,5,115.3,1.406
95.85,1,-0.007,-0.007,-0.026,-0.052,-0.003,-0.022,-1.583,-0.014,0.046,94.4,92.3,40.576317,-3.536033,631.6,4,5,115.3,1.406
95.95,1,-0.048,0.001,-0.044,-0.021,-0.002,-0.032,-1.584,-0.014,0.044,94.4,92.3,40.576317,-3.536033,631.6,4,5,115.3,1.406
96.05,1,-0.019,0.015,-0.024,-0.034,0.006,-0.032,-1.582,-0.014,0.043,94.4,92.3,40.576317,-3.536033,631.6,4,5,115.3,1.406
96.15,1,-0.0,0.02,-0.018,-0.013,0.014,-0.022,-1.58,-0.015,0.041,94.4,92.3,40.576317,-3.536033,631.6,4,5,115.3,1.406
96.25,1,0.032,-0.02,-0.005,0.005,0.004,-0.018,-1.579,-0.015,0.04,94.4,92.3,40.576317,-3.536033,631.6,4,5,115.3,1.406
96.36,1,-0.027,0.006,-0.04,-0.001,0.001,-0.023,-1.574,-0.016,0.038,94.4,92.3,40.576317,-3.536033,631.6,4,5,115.3,1.406
96.45,1,0.045,-0.027,-0.021,-0.004,-0.013,-0.024,-1.573,-0.015,0.036,95.4,92.8,40.576218,-3.535757,631.9,3,5,116.4,1.758
96.55,1,-0.045,-0.007,0.005,0.01,-0.012,-0.012,-1.571,-0.015,0.035,95.4,92.8,40.576218,-3.535757,631.9,3,5,116.4,1.758
96.66,1,-0.067,-0.025,-0.025,-0.04,-0.016,-0.01,-1.567,-0.017,0.033,95.4,92.8,40.576218,-3.535757,631.9,3,5,116.4,1.758
96.75,1,0.053,0.006,-0.042,-0.006,-0.012,-0.032,-1.566,-0.019,0.031,95.4,92.8,40.576218,-3.535757,631.9,3,5,116.4,1.758
96.85,1,0.09,0.011,-0.017,0.048,0.007,-0.028,-1.564,-0.018,0.029,95.4,92.8,40.576218,-3.535757,631.9,3,5,116.4,1.758
96.95,1,-0.122,-0.015,0.011,-0.004,-0.007,-0.005,-1.564,-0.015,0.028,95.4,92.8,40.576218,-3.535757,631.9,3,5,116.4,1.758
97.06,1,0.075,0.005,0.006,-0.013,-0.004,-0.002,-1.565,-0.016,0.027,95.4,92.8,40.576218,-3.535757,631.9,3,5,116.4,1.758
97.16,1,-0.054,0.028,-0.022,-0.003,0.013,-0.007,-1.566,-0.016,0.025,95.4,92.8,40.576218,-3.535757,631.9,3,5,116.4,1.758
97.25,1,0.002,-0.002,0.008,-0.007,0.009,-0.004,-1.566,-0.014,0.024,95.4,92.8,40.576218,-3.535757,631.9,3,5,116.4,1.758
97.35,1,-0.096,0.018,-0.003,-0.038,0.009,0.0,-1.567,-0.013,0.022,95.4,92.8,40.576218,-3.535757,631.9,3,5,116.4,1.758
97.55,1,-0.057,0.022,0.008,-0.015,0.011,0.008,-1.57,-0.019,0.018,96.4,92.7,40.576103,-3.535481,632.1,3,5,117.1,1.758
97.66,1,-0.085,0.002,0.019,-0.041,0.008,0.012,-1.569,-0.019,0.016,96.4,92.7,40.576103,-3.535481,632.1,3,5,117.1,1.758
97.75,1,-0.027,-0.015,0.015,-0.039,-0.005,0.018,-1.567,-0.021,0.015,96.4,92.7,40.576103,-3.535481,632.1,3,5,117.1,1.758
97.85,1,0.027,0.014,-0.003,0.006,-0.0,0.009,-1.567,-0.024,0.013,96.4,92.7,40.576103,-3.535481,632.1,3,5,117.1,1.758
97.95,1,-0.074,0.003,-0.02,-0.036,0.009,-0.012,-1.564,-0.025,0.011,96.4,92.7,40.576103,-3.535481,632.1,3,5,117.1,1.758
98.06,1,0.133,-0.05,0.037,-0.003,-0.018,0.014,-1.564,-0.02,0.01,96.4,92.7,40.576103,-3.535481,632.1,3,5,117.1,1.758
98.15,1,-0.095,-0.033,-0.0,0.034,-0.043,0.004,-1.564,-0.019,0.008,96.4,92.7,40.576103,-3.535481,632.1,3,5,117.1,1.758
98.25,1,0.043,0.018,0.016,-0.022,-0.01,0.01,-1.563,-0.019,0.006,96.4,92.7,40.576103,-3.535481,632.1,3,5,117.1,1.758
98.35,1,0.025,-0.008,0.003,0.021,0.003,0.012,-1.563,-0.02,0.004,96.4,92.7,40.576103,-3.535481,632.1,3,5,117.1,1.758
98.46,1,-0.122,0.016,-0.012,-0.041,0.005,-0.004,-1.563,-0.022,0.001,96.4,92.7,40.576103,-3.535481,632.1,3,5,117.1,1.758
98.55,1,-0.035,0.015,0.003,-0.053,0.01,0.001,-1.563,-0.024,-0.001,97.4,92.2,40.575989,-3.535214,632.8,3,5,117.8,1.406
98.65,1,0.027,0.062,0.017,-0.025,0.031,0.004,-1.566,-0.025,-0.003,97.4,92.2,40.575989,-3.535214,632.8,3,5,117.8,1.406
98.75,1,0.064,-0.016,0.006,0.035,0.026,0.014,-1.566,-0.03,-0.005,97.4,92.2,40.575989,-3.535214,632.8,3,5,117.8,1.406
98.85,1,-0.044,0.026,-0.007,0.005,0.008,0.002,-1.563,-0.032,-0.007,97.4,92.2,40.575989,-3.535214,632.8,3,5,117.8,1.406
98.95,1,-0.026,-0.01,-0.0,-0.008,0.009,0.0,-1.563,-0.03,-0.009,97.4,92.2,40.575989,-3.535214,632.8,3,5,117.8,1.406
99.06,1,-0.025,-0.023,0.021,-0.025,-0.006,0.007,-1.563,-0.031,-0.011,97.4,92.2,40.575989,-3.535214,632.8,3,5,117.8,1.406
99.16,1,-0.003,-0.005,-0.003,-0.025,-0.013,0.006,-1.567,-0.038,-0.012,97.4,92.2,40.575989,-3.535214,632.8,3,5,117.8,1.406
99.25,1,-0.029,0.029,0.036,-0.011,0.008,0.017,-1.568,-0.037,-0.013,97.4,92.2,40.575989,-3.535214,632.8,3,5,117.8,1.406
99.35,1,0.04,-0.018,0.01,0.004,-0.001,0.019,-1.569,-0.037,-0.014,97.4,92.2,40.575989,-3.535214,632.8,3,5,117.8,1.406
99.46,1,-0.065,-0.061,0.023,-0.008,-0.027,0.017,-1.569,-0.036,-0.015,97.4,92.2,40.575989,-3.535214,632.8,3,5,117.8,1.406
99.55,1,0.002,-0.047,0.018,-0.047,-0.046,0.017,-1.572,-0.037,-0.016,98.43,90.4,40.575882,-3.53495,633.4,3,5,118.1,1.055
99.65,1,0.044,-0.038,0.023,0.027,-0.044,0.023,-1.57,-0.037,-0.017,98.43,90.4,40.575882,-3.53495,633.4,3,5,118.1,1.055
99.76,1,-0.007,-0.015,-0.003,0.018,-0.028,0.007,-1.569,-0.036,-0.017,98.43,90.4,40.575882,-3.53495,633.4,3,5,118.1,1.055
99.85,1,-0.019,-0.012,0.005,-0.014,-0.024,0.006,-1.568,-0.034,-0.018,98.43,90.4,40.575882,-3.53495,633.4,3,5,118.1,1.055
99.95,1,0.059,-0.006,-0.009,0.027,-0.01,0.001,-1.562,-0.035,-0.019,98.43,90.4,40.575882,-3.53495,633.4,3,5,118.1,1.055
100.05,1,-0.064,-0.041,0.001,-0.003,-0.023,0.001,-1.557,-0.035,-0.019,98.43,90.4,40.575882,-3.53495,633.4,3,5,118.1,1.055
100.16,1,0.04,-0.02,0.007,-0.003,-0.023,0.001,-1.557,-0.034,-0.02,98.43,90.4,40.575882,-3.53495,633.4,3,5,118.1,1.055
100.26,1,-0.002,-0.029,-0.028,0.004,-0.028,-0.007,-1.556,-0.034,-0.021,98.43,90.4,40.575882,-3.53495,633.4,3,5,118.1,1.055
100.36,1,-0.066,-0.025,0.004,-0.022,-0.025,-0.01,-1.557,-0.032,-0.022,98.43,90.4,40.575882,-3.53495,633.4,3,5,118.1,1.055
100.46,1,-0.102,-0.016,-0.011,-0.071,-0.024,-0.008,-1.56,-0.033,-0.022,98.43,90.4,40.575882,-3.53495,633.4,3,5,118.1,1.055
100.56,1,-0.004,-0.01,0.005,-0.05,-0.014,0.001,-1.561,-0.032,-0.023,99.41,91.4,40.575771,-3.534687,633.9,3,5,118.8,1.055
100.66,1,0.007,-0.02,-0.031,-0.018,-0.018,-0.014,-1.559,-0.031,-0.024,99.41,91.4,40.575771,-3.534687,633.9,3,5,118.8,1.055
100.76,1,0.033,0.019,-0.033,0.022,-0.005,-0.027,-1.558,-0.029,-0.025,99.41,91.4,40.575771,-3.534687,633.9,3,5,118.8,1.055
100.86,1,-0.012,0.01,0.007,0.012,0.011,-0.015,-1.557,-0.028,-0.026,99.41,91.4,40.575771,-3.534687,633.9,3,5,118.8,1.055
100.96,1,-0.064,-0.04,-0.029,-0.033,-0.011,-0.016,-1.558,-0.027,-0.027,99.41,91.4,40.575771,-3.534687,633.9,3,5,118.8,1.055
101.06,1,-0.043,-0.008,0.026,-0.048,-0.019,-0.002,-1.562,-0.027,-0.027,99.41,91.4,40.575771,-3.534687,633.9,3,5,118.8,1.055
101.16,1,0.006,-0.005,0.029,-0.029,-0.004,0.023,-1.563,-0.028,-0.028,99.41,91.4,40.575771,-3.534687,633.9,3,5,118.8,1.055
101.26,1,0.062,0.01,-0.022,0.015,-0.006,0.002,-1.561,-0.03,-0.029,99.41,91.4,40.575771,-3.534687,633.9,3,5,118.8,1.055
101.36,1,0.069,-0.015,-0.054,0.054,-0.002,-0.023,-1.558,-0.036,-0.03,99.41,91.4,40.575771,-3.534687,633.9,3,5,118.8,1.055
101.46,1,-0.11,-0.031,-0.089,-0.013,-0.02,-0.067,-1.56,-0.038,-0.03,99.41,91.4,40.575771,-3.534687,633.9,3,5,118.8,1.055
101.56,1,0.013,-0.007,0.103,-0.032,-0.016,0.007,-1.567,-0.039,-0.03,100.41,92.3,40.575657,-3.53443,634.5,3,5,120.6,2.461
101.66,1,0.037,-0.004,0.023,0.005,-0.008,0.039,-1.563,-0.039,-0.029,100.41,92.3,40.575657,-3.53443,634.5,3,5,120.6,2.461
101.76,1,0.154,-0.037,-0.026,0.08,-0.015,0.011,-1.554,-0.038,-0.029,100.41,92.3,40.575657,-3.53443,634.5,3,5,120.6,2.461
101.86,1,-0.028,-0.03,-0.05,0.061,-0.032,-0.035,-1.553,-0.038,-0.029,100.41,92.3,40.575657,-3.53443,634.5,3,5,120.6,2.461
101.97,1,-0.154,-0.018,0.001,-0.046,-0.023,-0.024,-1.556,-0.04,-0.029,100.41,92.3,40.575657,-3.53443,634.5,3,5,120.6,2.461
102.07,1,-0.172,0.003,0.002,-0.132,-0.015,-0.004,-1.557,-0.038,-0.029,100.41,92.3,40.575657,-3.53443,634.5,3,5,120.6,2.461
102.17,1,0.021,-0.039,0.049,-0.071,-0.016,0.017,-1.551,-0.03,-0.028,100.41,92.3,40.575657,-3.53443,634.5,3,5,120.6,2.461
102.27,1,0.005,-0.012,-0.004,-0.028,-0.019,0.022,-1.545,-0.026,-0.028,100.41,92.3,40.575657,-3.53443,634.5,3,5,120.6,2.461
102.36,1,0.059,-0.031,-0.036,0.016,-0.023,-0.011,-1.542,-0.024,-0.028,100.41,92.3,40.575657,-3.53443,634.5,3,5,120.6,2.461
102.46,1,-0.032,-0.014,0.01,0.017,-0.025,-0.009,-1.541,-0.019,-0.028,100.41,92.3,40.575657,-3.53443,634.5,3,5,120.6,2.461
102.56,1,-0.016,-0.006,0.02,-0.013,-0.015,0.006,-1.545,-0.017,-0.028,101.43,91.7,40.575531,-3.534159,635.2,4,5,121.6,2.812
102.66,1,-0.012,0.005,0.034,-0.012,0.001,0.027,-1.548,-0.017,-0.028,101.43,91.7,40.575531,-3.534159,635.2,4,5,121.6,2.812
102.76,1,-0.041,0.001,0.008,-0.014,0.004,0.018,-1.546,-0.017,-0.028,101.43,91.7,40.575531,-3.534159,635.2,4,5,121.6,2.812
102.86,1,0.004,-0.021,-0.01,-0.026,-0.009,0.003,-1.546,-0.019,-0.027,101.43,91.7,40.575531,-3.534159,635.2,4,5,121.6,2.812
102.96,1,0.014,-0.008,-0.009,-0.001,-0.011,-0.01,-1.546,-0.018,-0.027,101.43,91.7,40.575531,-3.534159,635.2,4,5,121.6,2.812
103.06,1,-0.094,-0.029,-0.002,-0.043,-0.02,-0.006,-1.552,-0.015,-0.027,101.43,91.7,40.575531,-3.534159,635.2,4,5,121.6,2.812
103.17,1,0.067,-0.029,0.051,-0.008,-0.025,0.016,-1.558,-0.016,-0.027,101.43,91.7,40.575531,-3.534159,635.2,4,5,121.6,2.812
103.27,1,0.027,0.001,0.034,0.027,-0.018,0.039,-1.559,-0.016,-0.026,101.43,91.7,40.575531,-3.534159,635.2,4,5,121.6,2.812
103.36,1,0.041,0.014,0.007,0.036,0.002,0.018,-1.555,-0.016,-0.025,101.43,91.7,40.575531,-3.534159,635.2,4,5,121.6,2.812
103.47,1,-0.023,-0.024,0.006,0.012,-0.009,0.016,-1.557,-0.009,-0.025,101.43,91.7,40.575531,-3.534159,635.2,4,5,121.6,2.812
103.56,1,-0.023,0.012,0.032,-0.005,-0.003,0.019,-1.558,-0.007,-0.024,102.41,91.1,40.575409,-3.5339,635.7,4,5,122.3,1.758
103.66,1,-0.044,-0.009,0.027,-0.03,0.001,0.026,-1.561,-0.004,-0.024,102.41,91.1,40.575409,-3.5339,635.7,4,5,122.3,1.758
103.76,1,-0.002,-0.003,0.038,-0.021,-0.002,0.026,-1.566,-0.005,-0.024,102.41,91.1,40.575409,-3.5339,635.7,4,5,122.3,1.758
103.87,1,-0.05,0.027,0.021,-0.032,-0.0,0.033,-1.567,-0.004,-0.023,102.41,91.1,40.575409,-3.5339,635.7,4,5,122.3,1.758
103.96,1,0.018,0.027,-0.001,-0.003,0.023,0.015,-1.565,-0.006,-0.023,102.41,91.1,40.575409,-3.5339,635.7,4,5,122.3,1.758
104.07,1,-0.055,-0.008,-0.022,-0.034,0.01,-0.006,-1.564,-0.006,-0.022,102.41,91.1,40.575409,-3.5339,635.7,4,5,122.3,1.758
104.16,1,-0.046,-0.007,0.021,-0.035,0.001,0.002,-1.566,-0.008,-0.022,102.41,91.1,40.575409,-3.5339,635.7,4,5,122.3,1.758
104.26,1,0.021,0.013,0.001,-0.014,-0.0,0.007,-1.569,-0.01,-0.022,102.41,91.1,40.575409,-3.5339,635.7,4,5,122.3,1.758
104.36,1,-0.077,0.014,0.019,-0.031,0.013,0.011,-1.571,-0.014,-0.022,102.41,91.1,40.575409,-3.5339,635.7,4,5,122.3,1.758
104.46,1,-0.018,0.03,-0.019,-0.06,0.022,0.0,-1.571,-0.014,-0.022,102.41,91.1,40.575409,-3.5339,635.7,4,5,122.3,1.758
104.56,1,0.056,0.018,-0.007,0.018,0.022,-0.004,-1.571,-0.016,-0.023,103.4,89.8,40.575287,-3.533641,636.2,4,5,122.3,0.703
104.67,1,-0.008,0.013,-0.009,0.008,0.014,-0.008,-1.573,-0.021,-0.023,103.4,89.8,40.575287,-3.533641,636.2,4,5,122.3,0.703
104.77,1,0.081,0.008,0.027,0.035,0.019,0.005,-1.573,-0.022,-0.023,103.4,89.8,40.575287,-3.533641,636.2,4,5,122.3,0.703
104.87,1,0.007,0.003,0.008,0.037,0.007,0.007,-1.573,-0.021,-0.022,103.4,89.8,40.575287,-3.533641,636.2,4,5,122.3,0.703
104.97,1,-0.076,-0.037,0.009,-0.015,-0.015,0.01,-1.574,-0.021,-0.022,103.4,89.8,40.575287,-3.533641,636.2,4,5,122.3,0.703
105.07,1,0.03,-0.003,0.004,-0.007,-0.019,0.011,-1.574,-0.019,-0.022,103.4,89.8,40.575287,-3.533641,636.2,4,5,122.3,0.703
105.17,1,-0.036,0.018,-0.0,-0.013,0.009,0.006,-1.573,-0.025,-0.022,103.4,89.8,40.575287,-3.533641,636.2,4,5,122.3,0.703
105.27,1,-0.015,-0.007,-0.024,-0.027,0.0,-0.011,-1.571,-0.023,-0.021,103.4,89.8,40.575287,-3.533641,636.2,4,5,122.3,0.703
105.37,1,-0.036,-0.022,0.004,-0.025,-0.011,-0.008,-1.572,-0.021,-0.021,103.4,89.8,40.575287,-3.533641,636.2,4,5,122.3,0.703
105.48,1,0.002,-0.017,0.009,-0.016,-0.021,0.009,-1.574,-0.022,-0.02,103.4,89.8,40.575287,-3.533641,636.2,4,5,122.3,0.703
105.57,1,0.022,-0.001,-0.0,0.005,-0.007,-0.002,-1.571,-0.022,-0.02,104.4,89.2,40.575169,-3.533406,636.9,4,5,122.7,0.352
105.67,1,0.02,-0.025,-0.008,0.018,-0.012,-0.005,-1.575,-0.022,-0.019,104.4,89.2,40.575169,-3.533406,636.9,4,5,122.7,0.352
105.78,1,-0.005,-0.001,0.0,0.005,-0.014,-0.001,-1.577,-0.02,-0.019,104.4,89.2,40.575169,-3.533406,636.9,4,5,122.7,0.352
105.88,1,-0.029,0.008,-0.014,-0.014,0.006,-0.011,-1.575,-0.021,-0.018,104.4,89.2,40.575169,-3.533406,636.9,4,5,122.7,0.352
105.97,1,-0.073,0.015,0.036,-0.039,0.006,0.009,-1.577,-0.019,-0.017,104.4,89.2,40.575169,-3.533406,636.9,4,5,122.7,0.352
106.07,1,-0.06,-0.028,0.014,-0.042,-0.01,0.02,-1.58,-0.015,-0.016,104.4,89.2,40.575169,-3.533406,636.9,4,5,122.7,0.352
106.17,1,-0.05,-0.013,0.021,-0.051,-0.014,0.017,-1.58,-0.015,-0.016,104.4,89.2,40.575169,-3.533406,636.9,4,5,122.7,0.352
106.27,1,0.087,-0.014,0.007,0.002,-0.016,0.019,-1.582,-0.015,-0.015,104.4,89.2,40.575169,-3.533406,636.9,4,5,122.7,0.352
106.37,1,-0.044,-0.013,0.01,-0.016,-0.011,0.002,-1.579,-0.016,-0.015,104.4,89.2,40.575169,-3.533406,636.9,4,5,122.7,0.352
106.47,1,0.064,-0.037,-0.027,0.019,-0.021,0.001,-1.579,-0.018,-0.014,104.4,89.2,40.575169,-3.533406,636.9,4,5,122.7,0.352
106.57,1,0.008,-0.008,0.006,0.032,-0.016,-0.006,-1.582,-0.019,-0.013,105.47,89.2,40.575043,-3.533159,637.4,4,5,122.7,0.352
106.67,1,-0.057,0.001,-0.01,-0.011,-0.01,-0.005,-1.586,-0.017,-0.012,105.47,89.2,40.575043,-3.533159,637.4,4,5,122.7,0.352
106.77,1,0.144,-0.014,-0.023,0.022,-0.008,-0.017,-1.585,-0.016,-0.011,105.47,89.2,40.575043,-3.533159,637.4,4,5,122.7,0.352
106.87,1,-0.053,-0.016,0.012,0.051,-0.016,0.002,-1.584,-0.014,-0.009,105.47,89.2,40.575043,-3.533159,637.4,4,5,122.7,0.352
106.97,1,-0.038,-0.01,-0.005,-0.041,-0.011,-0.008,-1.584,-0.013,-0.009,105.47,89.2,40.575043,-3.533159,637.4,4,5,122.7,0.352
107.08,1,-0.092,-0.042,0.009,-0.04,-0.025,0.004,-1.585,-0.012,-0.008,105.47,89.2,40.575043,-3.533159,637.4,4,5,122.7,0.352
107.17,1,-0.043,-0.022,-0.021,-0.065,-0.031,-0.009,-1.585,-0.009,-0.007,105.47,89.2,40.575043,-3.533159,637.4,4,5,122.7,0.352
107.28,1,0.011,-0.022,0.02,-0.027,-0.02,0.002,-1.588,-0.013,-0.006,105.47,89.2,40.575043,-3.533159,637.4,4,5,122.7,0.352
107.39,1,0.055,0.009,-0.007,0.024,-0.015,0.005,-1.588,-0.013,-0.006,105.47,89.2,40.575043,-3.533159,637.4,4,5,122.7,0.352
107.57,1,-0.002,0.001,0.008,0.011,0.006,0.0,-1.581,-0.013,-0.006,105.47,89.2,40.575043,-3.533159,637.4,4,5,122.7,0.352
107.67,1,-0.022,0.019,0.042,0.0,0.009,0.024,-1.584,-0.015,-0.007,106.42,89.2,40.574917,-3.532918,638.2,4,5,123.4,0.703
107.77,1,-0.02,-0.002,-0.004,-0.015,0.006,0.011,-1.585,-0.019,-0.007,106.42,89.2,40.574917,-3.532918,638.2,4,5,123.4,0.703
107.88,1,-0.026,0.022,-0.007,-0.02,0.012,-0.003,-1.586,-0.024,-0.007,106.42,89.2,40.574917,-3.532918,638.2,4,5,123.4,0.703
107.97,1,-0.032,0.001,0.016,-0.043,0.005,0.01,-1.585,-0.027,-0.007,106.42,89.2,40.574917,-3.532918,638.2,4,5,123.4,0.703
108.07,1,0.062,0.027,-0.024,0.019,0.016,-0.008,-1.585,-0.027,-0.007,106.42,89.2,40.574917,-3.532918,638.2,4,5,123.4,0.703
108.17,1,-0.042,-0.001,-0.022,-0.012,0.008,-0.021,-1.583,-0.027,-0.006,106.42,89.2,40.574917,-3.532918,638.2,4,5,123.4,0.703
108.27,1,-0.001,-0.05,-0.029,-0.012,-0.012,-0.02,-1.581,-0.022,-0.004,106.42,89.2,40.574917,-3.532918,638.2,4,5,123.4,0.703
108.37,1,-0.057,-0.073,-0.015,-0.013,-0.043,-0.02,-1.578,-0.016,-0.002,106.42,89.2,40.574917,-3.532918,638.2,4,5,123.4,0.703
108.48,1,0.04,-0.033,0.003,-0.013,-0.051,-0.006,-1.577,-0.015,-0.001,106.42,89.2,40.574917,-3.532918,638.2,4,5,123.4,0.703
108.57,1,0.021,-0.005,-0.027,0.013,-0.024,-0.014,-1.573,-0.014,0.0,106.42,89.2,40.574917,-3.532918,638.2,4,5,123.4,0.703
108.68,1,-0.063,-0.039,-0.013,-0.007,-0.026,-0.019,-1.573,-0.015,0.002,107.41,89.4,40.574791,-3.532665,638.8,4,5,123.4,0.703
108.77,1,0.012,-0.016,-0.005,-0.02,-0.031,-0.011,-1.573,-0.011,0.004,107.41,89.4,40.574791,-3.532665,638.8,4,5,123.4,0.703
108.88,1,0.009,-0.019,-0.025,-0.003,-0.02,-0.014,-1.573,-0.01,0.005,107.41,89.4,40.574791,-3.532665,638.8,4,5,123.4,0.703
108.98,1,-0.051,-0.005,-0.02,0.005,-0.01,-0.02,-1.571,-0.008,0.007,107.41,89.4,40.574791,-3.532665,638.8,4,5,123.4,0.703
109.08,1,-0.064,-0.068,0.006,-0.063,-0.032,-0.006,-1.57,-0.008,0.009,107.41,89.4,40.574791,-3.532665,638.8,4,5,123.4,0.703
109.18,1,0.017,-0.021,-0.015,-0.019,-0.039,-0.012,-1.569,-0.007,0.01,107.41,89.4,40.574791,-3.532665,638.8,4,5,123.4,0.703
109.28,1,-0.026,-0.043,0.007,-0.005,-0.031,-0.0,-1.566,-0.004,0.012,107.41,89.4,40.574791,-3.532665,638.8,4,5,123.4,0.703
109.38,1,-0.011,-0.032,-0.015,-0.032,-0.043,-0.007,-1.566,-0.003,0.015,107.41,89.4,40.574791,-3.532665,638.8,4,5,123.4,0.703
109.48,1,-0.006,-0.046,0.016,-0.006,-0.036,0.001,-1.567,0.0,0.017,107.41,89.4,40.574791,-3.532665,638.8,4,5,123.4,0.703
109.58,1,-0.007,-0.035,0.01,-0.011,-0.043,0.008,-1.569,0.007,0.019,107.41,89.4,40.574791,-3.532665,638.8,4,5,123.4,0.703
109.68,1,-0.03,-0.032,0.01,-0.009,-0.031,0.005,-1.571,0.011,0.022,108.44,90.1,40.574669,-3.532423,639.6,4,5,123.4,0.0
109.78,1,-0.029,-0.034,0.022,-0.028,-0.033,0.019,-1.573,0.013,0.025,108.44,90.1,40.574669,-3.532423,639.6,4,5,123.4,0.0
109.88,1,-0.012,-0.009,0.031,-0.017,-0.019,0.018,-1.573,0.01,0.027,108.44,90.1,40.574669,-3.532423,639.6,4,5,123.4,0.0
109.98,1,-0.042,-0.051,0.014,-0.029,-0.041,0.027,-1.573,0.009,0.029,108.44,90.1,40.574669,-3.532423,639.6,4,5,123.4,0.0
110.08,1,0.028,-0.016,0.022,-0.008,-0.025,0.013,-1.573,0.009,0.032,108.44,90.1,40.574669,-3.532423,639.6,4,5,123.4,0.0
110.18,1,0.016,-0.003,-0.011,0.015,-0.018,0.014,-1.576,0.012,0.034,108.44,90.1,40.574669,-3.532423,639.6,4,5,123.4,0.0
110.28,1,-0.038,-0.043,-0.034,-0.013,-0.02,-0.018,-1.575,0.016,0.036,108.44,90.1,40.574669,-3.532423,639.6,4,5,123.4,0.0
110.39,1,0.047,-0.025,0.011,0.007,-0.034,-0.009,-1.576,0.017,0.038,108.44,90.1,40.574669,-3.532423,639.6,4,5,123.4,0.0
110.49,1,-0.058,-0.021,-0.006,-0.021,-0.025,0.002,-1.576,0.02,0.041,108.44,90.1,40.574669,-3.532423,639.6,4,5,123.4,0.0
110.58,1,-0.005,-0.003,0.012,-0.018,-0.013,-0.004,-1.576,0.018,0.043,108.44,90.1,40.574669,-3.532423,639.6,4,5,123.4,0.0
110.68,1,-0.03,-0.005,0.018,-0.018,-0.008,0.012,-1.574,0.018,0.045,109.41,89.9,40.574543,-3.532176,640.4,4,5,123.8,0.352
110.78,1,0.018,-0.016,0.009,-0.005,-0.011,0.013,-1.574,0.017,0.047,109.41,89.9,40.574543,-3.532176,640.4,4,5,123.8,0.352
110.88,1,0.018,-0.006,-0.004,-0.001,-0.011,0.008,-1.576,0.014,0.05,109.41,89.9,40.574543,-3.532176,640.4,4,5,123.8,0.352
110.98,1,0.027,-0.037,0.027,0.029,-0.019,0.008,-1.576,0.015,0.052,109.41,89.9,40.574543,-3.532176,640.4,4,5,123.8,0.352
111.09,1,-0.019,-0.041,0.005,0.001,-0.033,0.016,-1.579,0.017,0.055,109.41,89.9,40.574543,-3.532176,640.4,4,5,123.8,0.352
111.19,1,0.015,-0.012,0.017,0.006,-0.027,0.012,-1.581,0.017,0.057,109.41,89.9,40.574543,-3.532176,640.4,4,5,123.8,0.352
111.28,1,0.017,-0.03,0.023,0.01,-0.022,0.016,-1.583,0.019,0.059,109.41,89.9,40.574543,-3.532176,640.4,4,5,123.8,0.352
111.39,1,-0.001,-0.016,-0.014,0.015,-0.023,0.003,-1.583,0.023,0.062,109.41,89.9,40.574543,-3.532176,640.4,4,5,123.8,0.352
111.48,1,-0.009,-0.059,0.004,-0.006,-0.034,0.004,-1.585,0.024,0.065,109.41,89.9,40.574543,-3.532176,640.4,4,5,123.8,0.352
111.58,1,-0.002,-0.006,-0.004,-0.003,-0.032,-0.003,-1.586,0.024,0.068,109.41,89.9,40.574543,-3.532176,640.4,4,5,123.8,0.352
111.69,1,-0.027,-0.002,0.015,-0.017,-0.014,0.009,-1.586,0.022,0.07,110.5,89.4,40.574421,-3.531936,641.1,3,5,123.0,0.703
111.78,1,0.005,0.006,-0.005,-0.004,-0.002,-0.0,-1.585,0.021,0.072,110.5,89.4,40.574421,-3.531936,641.1,3,5,123.0,0.703
111.89,1,-0.021,0.013,-0.004,-0.01,0.002,-0.004,-1.586,0.019,0.074,110.5,89.4,40.574421,-3.531936,641.1,3,5,123.0,0.703
111.98,1,0.025,0.005,0.014,0.001,0.006,0.008,-1.586,0.019,0.076,110.5,89.4,40.574421,-3.531936,641.1,3,5,123.0,0.703
112.1,1,0.013,-0.039,-0.008,0.02,-0.012,0.002,-1.587,0.017,0.078,110.5,89.4,40.574421,-3.531936,641.1,3,5,123.0,0.703
112.18,1,-0.028,0.02,0.019,-0.02,-0.0,-0.0,-1.591,0.014,0.08,110.5,89.4,40.574421,-3.531936,641.1,3,5,123.0,0.703
112.29,1,0.018,-0.014,-0.004,-0.003,0.0,0.011,-1.595,0.013,0.082,110.5,89.4,40.574421,-3.531936,641.1,3,5,123.0,0.703
112.39,1,-0.028,0.003,0.016,-0.001,-0.007,0.004,-1.591,0.015,0.084,110.5,89.4,40.574421,-3.531936,641.1,3,5,123.0,0.703
112.48,1,-0.028,-0.01,0.017,-0.021,-0.003,0.014,-1.593,0.018,0.086,110.5,89.4,40.574421,-3.531936,641.1,3,5,123.0,0.703
112.58,1,-0.009,0.025,0.027,-0.016,0.006,0.018,-1.593,0.017,0.088,110.5,89.4,40.574421,-3.531936,641.1,3,5,123.0,0.703
112.68,1,0.034,-0.008,0.016,0.01,0.009,0.017,-1.591,0.016,0.09,111.41,89.7,40.574303,-3.531691,641.7,3,5,122.0,1.758
112.79,1,-0.034,-0.009,-0.005,-0.004,-0.005,0.013,-1.593,0.015,0.091,111.41,89.7,40.574303,-3.531691,641.7,3,5,122.0,1.758
112.89,1,0.05,-0.017,0.016,0.007,-0.015,0.01,-1.592,0.016,0.093,111.41,89.7,40.574303,-3.531691,641.7,3,5,122.0,1.758
112.99,1,-0.031,-0.011,0.006,0.012,-0.012,0.008,-1.593,0.017,0.094,111.41,89.7,40.574303,-3.531691,641.7,3,5,122.0,1.758
113.08,1,-0.036,-0.007,-0.014,-0.027,-0.008,0.001,-1.594,0.018,0.095,111.41,89.7,40.574303,-3.531691,641.7,3,5,122.0,1.758
113.18,1,-0.027,0.025,0.01,-0.028,0.009,-0.004,-1.59,0.014,0.096,111.41,89.7,40.574303,-3.531691,641.7,3,5,122.0,1.758
113.29,1,0.016,0.006,0.022,-0.011,0.007,0.015,-1.589,0.011,0.098,111.41,89.7,40.574303,-3.531691,641.7,3,5,122.0,1.758
113.39,1,-0.007,0.023,0.001,-0.001,0.013,0.009,-1.591,0.009,0.099,111.41,89.7,40.574303,-3.531691,641.7,3,5,122.0,1.758
113.49,1,0.019,-0.011,0.021,-0.005,0.005,0.013,-1.592,0.01,0.1,111.41,89.7,40.574303,-3.531691,641.7,3,5,122.0,1.758
113.6,1,0.0,-0.008,0.017,0.016,-0.004,0.018,-1.591,0.009,0.101,111.41,89.7,40.574303,-3.531691,641.7,3,5,122.0,1.758
113.69,1,-0.068,-0.021,-0.024,-0.032,-0.011,0.002,-1.588,0.009,0.103,112.39,89.7,40.574188,-3.53143,642.0,4,5,120.9,2.109
113.79,1,-0.008,0.024,-0.007,-0.023,-0.002,-0.008,-1.584,0.01,0.104,112.39,89.7,40.574188,-3.53143,642.0,4,5,120.9,2.109
113.89,1,-0.047,0.018,-0.009,-0.026,0.014,-0.008,-1.581,0.012,0.105,112.39,89.7,40.574188,-3.53143,642.0,4,5,120.9,2.109
113.99,1,0.013,-0.003,0.017,-0.019,0.011,-0.001,-1.58,0.011,0.106,112.39,89.7,40.574188,-3.53143,642.0,4,5,120.9,2.109
114.09,1,0.029,-0.006,0.019,0.011,0.0,0.013,-1.585,0.013,0.107,112.39,89.7,40.574188,-3.53143,642.0,4,5,120.9,2.109
114.2,1,-0.029,0.011,-0.01,-0.008,-0.001,0.005,-1.589,0.012,0.108,112.39,89.7,40.574188,-3.53143,642.0,4,5,120.9,2.109
114.3,1,-0.006,-0.002,-0.006,-0.008,0.004,-0.008,-1.587,0.008,0.109,112.39,89.7,40.574188,-3.53143,642.0,4,5,120.9,2.109
114.39,1,-0.059,0.039,-0.001,-0.027,0.012,0.002,-1.589,0.009,0.11,112.39,89.7,40.574188,-3.53143,642.0,4,5,120.9,2.109
114.49,1,0.017,-0.001,-0.012,-0.021,0.016,-0.002,-1.59,0.009,0.111,112.39,89.7,40.574188,-3.53143,642.0,4,5,120.9,2.109
114.59,1,0.037,0.01,0.001,0.012,0.013,-0.009,-1.592,0.008,0.112,112.39,89.7,40.574188,-3.53143,642.0,4,5,120.9,2.109
114.69,1,0.027,-0.004,-0.035,0.024,0.001,-0.012,-1.593,0.006,0.113,113.41,90.0,40.574078,-3.531178,642.5,4,5,119.5,2.461
114.79,1,-0.06,-0.015,-0.045,-0.007,-0.001,-0.033,-1.591,0.006,0.114,113.41,90.0,40.574078,-3.531178,642.5,4,5,119.5,2.461
114.89,1,0.034,-0.035,-0.006,-0.009,-0.024,-0.028,-1.59,0.003,0.115,113.41,90.0,40.574078,-3.531178,642.5,4,5,119.5,2.461
114.99,1,0.034,-0.008,-0.025,0.025,-0.016,-0.019,-1.59,0.002,0.116,113.41,90.0,40.574078,-3.531178,642.5,4,5,119.5,2.461
115.09,1,-0.08,-0.004,-0.039,-0.026,-0.014,-0.032,-1.589,0.002,0.117,113.41,90.0,40.574078,-3.531178,642.5,4,5,119.5,2.461
115.19,1,-0.043,-0.022,-0.02,-0.038,-0.007,-0.024,-1.589,0.003,0.118,113.41,90.0,40.574078,-3.531178,642.5,4,5,119.5,2.461
115.29,1,-0.031,0.013,-0.035,-0.031,-0.006,-0.028,-1.589,0.005,0.119,113.41,90.0,40.574078,-3.531178,642.5,4,5,119.5,2.461
115.4,1,-0.036,-0.027,-0.047,-0.032,-0.009,-0.039,-1.587,0.006,0.12,113.41,90.0,40.574078,-3.531178,642.5,4,5,119.5,2.461
115.49,1,-0.02,-0.006,-0.025,-0.031,-0.012,-0.034,-1.585,0.007,0.122,113.41,90.0,40.574078,-3.531178,642.5,4,5,119.5,2.461
115.59,1,-0.031,0.003,-0.02,-0.024,-0.003,-0.028,-1.582,0.009,0.123,113.41,90.0,40.574078,-3.531178,642.5,4,5,119.5,2.461
115.69,1,-0.0,-0.002,-0.021,-0.026,-0.006,-0.026,-1.58,0.009,0.124,114.39,90.8,40.573967,-3.530916,643.1,4,5,119.2,1.758
115.79,1,-0.025,0.007,-0.0,-0.014,0.002,-0.011,-1.578,0.008,0.125,114.39,90.8,40.573967,-3.530916,643.1,4,5,119.2,1.758
115.89,1,-0.041,-0.033,0.008,-0.022,-0.012,0.001,-1.578,0.011,0.126,114.39,90.8,40.573967,-3.530916,643.1,4,5,119.2,1.758
115.99,1,0.018,0.003,0.024,-0.014,-0.01,0.011,-1.578,0.013,0.127,114.39,90.8,40.573967,-3.530916,643.1,4,5,119.2,1.758
116.09,1,-0.029,0.013,-0.007,-0.01,-0.002,0.005,-1.577,0.013,0.128,114.39,90.8,40.573967,-3.530916,643.1,4,5,119.2,1.758
116.19,1,-0.01,-0.011,0.013,-0.021,0.0,0.007,-1.58,0.012,0.128,114.39,90.8,40.573967,-3.530916,643.1,4,5,119.2,1.758
116.29,1,-0.003,0.04,-0.006,-0.01,0.018,-0.0,-1.579,0.012,0.129,114.39,90.8,40.573967,-3.530916,643.1,4,5,119.2,1.758
116.39,1,-0.009,0.006,0.018,-0.01,0.018,0.009,-1.578,0.014,0.13,114.39,90.8,40.573967,-3.530916,643.1,4,5,119.2,1.758
116.5,1,0.015,-0.016,0.01,0.003,0.003,0.009,-1.578,0.014,0.131,114.39,90.8,40.573967,-3.530916,643.1,4,5,119.2,1.758
116.59,1,-0.027,-0.022,-0.002,0.003,-0.014,0.007,-1.576,0.014,0.132,114.39,90.8,40.573967,-3.530916,643.1,4,5,119.2,1.758
116.7,1,-0.009,0.008,-0.002,-0.016,-0.008,0.001,-1.576,0.016,0.132,115.42,91.0,40.57386,-3.530658,643.3,4,5,118.5,1.055
116.79,1,-0.007,0.011,-0.015,-0.012,0.003,-0.005,-1.577,0.015,0.133,115.42,91.0,40.57386,-3.530658,643.3,4,5,118.5,1.055
116.89,1,0.013,0.007,-0.007,-0.003,0.006,-0.012,-1.578,0.014,0.134,115.42,91.0,40.57386,-3.530658,643.3,4,5,118.5,1.055
117.0,1,-0.009,0.002,-0.009,0.002,0.007,-0.007,-1.578,0.014,0.135,115.42,91.0,40.57386,-3.530658,643.3,4,5,118.5,1.055
117.09,1,-0.028,-0.011,0.031,-0.016,-0.002,0.005,-1.578,0.011,0.136,115.42,91.0,40.57386,-3.530658,643.3,4,5,118.5,1.055
117.19,1,-0.026,-0.024,-0.024,-0.027,-0.016,0.002,-1.578,0.01,0.137,115.42,91.0,40.57386,-3.530658,643.3,4,5,118.5,1.055
117.3,1,0.012,0.004,0.004,-0.003,-0.007,-0.007,-1.576,0.01,0.138,115.42,91.0,40.57386,-3.530658,643.3,4,5,118.5,1.055
117.41,1,0.011,-0.004,-0.004,0.005,-0.004,0.001,-1.577,0.012,0.139,115.42,91.0,40.57386,-3.530658,643.3,4,5,118.5,1.055
117.59,1,0.022,-0.005,-0.011,-0.015,-0.007,-0.008,-1.581,0.012,0.141,115.42,91.0,40.57386,-3.530658,643.3,4,5,118.5,1.055
117.69,1,-0.022,-0.013,0.014,-0.002,-0.008,0.002,-1.582,0.012,0.142,115.42,91.0,40.57386,-3.530658,643.3,4,5,118.5,1.055
117.8,1,0.005,-0.027,0.004,-0.018,-0.018,0.0,-1.582,0.016,0.143,116.41,89.4,40.573757,-3.530403,643.9,3,5,117.1,2.109
117.9,1,0.069,-0.007,0.027,0.04,-0.018,0.026,-1.578,0.017,0.144,116.41,89.4,40.573757,-3.530403,643.9,3,5,117.1,2.109
118.01,1,0.039,-0.007,-0.016,0.036,-0.01,0.001,-1.576,0.015,0.145,116.41,89.4,40.573757,-3.530403,643.9,3,5,117.1,2.109
118.1,1,0.002,-0.019,-0.017,0.024,-0.013,-0.006,-1.578,0.015,0.146,116.41,89.4,40.573757,-3.530403,643.9,3,5,117.1,2.109
118.2,1,-0.028,-0.004,0.021,-0.002,-0.013,-0.006,-1.576,0.017,0.147,116.41,89.4,40.573757,-3.530403,643.9,3,5,117.1,2.109
118.3,1,0.056,-0.019,0.022,0.011,-0.013,0.011,-1.576,0.019,0.149,116.41,89.4,40.573757,-3.530403,643.9,3,5,117.1,2.109
118.4,1,-0.044,-0.009,-0.018,0.003,-0.014,0.005,-1.576,0.02,0.15,116.41,89.4,40.573757,-3.530403,643.9,3,5,117.1,2.109
118.5,1,0.01,-0.045,0.005,-0.013,-0.023,-0.003,-1.575,0.02,0.151,116.41,89.4,40.573757,-3.530403,643.9,3,5,117.1,2.109
118.6,1,0.005,0.005,-0.004,0.008,-0.018,0.003,-1.575,0.02,0.152,116.41,89.4,40.573757,-3.530403,643.9,3,5,117.1,2.109
118.7,1,-0.029,-0.01,-0.007,-0.018,-0.003,-0.007,-1.576,0.02,0.153,116.41,89.4,40.573757,-3.530403,643.9,3,5,117.1,2.109
118.8,1,0.048,0.009,-0.021,0.021,-0.006,-0.007,-1.576,0.02,0.154,117.45,91.0,40.573647,-3.53014,644.5,3,5,117.1,1.406
118.9,1,-0.056,-0.013,0.031,-0.007,-0.005,0.005,-1.579,0.022,0.155,117.45,91.0,40.573647,-3.53014,644.5,3,5,117.1,1.406
119.0,1,-0.045,-0.001,-0.008,-0.04,-0.009,0.003,-1.582,0.022,0.156,117.45,91.0,40.573647,-3.53014,644.5,3,5,117.1,1.406
119.1,1,-0.023,-0.007,0.012,-0.031,-0.004,0.002,-1.582,0.02,0.156,117.45,91.0,40.573647,-3.53014,644.5,3,5,117.1,1.406
119.21,1,-0.021,-0.006,0.012,-0.027,-0.004,0.008,-1.58,0.019,0.156,117.45,91.0,40.573647,-3.53014,644.5,3,5,117.1,1.406
119.3,1,0.021,-0.021,0.01,0.013,-0.014,0.013,-1.581,0.018,0.157,117.45,91.0,40.573647,-3.53014,644.5,3,5,117.1,1.406
119.4,1,-0.053,0.009,-0.012,-0.019,-0.004,-0.003,-1.582,0.016,0.157,117.45,91.0,40.573647,-3.53014,644.5,3,5,117.1,1.406
119.5,1,0.02,0.032,0.005,-0.016,0.011,0.0,-1.585,0.014,0.157,117.45,91.0,40.573647,-3.53014,644.5,3,5,117.1,1.406
119.6,1,-0.001,0.013,0.011,-0.007,0.021,0.012,-1.585,0.017,0.158,117.45,91.0,40.573647,-3.53014,644.5,3,5,117.1,1.406
119.7,1,0.002,-0.009,-0.019,0.01,0.008,-0.004,-1.584,0.015,0.158,117.45,91.0,40.573647,-3.53014,644.5,3,5,117.1,1.406
119.81,1,0.011,0.001,-0.015,0.001,0.003,-0.014,-1.583,0.015,0.158,118.41,90.9,40.573544,-3.529877,644.8,3,5,116.4,0.703
119.9,1,-0.031,0.013,-0.011,-0.011,0.004,-0.015,-1.582,0.013,0.159,118.41,90.9,40.573544,-3.529877,644.8,3,5,116.4,0.703
120.0,1,-0.034,0.006,-0.001,-0.019,0.004,-0.003,-1.584,0.013,0.159,118.41,90.9,40.573544,-3.529877,644.8,3,5,116.4,0.703
120.11,1,-0.009,0.019,-0.008,-0.024,0.012,-0.011,-1.584,0.012,0.159,118.41,90.9,40.573544,-3.529877,644.8,3,5,116.4,0.703
120.2,1,0.007,-0.001,0.027,-0.009,0.012,0.01,-1.587,0.01,0.159,118.41,90.9,40.573544,-3.529877,644.8,3,5,116.4,0.703
