Timestamp_Accel,SystemActivated,accelerometerXAxis,accelerometerYAxis,accelerometerZAxis,AccelX_KF,AccelY_KF,AccelZ_KF,gyroscopeXAxis,gyroscopeYAxis,gyroscopeZAxis,Timestamp_GPS,Speed,latitude,longitude,Altitude,VerticalAccuracy,HorizontalAccuracy,Course,Difcourse
12.34,0,-0.072,-0.395,-0.129,-0.073,-0.398,-0.139,-1.713,-0.317,-0.659,12.34,0.0,40.504421,-3.364157,608.3,17,2000,-1.0,-1.0
12.43,0,-0.073,-0.376,-0.133,-0.072,-0.384,-0.139,-1.713,-0.319,-0.657,12.34,0.0,40.504421,-3.364157,608.3,17,2000,-1.0,-1.0
12.53,0,-0.093,-0.373,-0.158,-0.074,-0.376,-0.146,-1.712,-0.319,-0.653,12.34,0.0,40.504421,-3.364157,608.3,17,2000,-1.0,-1.0
12.63,0,-0.037,-0.38,-0.156,-0.074,-0.375,-0.151,-1.71,-0.316,-0.65,12.34,0.0,40.504421,-3.364157,608.3,17,2000,-1.0,-1.0
12.74,0,0.0,-0.399,-0.113,-0.029,-0.386,-0.133,-1.708,-0.315,-0.647,12.34,0.0,40.504421,-3.364157,608.3,17,2000,-1.0,-1.0
12.83,1,-0.042,-0.404,-0.085,-0.025,-0.399,-0.115,-1.707,-0.316,-0.645,12.34,0.0,40.504421,-3.364157,608.3,17,2000,-1.0,-1.0
12.93,1,-0.033,-0.374,-0.126,-0.032,-0.39,-0.11,-1.707,-0.32,-0.644,12.34,0.0,40.504421,-3.364157,608.3,17,2000,-1.0,-1.0
13.03,1,-0.089,-0.355,-0.125,-0.056,-0.372,-0.114,-1.707,-0.324,-0.644,12.34,0.0,40.504421,-3.364157,608.3,17,2000,-1.0,-1.0
13.14,1,-0.091,-0.32,-0.096,-0.079,-0.345,-0.114,-1.707,-0.326,-0.643,12.34,0.0,40.504421,-3.364157,608.3,17,2000,-1.0,-1.0
13.23,1,-0.065,-0.322,-0.105,-0.082,-0.333,-0.107,-1.707,-0.324,-0.64,12.34,0.0,40.504421,-3.364157,608.3,17,2000,-1.0,-1.0
13.34,1,-0.073,-0.37,-0.081,-0.067,-0.345,-0.1,-1.707,-0.321,-0.638,13.37,80.6,40.505661,-3.355633,585.7,24,10,275.3,125.859
13.43,1,-0.07,-0.366,-0.101,-0.071,-0.359,-0.091,-1.707,-0.319,-0.637,13.37,80.6,40.505661,-3.355633,585.7,24,10,275.3,125.859
13.53,1,-0.027,-0.369,-0.067,-0.056,-0.365,-0.078,-1.706,-0.318,-0.636,13.37,80.6,40.505661,-3.355633,585.7,24,10,275.3,125.859
13.63,1,-0.025,-0.328,-0.046,-0.031,-0.351,-0.061,-1.705,-0.32,-0.636,13.37,80.6,40.505661,-3.355633,585.7,24,10,275.3,125.859
13.73,1,-0.041,-0.301,-0.077,-0.035,-0.327,-0.068,-1.705,-0.322,-0.637,13.37,80.6,40.505661,-3.355633,585.7,24,10,275.3,125.859
13.83,1,-0.099,-0.301,-0.037,-0.06,-0.311,-0.062,-1.706,-0.324,-0.638,13.37,80.6,40.505661,-3.355633,585.7,24,10,275.3,125.859
13.94,1,-0.094,-0.34,-0.013,-0.086,-0.321,-0.037,-1.708,-0.325,-0.638,13.37,80.6,40.505661,-3.355633,585.7,24,10,275.3,125.859
14.04,1,-0.119,-0.296,-0.053,-0.102,-0.312,-0.039,-1.709,-0.325,-0.639,13.37,80.6,40.505661,-3.355633,585.7,24,10,275.3,125.859
14.14,1,-0.08,-0.308,-0.039,-0.098,-0.31,-0.039,-1.71,-0.322,-0.639,13.37,80.6,40.505661,-3.355633,585.7,24,10,275.3,125.859
14.23,1,-0.05,-0.333,-0.015,-0.072,-0.315,-0.027,-1.711,-0.319,-0.639,13.37,80.6,40.505661,-3.355633,585.7,24,10,275.3,125.859
14.33,1,-0.04,-0.348,-0.046,-0.056,-0.333,-0.032,-1.711,-0.317,-0.64,14.39,77.5,40.50573,-3.356057,600.8,6,5,274.2,124.805
14.43,1,0.003,-0.302,-0.034,-0.031,-0.326,-0.037,-1.711,-0.318,-0.641,14.39,77.5,40.50573,-3.356057,600.8,6,5,274.2,124.805
14.53,1,-0.071,-0.302,-0.048,-0.042,-0.311,-0.038,-1.71,-0.319,-0.642,14.39,77.5,40.50573,-3.356057,600.8,6,5,274.2,124.805
14.63,1,-0.073,-0.276,-0.057,-0.05,-0.296,-0.049,-1.712,-0.32,-0.644,14.39,77.5,40.50573,-3.356057,600.8,6,5,274.2,124.805
14.73,1,-0.119,-0.313,-0.028,-0.08,-0.299,-0.045,-1.713,-0.321,-0.645,14.39,77.5,40.50573,-3.356057,600.8,6,5,274.2,124.805
14.83,1,-0.127,-0.278,-0.07,-0.118,-0.295,-0.049,-1.714,-0.323,-0.647,14.39,77.5,40.50573,-3.356057,600.8,6,5,274.2,124.805
14.93,1,-0.077,-0.276,-0.042,-0.107,-0.28,-0.058,-1.715,-0.323,-0.649,14.39,77.5,40.50573,-3.356057,600.8,6,5,274.2,124.805
15.04,1,-0.001,-0.289,-0.048,-0.054,-0.28,-0.043,-1.714,-0.321,-0.65,14.39,77.5,40.50573,-3.356057,600.8,6,5,274.2,124.805
15.13,1,-0.008,-0.297,-0.092,-0.022,-0.292,-0.062,-1.713,-0.32,-0.651,14.39,77.5,40.50573,-3.356057,600.8,6,5,274.2,124.805
15.24,1,-0.038,-0.301,-0.169,-0.025,-0.296,-0.116,-1.712,-0.319,-0.653,14.39,77.5,40.50573,-3.356057,600.8,6,5,274.2,124.805
15.33,1,-0.078,-0.331,-0.185,-0.044,-0.31,-0.157,-1.709,-0.318,-0.654,15.4,79.3,40.505741,-3.356345,602.9,3,5,273.2,2.109
15.43,1,-0.155,-0.322,-0.251,-0.102,-0.321,-0.201,-1.706,-0.319,-0.656,15.4,79.3,40.505741,-3.356345,602.9,3,5,273.2,2.109
15.53,1,-0.119,-0.299,-0.203,-0.119,-0.312,-0.209,-1.707,-0.32,-0.657,15.4,79.3,40.505741,-3.356345,602.9,3,5,273.2,2.109
15.63,1,-0.098,-0.322,-0.211,-0.116,-0.317,-0.211,-1.708,-0.321,-0.658,15.4,79.3,40.505741,-3.356345,602.9,3,5,273.2,2.109
15.73,1,-0.009,-0.308,-0.156,-0.069,-0.313,-0.19,-1.71,-0.321,-0.659,15.4,79.3,40.505741,-3.356345,602.9,3,5,273.2,2.109
15.83,1,0.013,-0.315,-0.18,-0.02,-0.309,-0.178,-1.71,-0.321,-0.659,15.4,79.3,40.505741,-3.356345,602.9,3,5,273.2,2.109
15.94,1,-0.075,-0.337,-0.213,-0.035,-0.322,-0.192,-1.709,-0.322,-0.66,15.4,79.3,40.505741,-3.356345,602.9,3,5,273.2,2.109
16.03,1,-0.061,-0.301,-0.135,-0.052,-0.318,-0.18,-1.709,-0.323,-0.661,15.4,79.3,40.505741,-3.356345,602.9,3,5,273.2,2.109
16.13,1,-0.088,-0.278,-0.126,-0.066,-0.299,-0.141,-1.71,-0.324,-0.662,15.4,79.3,40.505741,-3.356345,602.9,3,5,273.2,2.109
16.23,1,-0.122,-0.335,-0.117,-0.102,-0.31,-0.131,-1.713,-0.323,-0.663,15.4,79.3,40.505741,-3.356345,602.9,3,5,273.2,2.109
16.33,1,-0.076,-0.328,-0.101,-0.097,-0.322,-0.115,-1.716,-0.323,-0.663,16.33,83.7,40.505764,-3.356617,604.0,3,5,273.9,0.703
16.43,1,-0.047,-0.318,-0.106,-0.068,-0.32,-0.107,-1.715,-0.322,-0.663,16.33,83.7,40.505764,-3.356617,604.0,3,5,273.9,0.703
16.54,1,-0.046,-0.32,-0.137,-0.054,-0.318,-0.119,-1.715,-0.32,-0.662,16.33,83.7,40.505764,-3.356617,604.0,3,5,273.9,0.703
16.63,1,-0.052,-0.366,-0.12,-0.053,-0.34,-0.126,-1.714,-0.318,-0.661,16.33,83.7,40.505764,-3.356617,604.0,3,5,273.9,0.703
16.73,1,-0.062,-0.346,-0.099,-0.049,-0.347,-0.11,-1.715,-0.318,-0.661,16.33,83.7,40.505764,-3.356617,604.0,3,5,273.9,0.703
16.83,1,-0.086,-0.368,-0.116,-0.069,-0.353,-0.112,-1.715,-0.317,-0.659,16.33,83.7,40.505764,-3.356617,604.0,3,5,273.9,0.703
16.93,1,-0.092,-0.369,-0.101,-0.087,-0.367,-0.109,-1.715,-0.317,-0.658,16.33,83.7,40.505764,-3.356617,604.0,3,5,273.9,0.703
17.03,1,-0.076,-0.361,-0.097,-0.08,-0.362,-0.102,-1.716,-0.318,-0.657,16.33,83.7,40.505764,-3.356617,604.0,3,5,273.9,0.703
17.13,1,-0.046,-0.35,-0.11,-0.067,-0.36,-0.104,-1.715,-0.318,-0.656,16.33,83.7,40.505764,-3.356617,604.0,3,5,273.9,0.703
17.24,1,-0.049,-0.372,-0.085,-0.059,-0.363,-0.094,-1.715,-0.319,-0.654,16.33,83.7,40.505764,-3.356617,604.0,3,5,273.9,0.703
17.33,1,-0.07,-0.371,-0.101,-0.057,-0.367,-0.097,-1.714,-0.321,-0.653,17.31,84.6,40.505787,-3.356892,604.0,3,5,274.9,1.758
17.43,1,-0.064,-0.356,-0.067,-0.066,-0.367,-0.09,-1.714,-0.323,-0.653,17.31,84.6,40.505787,-3.356892,604.0,3,5,274.9,1.758
17.53,1,-0.061,-0.326,-0.068,-0.063,-0.35,-0.077,-1.715,-0.325,-0.652,17.31,84.6,40.505787,-3.356892,604.0,3,5,274.9,1.758
17.63,1,-0.062,-0.309,-0.068,-0.06,-0.321,-0.068,-1.715,-0.324,-0.651,17.31,84.6,40.505787,-3.356892,604.0,3,5,274.9,1.758
17.73,1,-0.065,-0.344,-0.063,-0.062,-0.327,-0.066,-1.714,-0.321,-0.65,17.31,84.6,40.505787,-3.356892,604.0,3,5,274.9,1.758
17.83,1,-0.057,-0.338,-0.048,-0.064,-0.34,-0.058,-1.714,-0.319,-0.649,17.31,84.6,40.505787,-3.356892,604.0,3,5,274.9,1.758
17.93,1,-0.06,-0.311,-0.041,-0.06,-0.324,-0.05,-1.714,-0.317,-0.649,17.31,84.6,40.505787,-3.356892,604.0,3,5,274.9,1.758
18.03,1,-0.04,-0.333,-0.052,-0.051,-0.326,-0.047,-1.714,-0.316,-0.649,17.31,84.6,40.505787,-3.356892,604.0,3,5,274.9,1.758
18.13,1,-0.056,-0.317,-0.046,-0.053,-0.324,-0.047,-1.715,-0.317,-0.649,17.31,84.6,40.505787,-3.356892,604.0,3,5,274.9,1.758
18.23,1,-0.084,-0.301,-0.049,-0.065,-0.308,-0.046,-1.715,-0.317,-0.65,17.31,84.6,40.505787,-3.356892,604.0,3,5,274.9,1.758
18.33,1,-0.107,-0.324,-0.081,-0.08,-0.315,-0.066,-1.715,-0.316,-0.65,18.32,86.0,40.505806,-3.35717,603.3,3,5,274.9,1.055
18.43,1,-0.108,-0.332,-0.1,-0.104,-0.329,-0.082,-1.715,-0.314,-0.648,18.32,86.0,40.505806,-3.35717,603.3,3,5,274.9,1.055
18.53,1,-0.05,-0.35,-0.09,-0.081,-0.334,-0.094,-1.715,-0.313,-0.648,18.32,86.0,40.505806,-3.35717,603.3,3,5,274.9,1.055
18.63,1,-0.04,-0.385,-0.059,-0.059,-0.362,-0.065,-1.713,-0.314,-0.647,18.32,86.0,40.505806,-3.35717,603.3,3,5,274.9,1.055
18.73,1,-0.048,-0.387,-0.088,-0.043,-0.378,-0.078,-1.712,-0.319,-0.647,18.32,86.0,40.505806,-3.35717,603.3,3,5,274.9,1.055
18.83,1,-0.077,-0.318,-0.103,-0.056,-0.354,-0.09,-1.712,-0.323,-0.647,18.32,86.0,40.505806,-3.35717,603.3,3,5,274.9,1.055
18.93,1,-0.109,-0.352,-0.078,-0.092,-0.348,-0.084,-1.712,-0.325,-0.645,18.32,86.0,40.505806,-3.35717,603.3,3,5,274.9,1.055
19.03,1,-0.071,-0.357,-0.079,-0.085,-0.345,-0.082,-1.712,-0.325,-0.644,18.32,86.0,40.505806,-3.35717,603.3,3,5,274.9,1.055
19.14,1,-0.046,-0.357,-0.08,-0.068,-0.357,-0.085,-1.711,-0.327,-0.643,18.32,86.0,40.505806,-3.35717,603.3,3,5,274.9,1.055
19.23,1,-0.085,-0.363,-0.103,-0.062,-0.361,-0.091,-1.712,-0.329,-0.643,18.32,86.0,40.505806,-3.35717,603.3,3,5,274.9,1.055
19.33,1,-0.071,-0.353,-0.085,-0.081,-0.361,-0.091,-1.711,-0.332,-0.642,19.32,89.2,40.505825,-3.357465,603.1,3,5,274.9,0.0
19.43,1,-0.149,-0.335,-0.17,-0.103,-0.352,-0.122,-1.711,-0.335,-0.642,19.32,89.2,40.505825,-3.357465,603.1,3,5,274.9,0.0
19.53,1,-0.094,-0.359,-0.082,-0.115,-0.346,-0.119,-1.712,-0.336,-0.641,19.32,89.2,40.505825,-3.357465,603.1,3,5,274.9,0.0
19.63,1,-0.064,-0.353,-0.118,-0.079,-0.348,-0.104,-1.711,-0.336,-0.639,19.32,89.2,40.505825,-3.357465,603.1,3,5,274.9,0.0
19.73,1,-0.096,-0.353,-0.096,-0.086,-0.353,-0.117,-1.711,-0.337,-0.638,19.32,89.2,40.505825,-3.357465,603.1,3,5,274.9,0.0
19.83,1,-0.008,-0.342,-0.118,-0.056,-0.352,-0.103,-1.709,-0.336,-0.637,19.32,89.2,40.505825,-3.357465,603.1,3,5,274.9,0.0
19.93,1,0.053,-0.338,-0.102,-0.002,-0.343,-0.11,-1.707,-0.335,-0.637,19.32,89.2,40.505825,-3.357465,603.1,3,5,274.9,0.0
20.03,1,-0.029,-0.37,-0.104,-0.002,-0.35,-0.109,-1.707,-0.336,-0.636,19.32,89.2,40.505825,-3.357465,603.1,3,5,274.9,0.0
20.13,1,-0.102,-0.328,-0.079,-0.044,-0.343,-0.093,-1.707,-0.34,-0.636,19.32,89.2,40.505825,-3.357465,603.1,3,5,274.9,0.0
20.23,1,-0.08,-0.297,-0.109,-0.078,-0.322,-0.1,-1.705,-0.34,-0.636,19.32,89.2,40.505825,-3.357465,603.1,3,5,274.9,0.0
20.33,1,-0.054,-0.33,-0.07,-0.065,-0.32,-0.079,-1.704,-0.338,-0.635,20.32,92.7,40.505844,-3.35777,602.3,3,5,274.9,0.0
20.44,1,-0.139,-0.37,-0.103,-0.096,-0.344,-0.09,-1.704,-0.336,-0.635,20.32,92.7,40.505844,-3.35777,602.3,3,5,274.9,0.0
20.53,1,-0.125,-0.355,-0.102,-0.118,-0.354,-0.1,-1.706,-0.337,-0.635,20.32,92.7,40.505844,-3.35777,602.3,3,5,274.9,0.0
20.64,1,-0.072,-0.311,-0.087,-0.101,-0.336,-0.094,-1.707,-0.339,-0.636,20.32,92.7,40.505844,-3.35777,602.3,3,5,274.9,0.0
20.73,1,-0.088,-0.346,-0.08,-0.087,-0.329,-0.09,-1.707,-0.339,-0.635,20.32,92.7,40.505844,-3.35777,602.3,3,5,274.9,0.0
20.83,1,-0.103,-0.35,-0.073,-0.093,-0.348,-0.081,-1.708,-0.34,-0.634,20.32,92.7,40.505844,-3.35777,602.3,3,5,274.9,0.0
20.93,1,-0.11,-0.35,-0.066,-0.109,-0.353,-0.069,-1.709,-0.343,-0.634,20.32,92.7,40.505844,-3.35777,602.3,3,5,274.9,0.0
21.03,1,-0.028,-0.349,-0.05,-0.075,-0.348,-0.057,-1.709,-0.345,-0.634,20.32,92.7,40.505844,-3.35777,602.3,3,5,274.9,0.0
21.13,1,-0.019,-0.339,-0.081,-0.041,-0.342,-0.072,-1.708,-0.347,-0.634,20.32,92.7,40.505844,-3.35777,602.3,3,5,274.9,0.0
21.23,1,-0.056,-0.335,-0.047,-0.039,-0.336,-0.061,-1.708,-0.348,-0.634,20.32,92.7,40.505844,-3.35777,602.3,3,5,274.9,0.0
21.33,1,-0.063,-0.327,-0.084,-0.05,-0.335,-0.07,-1.707,-0.349,-0.633,21.33,95.1,40.505859,-3.358086,602.5,3,5,274.6,0.352
21.43,1,-0.107,-0.34,-0.083,-0.074,-0.336,-0.076,-1.706,-0.35,-0.633,21.33,95.1,40.505859,-3.358086,602.5,3,5,274.6,0.352
21.53,1,-0.091,-0.306,-0.06,-0.093,-0.325,-0.074,-1.707,-0.35,-0.634,21.33,95.1,40.505859,-3.358086,602.5,3,5,274.6,0.352
21.63,1,-0.044,-0.291,-0.105,-0.076,-0.308,-0.077,-1.707,-0.351,-0.635,21.33,95.1,40.505859,-3.358086,602.5,3,5,274.6,0.352
21.74,1,-0.109,-0.295,-0.08,-0.07,-0.297,-0.083,-1.709,-0.35,-0.636,21.33,95.1,40.505859,-3.358086,602.5,3,5,274.6,0.352
21.84,1,-0.105,-0.306,-0.063,-0.102,-0.304,-0.084,-1.71,-0.35,-0.637,21.33,95.1,40.505859,-3.358086,602.5,3,5,274.6,0.352
21.94,1,-0.082,-0.314,-0.08,-0.099,-0.306,-0.077,-1.711,-0.351,-0.637,21.33,95.1,40.505859,-3.358086,602.5,3,5,274.6,0.352
22.03,1,-0.07,-0.307,-0.083,-0.08,-0.305,-0.073,-1.711,-0.351,-0.638,21.33,95.1,40.505859,-3.358086,602.5,3,5,274.6,0.352
22.13,1,-0.076,-0.316,-0.088,-0.078,-0.308,-0.085,-1.711,-0.351,-0.639,21.33,95.1,40.505859,-3.358086,602.5,3,5,274.6,0.352
22.23,1,-0.105,-0.322,-0.067,-0.086,-0.318,-0.079,-1.711,-0.351,-0.639,21.33,95.1,40.505859,-3.358086,602.5,3,5,274.6,0.352
22.34,1,-0.089,-0.341,-0.074,-0.087,-0.327,-0.076,-1.712,-0.351,-0.638,22.32,97.7,40.505878,-3.358409,602.3,3,5,274.6,0.352
22.44,1,-0.131,-0.349,-0.115,-0.11,-0.34,-0.091,-1.712,-0.352,-0.638,22.32,97.7,40.505878,-3.358409,602.3,3,5,274.6,0.352
22.54,1,-0.122,-0.335,-0.066,-0.12,-0.34,-0.085,-1.713,-0.352,-0.637,22.32,97.7,40.505878,-3.358409,602.3,3,5,274.6,0.352
22.64,1,-0.091,-0.355,-0.079,-0.109,-0.346,-0.077,-1.707,-0.35,-0.636,22.32,97.7,40.505878,-3.358409,602.3,3,5,274.6,0.352
22.74,1,-0.07,-0.357,-0.062,-0.088,-0.351,-0.074,-1.699,-0.347,-0.633,22.32,97.7,40.505878,-3.358409,602.3,3,5,274.6,0.352
22.84,1,-0.058,-0.384,-0.071,-0.072,-0.365,-0.069,-1.693,-0.343,-0.63,22.32,97.7,40.505878,-3.358409,602.3,3,5,274.6,0.352
22.94,1,-0.065,-0.386,-0.086,-0.062,-0.381,-0.079,-1.689,-0.341,-0.625,22.32,97.7,40.505878,-3.358409,602.3,3,5,274.6,0.352
23.04,1,-0.082,-0.418,-0.076,-0.074,-0.399,-0.079,-1.684,-0.344,-0.616,22.32,97.7,40.505878,-3.358409,602.3,3,5,274.6,0.352
23.14,1,-0.092,-0.355,-0.07,-0.088,-0.385,-0.075,-1.684,-0.346,-0.615,22.32,97.7,40.505878,-3.358409,602.3,3,5,274.6,0.352
23.24,1,-0.08,-0.357,-0.079,-0.095,-0.362,-0.071,-1.688,-0.346,-0.619,22.32,97.7,40.505878,-3.358409,602.3,3,5,274.6,0.352
23.34,1,-0.105,-0.432,-0.095,-0.082,-0.387,-0.083,-1.697,-0.343,-0.623,23.4,100.6,40.505898,-3.358739,602.3,3,5,274.6,0.0
23.44,1,-0.101,-0.411,-0.071,-0.095,-0.413,-0.085,-1.704,-0.345,-0.619,23.4,100.6,40.505898,-3.358739,602.3,3,5,274.6,0.0
23.54,1,-0.09,-0.389,-0.08,-0.101,-0.398,-0.078,-1.705,-0.346,-0.619,23.4,100.6,40.505898,-3.358739,602.3,3,5,274.6,0.0
23.64,1,-0.065,-0.385,-0.065,-0.085,-0.392,-0.066,-1.702,-0.346,-0.618,23.4,100.6,40.505898,-3.358739,602.3,3,5,274.6,0.0
23.74,1,-0.073,-0.405,-0.079,-0.068,-0.395,-0.076,-1.7,-0.346,-0.614,23.4,100.6,40.505898,-3.358739,602.3,3,5,274.6,0.0
23.84,1,-0.069,-0.43,-0.071,-0.069,-0.414,-0.073,-1.699,-0.345,-0.61,23.4,100.6,40.505898,-3.358739,602.3,3,5,274.6,0.0
23.94,1,-0.061,-0.421,-0.072,-0.066,-0.421,-0.073,-1.697,-0.346,-0.609,23.4,100.6,40.505898,-3.358739,602.3,3,5,274.6,0.0
24.04,1,-0.079,-0.418,-0.071,-0.069,-0.417,-0.071,-1.695,-0.347,-0.607,23.4,100.6,40.505898,-3.358739,602.3,3,5,274.6,0.0
24.14,1,-0.086,-0.414,-0.073,-0.079,-0.421,-0.077,-1.695,-0.346,-0.607,23.4,100.6,40.505898,-3.358739,602.3,3,5,274.6,0.0
24.24,1,-0.103,-0.405,-0.072,-0.089,-0.41,-0.071,-1.695,-0.346,-0.605,23.4,100.6,40.505898,-3.358739,602.3,3,5,274.6,0.0
24.34,1,-0.095,-0.407,-0.069,-0.096,-0.408,-0.069,-1.694,-0.346,-0.604,24.34,103.4,40.50592,-3.359078,602.6,3,5,274.6,0.0
24.44,1,-0.123,-0.419,-0.08,-0.108,-0.414,-0.078,-1.694,-0.347,-0.594,24.34,103.4,40.50592,-3.359078,602.6,3,5,274.6,0.0
24.54,1,-0.103,-0.431,-0.069,-0.112,-0.42,-0.072,-1.697,-0.346,-0.587,24.34,103.4,40.50592,-3.359078,602.6,3,5,274.6,0.0
24.64,1,-0.122,-0.432,-0.081,-0.108,-0.427,-0.076,-1.697,-0.349,-0.583,24.34,103.4,40.50592,-3.359078,602.6,3,5,274.6,0.0
24.74,1,-0.09,-0.435,-0.043,-0.106,-0.436,-0.06,-1.697,-0.349,-0.579,24.34,103.4,40.50592,-3.359078,602.6,3,5,274.6,0.0
24.84,1,-0.052,-0.424,-0.072,-0.083,-0.425,-0.063,-1.696,-0.348,-0.576,24.34,103.4,40.50592,-3.359078,602.6,3,5,274.6,0.0
24.94,1,-0.042,-0.433,-0.049,-0.059,-0.431,-0.06,-1.693,-0.347,-0.571,24.34,103.4,40.50592,-3.359078,602.6,3,5,274.6,0.0
25.05,1,-0.052,-0.429,-0.052,-0.052,-0.427,-0.055,-1.688,-0.346,-0.568,24.34,103.4,40.50592,-3.359078,602.6,3,5,274.6,0.0
25.14,1,-0.017,-0.463,-0.051,-0.037,-0.441,-0.049,-1.678,-0.346,-0.565,24.34,103.4,40.50592,-3.359078,602.6,3,5,274.6,0.0
25.24,1,-0.052,-0.466,-0.068,-0.036,-0.461,-0.06,-1.669,-0.349,-0.565,24.34,103.4,40.50592,-3.359078,602.6,3,5,274.6,0.0
25.34,1,-0.12,-0.427,-0.071,-0.072,-0.448,-0.066,-1.67,-0.351,-0.564,25.31,104.1,40.505936,-3.35942,602.4,3,5,273.5,1.055
25.44,1,-0.127,-0.398,-0.074,-0.111,-0.42,-0.064,-1.673,-0.349,-0.562,25.31,104.1,40.505936,-3.35942,602.4,3,5,273.5,1.055
25.54,1,-0.12,-0.447,-0.146,-0.114,-0.427,-0.101,-1.678,-0.345,-0.554,25.31,104.1,40.505936,-3.35942,602.4,3,5,273.5,1.055
25.64,1,-0.092,-0.431,-0.187,-0.11,-0.432,-0.153,-1.677,-0.342,-0.548,25.31,104.1,40.505936,-3.35942,602.4,3,5,273.5,1.055
25.74,1,-0.093,-0.451,-0.183,-0.096,-0.44,-0.168,-1.674,-0.342,-0.541,25.31,104.1,40.505936,-3.35942,602.4,3,5,273.5,1.055
25.84,1,-0.071,-0.434,-0.15,-0.09,-0.443,-0.167,-1.672,-0.343,-0.537,25.31,104.1,40.505936,-3.35942,602.4,3,5,273.5,1.055
25.94,1,-0.078,-0.425,-0.15,-0.076,-0.431,-0.154,-1.67,-0.343,-0.536,25.31,104.1,40.505936,-3.35942,602.4,3,5,273.5,1.055
26.04,1,-0.078,-0.41,-0.166,-0.075,-0.425,-0.162,-1.668,-0.343,-0.536,25.31,104.1,40.505936,-3.35942,602.4,3,5,273.5,1.055
26.14,1,-0.07,-0.406,-0.158,-0.073,-0.41,-0.159,-1.668,-0.341,-0.537,25.31,104.1,40.505936,-3.35942,602.4,3,5,273.5,1.055
26.24,1,-0.066,-0.418,-0.129,-0.071,-0.412,-0.153,-1.666,-0.34,-0.537,25.31,104.1,40.505936,-3.35942,602.4,3,5,273.5,1.055
26.35,1,-0.085,-0.406,-0.095,-0.077,-0.411,-0.113,-1.667,-0.341,-0.535,26.33,108.3,40.505947,-3.359779,602.5,3,5,272.5,2.109
26.44,1,-0.078,-0.376,-0.09,-0.079,-0.399,-0.102,-1.669,-0.34,-0.534,26.33,108.3,40.505947,-3.359779,602.5,3,5,272.5,2.109
26.54,1,-0.109,-0.377,-0.092,-0.091,-0.378,-0.096,-1.672,-0.337,-0.531,26.33,108.3,40.505947,-3.359779,602.5,3,5,272.5,2.109
26.64,1,-0.066,-0.365,-0.089,-0.097,-0.384,-0.089,-1.669,-0.338,-0.53,26.33,108.3,40.505947,-3.359779,602.5,3,5,272.5,2.109
26.74,1,-0.054,-0.397,-0.096,-0.065,-0.381,-0.097,-1.666,-0.341,-0.524,26.33,108.3,40.505947,-3.359779,602.5,3,5,272.5,2.109
26.84,1,-0.05,-0.406,-0.085,-0.047,-0.391,-0.09,-1.662,-0.344,-0.52,26.33,108.3,40.505947,-3.359779,602.5,3,5,272.5,2.109
26.95,1,-0.063,-0.363,-0.042,-0.058,-0.386,-0.071,-1.664,-0.344,-0.523,26.33,108.3,40.505947,-3.359779,602.5,3,5,272.5,2.109
27.05,1,-0.127,-0.402,-0.098,-0.087,-0.383,-0.071,-1.667,-0.343,-0.524,26.33,108.3,40.505947,-3.359779,602.5,3,5,272.5,2.109
27.14,1,-0.14,-0.401,-0.044,-0.128,-0.393,-0.074,-1.669,-0.342,-0.518,26.33,108.3,40.505947,-3.359779,602.5,3,5,272.5,2.109
27.25,1,-0.006,-0.458,-0.028,-0.082,-0.423,-0.042,-1.668,-0.34,-0.512,26.33,108.3,40.505947,-3.359779,602.5,3,5,272.5,2.109
27.35,1,0.016,-0.461,-0.082,-0.01,-0.451,-0.057,-1.661,-0.343,-0.511,27.31,109.4,40.505939,-3.360145,603.3,3,5,269.6,3.867
27.45,1,-0.115,-0.453,-0.072,-0.044,-0.449,-0.069,-1.669,-0.344,-0.504,27.31,109.4,40.505939,-3.360145,603.3,3,5,269.6,3.867
27.55,1,-0.204,-0.399,-0.039,-0.129,-0.432,-0.059,-1.675,-0.35,-0.496,27.31,109.4,40.505939,-3.360145,603.3,3,5,269.6,3.867
27.65,1,-0.276,-0.437,-0.046,-0.213,-0.427,-0.051,-1.681,-0.351,-0.491,27.31,109.4,40.505939,-3.360145,603.3,3,5,269.6,3.867
27.75,1,-0.096,-0.441,-0.022,-0.189,-0.435,-0.038,-1.682,-0.352,-0.488,27.31,109.4,40.505939,-3.360145,603.3,3,5,269.6,3.867
27.85,1,0.006,-0.47,-0.04,-0.079,-0.451,-0.028,-1.675,-0.353,-0.484,27.31,109.4,40.505939,-3.360145,603.3,3,5,269.6,3.867
27.95,1,-0.0,-0.449,-0.046,-0.02,-0.455,-0.043,-1.675,-0.353,-0.479,27.31,109.4,40.505939,-3.360145,603.3,3,5,269.6,3.867
28.06,1,-0.101,-0.464,-0.05,-0.054,-0.458,-0.045,-1.675,-0.352,-0.475,27.31,109.4,40.505939,-3.360145,603.3,3,5,269.6,3.867
28.15,1,-0.102,-0.481,0.001,-0.087,-0.467,-0.023,-1.674,-0.351,-0.471,27.31,109.4,40.505939,-3.360145,603.3,3,5,269.6,3.867
28.25,1,-0.081,-0.486,-0.03,-0.087,-0.478,-0.028,-1.671,-0.352,-0.467,27.31,109.4,40.505939,-3.360145,603.3,3,5,269.6,3.867
28.35,1,-0.078,-0.51,-0.037,-0.081,-0.491,-0.031,-1.668,-0.355,-0.463,28.33,109.7,40.505928,-3.360507,603.0,3,5,268.6,3.867
28.45,1,-0.067,-0.473,-0.054,-0.078,-0.491,-0.044,-1.665,-0.358,-0.459,28.33,109.7,40.505928,-3.360507,603.0,3,5,268.6,3.867
28.55,1,-0.021,-0.467,-0.033,-0.05,-0.479,-0.036,-1.664,-0.36,-0.455,28.33,109.7,40.505928,-3.360507,603.0,3,5,268.6,3.867
28.65,1,-0.034,-0.522,-0.019,-0.033,-0.484,-0.039,-1.661,-0.361,-0.45,28.33,109.7,40.505928,-3.360507,603.0,3,5,268.6,3.867
28.75,1,0.012,-0.485,-0.051,-0.018,-0.493,-0.032,-1.657,-0.362,-0.445,28.33,109.7,40.505928,-3.360507,603.0,3,5,268.6,3.867
28.85,1,0.01,-0.475,-0.038,0.003,-0.487,-0.031,-1.655,-0.363,-0.441,28.33,109.7,40.505928,-3.360507,603.0,3,5,268.6,3.867
28.95,1,-0.163,-0.476,-0.045,-0.058,-0.484,-0.044,-1.654,-0.366,-0.437,28.33,109.7,40.505928,-3.360507,603.0,3,5,268.6,3.867
29.05,1,-0.229,-0.456,-0.048,-0.156,-0.473,-0.051,-1.653,-0.371,-0.434,28.33,109.7,40.505928,-3.360507,603.0,3,5,268.6,3.867
29.15,1,-0.083,-0.452,-0.054,-0.145,-0.457,-0.051,-1.652,-0.373,-0.431,28.33,109.7,40.505928,-3.360507,603.0,3,5,268.6,3.867
29.25,1,-0.066,-0.438,-0.033,-0.097,-0.451,-0.034,-1.651,-0.373,-0.426,28.33,109.7,40.505928,-3.360507,603.0,3,5,268.6,3.867
29.35,1,-0.085,-0.454,-0.048,-0.088,-0.444,-0.045,-1.649,-0.372,-0.423,29.31,111.5,40.505909,-3.360877,603.4,3,5,266.8,2.812
29.45,1,-0.001,-0.463,-0.001,-0.044,-0.459,-0.035,-1.649,-0.373,-0.42,29.31,111.5,40.505909,-3.360877,603.4,3,5,266.8,2.812
29.55,1,-0.075,-0.433,-0.022,-0.049,-0.451,-0.013,-1.649,-0.375,-0.417,29.31,111.5,40.505909,-3.360877,603.4,3,5,266.8,2.812
29.65,1,-0.119,-0.42,-0.018,-0.089,-0.431,-0.021,-1.647,-0.377,-0.415,29.31,111.5,40.505909,-3.360877,603.4,3,5,266.8,2.812
29.75,1,-0.111,-0.421,-0.031,-0.102,-0.425,-0.03,-1.646,-0.377,-0.412,29.31,111.5,40.505909,-3.360877,603.4,3,5,266.8,2.812
29.85,1,-0.061,-0.437,-0.034,-0.089,-0.429,-0.023,-1.645,-0.377,-0.409,29.31,111.5,40.505909,-3.360877,603.4,3,5,266.8,2.812
29.97,1,-0.069,-0.44,0.018,-0.074,-0.433,-0.013,-1.645,-0.377,-0.406,29.31,111.5,40.505909,-3.360877,603.4,3,5,266.8,2.812
30.05,1,-0.089,-0.413,-0.02,-0.081,-0.426,-0.008,-1.644,-0.378,-0.403,29.31,111.5,40.505909,-3.360877,603.4,3,5,266.8,2.812
30.16,1,-0.075,-0.423,-0.011,-0.074,-0.425,-0.011,-1.643,-0.379,-0.401,29.31,111.5,40.505909,-3.360877,603.4,3,5,266.8,2.812
30.25,1,-0.08,-0.424,-0.005,-0.08,-0.419,-0.015,-1.642,-0.379,-0.398,29.31,111.5,40.505909,-3.360877,603.4,3,5,266.8,2.812
30.35,1,-0.071,-0.418,0.002,-0.078,-0.424,0.002,-1.641,-0.38,-0.396,30.4,113.2,40.505875,-3.361247,603.9,3,5,264.4,4.219
30.46,1,-0.126,-0.423,-0.019,-0.092,-0.424,-0.009,-1.639,-0.381,-0.393,30.4,113.2,40.505875,-3.361247,603.9,3,5,264.4,4.219
30.55,1,-0.073,-0.438,-0.022,-0.1,-0.43,-0.017,-1.638,-0.381,-0.39,30.4,113.2,40.505875,-3.361247,603.9,3,5,264.4,4.219
30.65,1,-0.073,-0.439,-0.037,-0.077,-0.436,-0.016,-1.637,-0.382,-0.388,30.4,113.2,40.505875,-3.361247,603.9,3,5,264.4,4.219
30.76,1,-0.114,-0.441,-0.001,-0.094,-0.436,-0.026,-1.636,-0.383,-0.385,30.4,113.2,40.505875,-3.361247,603.9,3,5,264.4,4.219
30.85,1,-0.1,-0.429,-0.032,-0.099,-0.434,-0.019,-1.636,-0.384,-0.383,30.4,113.2,40.505875,-3.361247,603.9,3,5,264.4,4.219
30.95,1,-0.074,-0.427,-0.025,-0.092,-0.428,-0.027,-1.634,-0.384,-0.38,30.4,113.2,40.505875,-3.361247,603.9,3,5,264.4,4.219
31.06,1,-0.096,-0.455,-0.005,-0.087,-0.442,-0.009,-1.633,-0.384,-0.376,30.4,113.2,40.505875,-3.361247,603.9,3,5,264.4,4.219
31.15,1,-0.088,-0.452,-0.035,-0.094,-0.446,-0.025,-1.632,-0.384,-0.374,30.4,113.2,40.505875,-3.361247,603.9,3,5,264.4,4.219
31.25,1,-0.055,-0.424,-0.022,-0.068,-0.443,-0.022,-1.631,-0.385,-0.371,30.4,113.2,40.505875,-3.361247,603.9,3,5,264.4,4.219
31.38,1,-0.097,-0.424,-0.023,-0.074,-0.429,-0.025,-1.629,-0.387,-0.369,31.32,114.9,40.505836,-3.361619,604.6,3,5,262.3,4.57
31.46,1,-0.093,-0.421,-0.02,-0.096,-0.425,-0.021,-1.628,-0.388,-0.367,31.32,114.9,40.505836,-3.361619,604.6,3,5,262.3,4.57
31.55,1,-0.108,-0.427,-0.007,-0.099,-0.422,-0.019,-1.627,-0.388,-0.365,31.32,114.9,40.505836,-3.361619,604.6,3,5,262.3,4.57
31.66,1,-0.085,-0.419,-0.048,-0.095,-0.421,-0.022,-1.625,-0.389,-0.363,31.32,114.9,40.505836,-3.361619,604.6,3,5,262.3,4.57
31.75,1,-0.126,-0.422,-0.077,-0.104,-0.418,-0.054,-1.625,-0.391,-0.361,31.32,114.9,40.505836,-3.361619,604.6,3,5,262.3,4.57
31.86,1,-0.05,-0.426,-0.026,-0.089,-0.418,-0.053,-1.624,-0.391,-0.359,31.32,114.9,40.505836,-3.361619,604.6,3,5,262.3,4.57
31.96,1,-0.087,-0.406,-0.038,-0.068,-0.423,-0.031,-1.622,-0.391,-0.355,31.32,114.9,40.505836,-3.361619,604.6,3,5,262.3,4.57
32.06,1,-0.069,-0.452,-0.055,-0.082,-0.435,-0.05,-1.621,-0.39,-0.352,31.32,114.9,40.505836,-3.361619,604.6,3,5,262.3,4.57
32.16,1,-0.059,-0.442,-0.063,-0.073,-0.439,-0.05,-1.619,-0.39,-0.349,31.32,114.9,40.505836,-3.361619,604.6,3,5,262.3,4.57
32.26,1,-0.085,-0.422,-0.113,-0.073,-0.429,-0.082,-1.616,-0.391,-0.346,31.32,114.9,40.505836,-3.361619,604.6,3,5,262.3,4.57
32.36,1,-0.05,-0.447,-0.093,-0.068,-0.44,-0.097,-1.614,-0.392,-0.344,32.36,116.8,40.505787,-3.361996,604.8,3,5,260.5,3.867
32.47,1,-0.07,-0.436,-0.075,-0.066,-0.441,-0.084,-1.614,-0.392,-0.342,32.36,116.8,40.505787,-3.361996,604.8,3,5,260.5,3.867
32.56,1,-0.106,-0.432,-0.076,-0.08,-0.435,-0.08,-1.612,-0.392,-0.339,32.36,116.8,40.505787,-3.361996,604.8,3,5,260.5,3.867
32.66,1,-0.084,-0.421,-0.084,-0.099,-0.427,-0.085,-1.611,-0.392,-0.338,32.36,116.8,40.505787,-3.361996,604.8,3,5,260.5,3.867
32.76,1,-0.023,-0.401,-0.044,-0.063,-0.415,-0.064,-1.611,-0.391,-0.336,32.36,116.8,40.505787,-3.361996,604.8,3,5,260.5,3.867
32.86,1,-0.135,-0.466,-0.026,-0.071,-0.433,-0.044,-1.611,-0.39,-0.334,32.36,116.8,40.505787,-3.361996,604.8,3,5,260.5,3.867
32.96,1,-0.095,-0.402,-0.076,-0.1,-0.43,-0.048,-1.611,-0.391,-0.333,32.36,116.8,40.505787,-3.361996,604.8,3,5,260.5,3.867
33.06,1,-0.074,-0.43,-0.017,-0.083,-0.415,-0.053,-1.611,-0.389,-0.331,32.36,116.8,40.505787,-3.361996,604.8,3,5,260.5,3.867
33.16,1,-0.088,-0.444,-0.038,-0.086,-0.433,-0.025,-1.609,-0.387,-0.329,32.36,116.8,40.505787,-3.361996,604.8,3,5,260.5,3.867
33.26,1,-0.083,-0.429,-0.065,-0.086,-0.441,-0.052,-1.607,-0.387,-0.327,32.36,116.8,40.505787,-3.361996,604.8,3,5,260.5,3.867
33.36,1,-0.05,-0.433,-0.027,-0.074,-0.434,-0.04,-1.607,-0.388,-0.325,33.32,118.1,40.50573,-3.362378,605.2,3,5,258.8,3.516
33.46,1,-0.046,-0.396,-0.04,-0.053,-0.416,-0.039,-1.606,-0.389,-0.323,33.32,118.1,40.50573,-3.362378,605.2,3,5,258.8,3.516
33.56,1,-0.105,-0.423,-0.039,-0.075,-0.415,-0.039,-1.605,-0.39,-0.321,33.32,118.1,40.50573,-3.362378,605.2,3,5,258.8,3.516
33.66,1,-0.072,-0.398,-0.037,-0.081,-0.403,-0.04,-1.604,-0.389,-0.319,33.32,118.1,40.50573,-3.362378,605.2,3,5,258.8,3.516
33.76,1,-0.113,-0.454,-0.043,-0.09,-0.427,-0.035,-1.602,-0.386,-0.316,33.32,118.1,40.50573,-3.362378,605.2,3,5,258.8,3.516
33.86,1,-0.067,-0.47,-0.044,-0.093,-0.453,-0.046,-1.6,-0.383,-0.312,33.32,118.1,40.50573,-3.362378,605.2,3,5,258.8,3.516
33.96,1,-0.048,-0.502,-0.04,-0.064,-0.475,-0.045,-1.599,-0.381,-0.308,33.32,118.1,40.50573,-3.362378,605.2,3,5,258.8,3.516
34.06,1,-0.067,-0.52,-0.025,-0.058,-0.499,-0.033,-1.597,-0.38,-0.303,33.32,118.1,40.50573,-3.362378,605.2,3,5,258.8,3.516
34.16,1,-0.041,-0.525,0.009,-0.057,-0.509,-0.02,-1.596,-0.379,-0.299,33.32,118.1,40.50573,-3.362378,605.2,3,5,258.8,3.516
34.26,1,-0.048,-0.52,0.02,-0.049,-0.523,0.008,-1.594,-0.381,-0.295,33.32,118.1,40.50573,-3.362378,605.2,3,5,258.8,3.516
34.37,1,-0.135,-0.483,-0.001,-0.082,-0.505,0.005,-1.593,-0.382,-0.291,34.33,117.6,40.505665,-3.362752,605.5,3,5,257.0,3.516
34.46,1,-0.084,-0.52,0.028,-0.095,-0.508,0.015,-1.592,-0.381,-0.286,34.33,117.6,40.505665,-3.362752,605.5,3,5,257.0,3.516
34.56,1,-0.068,-0.534,0.042,-0.076,-0.526,0.029,-1.59,-0.378,-0.28,34.33,117.6,40.505665,-3.362752,605.5,3,5,257.0,3.516
34.66,1,-0.056,-0.601,0.056,-0.064,-0.557,0.046,-1.588,-0.375,-0.274,34.33,117.6,40.505665,-3.362752,605.5,3,5,257.0,3.516
34.76,1,-0.036,-0.528,0.037,-0.061,-0.556,0.04,-1.586,-0.375,-0.269,34.33,117.6,40.505665,-3.362752,605.5,3,5,257.0,3.516
34.94,1,-0.065,-0.55,0.046,-0.053,-0.542,0.038,-1.583,-0.376,-0.263,34.33,117.6,40.505665,-3.362752,605.5,3,5,257.0,3.516
34.96,1,-0.11,-0.583,0.102,-0.084,-0.564,0.075,-1.581,-0.377,-0.257,34.33,117.6,40.505665,-3.362752,605.5,3,5,257.0,3.516
35.06,1,-0.082,-0.509,0.004,-0.082,-0.545,0.051,-1.58,-0.377,-0.255,34.33,117.6,40.505665,-3.362752,605.5,3,5,257.0,3.516
35.17,1,-0.107,-0.488,0.07,-0.092,-0.511,0.045,-1.578,-0.379,-0.251,34.33,117.6,40.505665,-3.362752,605.5,3,5,257.0,3.516
35.26,1,-0.086,-0.493,0.032,-0.093,-0.501,0.044,-1.576,-0.38,-0.248,34.33,117.6,40.505665,-3.362752,605.5,3,5,257.0,3.516
35.36,1,-0.001,-0.467,0.028,-0.062,-0.482,0.034,-1.574,-0.381,-0.245,35.33,117.6,40.505592,-3.363129,609.2,3,5,255.2,3.516
35.46,1,-0.033,-0.472,0.07,-0.028,-0.472,0.053,-1.573,-0.382,-0.242,35.33,117.6,40.505592,-3.363129,609.2,3,5,255.2,3.516
35.57,1,-0.108,-0.457,0.041,-0.066,-0.47,0.049,-1.572,-0.384,-0.24,35.33,117.6,40.505592,-3.363129,609.2,3,5,255.2,3.516
35.67,1,-0.103,-0.415,0.007,-0.088,-0.444,0.029,-1.571,-0.386,-0.238,35.33,117.6,40.505592,-3.363129,609.2,3,5,255.2,3.516
35.76,1,-0.106,-0.413,0.052,-0.097,-0.422,0.029,-1.571,-0.387,-0.237,35.33,117.6,40.505592,-3.363129,609.2,3,5,255.2,3.516
35.87,1,-0.086,-0.417,0.078,-0.108,-0.422,0.055,-1.57,-0.388,-0.235,35.33,117.6,40.505592,-3.363129,609.2,3,5,255.2,3.516
35.96,1,-0.045,-0.376,0.018,-0.071,-0.404,0.052,-1.569,-0.388,-0.234,35.33,117.6,40.505592,-3.363129,609.2,3,5,255.2,3.516
36.06,1,-0.123,-0.4,0.05,-0.079,-0.392,0.042,-1.569,-0.387,-0.233,35.33,117.6,40.505592,-3.363129,609.2,3,5,255.2,3.516
36.17,1,-0.09,-0.415,0.069,-0.091,-0.406,0.047,-1.568,-0.387,-0.232,35.33,117.6,40.505592,-3.363129,609.2,3,5,255.2,3.516
36.27,1,-0.025,-0.399,0.056,-0.067,-0.402,0.061,-1.568,-0.388,-0.232,35.33,117.6,40.505592,-3.363129,609.2,3,5,255.2,3.516
36.37,1,-0.079,-0.374,0.064,-0.066,-0.394,0.06,-1.567,-0.389,-0.231,36.34,119.3,40.505497,-3.363499,607.2,3,5,252.1,4.922
36.47,1,-0.102,-0.381,0.032,-0.077,-0.38,0.049,-1.566,-0.39,-0.231,36.34,119.3,40.505497,-3.363499,607.2,3,5,252.1,4.922
36.57,1,-0.085,-0.394,0.046,-0.091,-0.384,0.045,-1.566,-0.39,-0.23,36.34,119.3,40.505497,-3.363499,607.2,3,5,252.1,4.922
36.67,1,-0.07,-0.388,0.048,-0.075,-0.387,0.045,-1.565,-0.388,-0.229,36.34,119.3,40.505497,-3.363499,607.2,3,5,252.1,4.922
36.77,1,-0.114,-0.459,0.05,-0.102,-0.42,0.046,-1.565,-0.385,-0.227,36.34,119.3,40.505497,-3.363499,607.2,3,5,252.1,4.922
36.88,1,-0.086,-0.43,0.052,-0.087,-0.435,0.056,-1.564,-0.385,-0.227,36.34,119.3,40.505497,-3.363499,607.2,3,5,252.1,4.922
36.97,1,-0.074,-0.36,0.033,-0.086,-0.403,0.039,-1.564,-0.385,-0.226,36.34,119.3,40.505497,-3.363499,607.2,3,5,252.1,4.922
37.07,1,-0.093,-0.374,0.025,-0.084,-0.379,0.032,-1.564,-0.383,-0.225,36.34,119.3,40.505497,-3.363499,607.2,3,5,252.1,4.922
37.17,1,-0.09,-0.42,0.064,-0.099,-0.395,0.045,-1.564,-0.381,-0.224,36.34,119.3,40.505497,-3.363499,607.2,3,5,252.1,4.922
37.27,1,-0.081,-0.406,0.074,-0.08,-0.407,0.062,-1.563,-0.381,-0.223,36.34,119.3,40.505497,-3.363499,607.2,3,5,252.1,4.922
37.37,1,-0.124,-0.399,0.041,-0.095,-0.404,0.054,-1.563,-0.381,-0.222,37.3,121.2,40.50539,-3.363869,608.1,3,5,249.6,5.625
37.47,1,-0.109,-0.393,0.032,-0.119,-0.401,0.04,-1.563,-0.38,-0.222,37.3,121.2,40.50539,-3.363869,608.1,3,5,249.6,5.625
37.57,1,-0.002,-0.417,0.049,-0.065,-0.403,0.05,-1.562,-0.38,-0.221,37.3,121.2,40.50539,-3.363869,608.1,3,5,249.6,5.625
37.67,1,-0.086,-0.404,0.059,-0.053,-0.406,0.051,-1.562,-0.379,-0.22,37.3,121.2,40.50539,-3.363869,608.1,3,5,249.6,5.625
37.77,1,-0.144,-0.4,0.052,-0.104,-0.402,0.051,-1.562,-0.378,-0.219,37.3,121.2,40.50539,-3.363869,608.1,3,5,249.6,5.625
37.87,1,-0.094,-0.425,0.056,-0.11,-0.413,0.06,-1.561,-0.376,-0.217,37.3,121.2,40.50539,-3.363869,608.1,3,5,249.6,5.625
37.97,1,-0.051,-0.42,0.042,-0.078,-0.412,0.045,-1.559,-0.375,-0.216,37.3,121.2,40.50539,-3.363869,608.1,3,5,249.6,5.625
38.07,1,-0.076,-0.417,0.035,-0.073,-0.416,0.039,-1.558,-0.375,-0.214,37.3,121.2,40.50539,-3.363869,608.1,3,5,249.6,5.625
38.17,1,-0.075,-0.395,0.042,-0.077,-0.413,0.043,-1.557,-0.375,-0.213,37.3,121.2,40.50539,-3.363869,608.1,3,5,249.6,5.625
38.27,1,-0.051,-0.409,0.059,-0.06,-0.406,0.049,-1.558,-0.375,-0.212,37.3,121.2,40.50539,-3.363869,608.1,3,5,249.6,5.625
38.37,1,-0.144,-0.423,0.025,-0.096,-0.415,0.044,-1.557,-0.375,-0.21,38.31,123.3,40.505276,-3.36425,608.0,3,5,248.2,3.867
38.47,1,-0.012,-0.425,0.08,-0.077,-0.418,0.057,-1.556,-0.375,-0.209,38.31,123.3,40.505276,-3.36425,608.0,3,5,248.2,3.867
38.57,1,-0.015,-0.398,0.068,-0.028,-0.415,0.061,-1.556,-0.375,-0.208,38.31,123.3,40.505276,-3.36425,608.0,3,5,248.2,3.867
38.67,1,-0.126,-0.392,0.029,-0.067,-0.394,0.051,-1.556,-0.373,-0.207,38.31,123.3,40.505276,-3.36425,608.0,3,5,248.2,3.867
38.77,1,-0.066,-0.419,0.055,-0.087,-0.406,0.047,-1.555,-0.371,-0.206,38.31,123.3,40.505276,-3.36425,608.0,3,5,248.2,3.867
38.87,1,-0.029,-0.438,0.069,-0.06,-0.424,0.055,-1.555,-0.37,-0.205,38.31,123.3,40.505276,-3.36425,608.0,3,5,248.2,3.867
38.97,1,-0.048,-0.42,0.07,-0.043,-0.428,0.065,-1.554,-0.371,-0.204,38.31,123.3,40.505276,-3.36425,608.0,3,5,248.2,3.867
39.07,1,-0.066,-0.441,0.061,-0.051,-0.431,0.066,-1.553,-0.372,-0.203,38.31,123.3,40.505276,-3.36425,608.0,3,5,248.2,3.867
39.17,1,-0.08,-0.411,0.07,-0.066,-0.421,0.067,-1.552,-0.372,-0.202,38.31,123.3,40.505276,-3.36425,608.0,3,5,248.2,3.867
39.27,1,-0.079,-0.379,0.072,-0.072,-0.402,0.065,-1.552,-0.371,-0.201,38.31,123.3,40.505276,-3.36425,608.0,3,5,248.2,3.867
39.37,1,-0.117,-0.433,0.038,-0.097,-0.408,0.061,-1.552,-0.369,-0.199,39.33,125.4,40.505146,-3.364626,608.4,3,5,246.8,2.812
39.47,1,-0.063,-0.438,0.079,-0.093,-0.428,0.068,-1.551,-0.368,-0.198,39.33,125.4,40.505146,-3.364626,608.4,3,5,246.8,2.812
39.58,1,-0.069,-0.419,0.075,-0.067,-0.429,0.065,-1.55,-0.37,-0.197,39.33,125.4,40.505146,-3.364626,608.4,3,5,246.8,2.812
39.67,1,-0.062,-0.395,0.042,-0.069,-0.414,0.054,-1.551,-0.371,-0.197,39.33,125.4,40.505146,-3.364626,608.4,3,5,246.8,2.812
39.77,1,-0.049,-0.386,0.073,-0.054,-0.396,0.063,-1.55,-0.371,-0.196,39.33,125.4,40.505146,-3.364626,608.4,3,5,246.8,2.812
39.88,1,-0.088,-0.408,0.022,-0.063,-0.397,0.049,-1.549,-0.37,-0.195,39.33,125.4,40.505146,-3.364626,608.4,3,5,246.8,2.812
39.98,1,-0.098,-0.386,0.055,-0.082,-0.396,0.054,-1.549,-0.368,-0.194,39.33,125.4,40.505146,-3.364626,608.4,3,5,246.8,2.812
40.07,1,-0.093,-0.429,0.079,-0.101,-0.408,0.055,-1.549,-0.365,-0.193,39.33,125.4,40.505146,-3.364626,608.4,3,5,246.8,2.812
40.17,1,-0.086,-0.426,0.067,-0.095,-0.424,0.064,-1.548,-0.364,-0.192,39.33,125.4,40.505146,-3.364626,608.4,3,5,246.8,2.812
40.28,1,-0.036,-0.423,0.038,-0.063,-0.424,0.057,-1.547,-0.365,-0.191,39.33,125.4,40.505146,-3.364626,608.4,3,5,246.8,2.812
40.37,1,-0.061,-0.411,0.061,-0.056,-0.412,0.054,-1.546,-0.364,-0.19,40.33,127.4,40.505009,-3.365006,608.5,3,5,245.0,3.164
40.47,1,-0.016,-0.454,0.046,-0.048,-0.431,0.047,-1.545,-0.363,-0.188,40.33,127.4,40.505009,-3.365006,608.5,3,5,245.0,3.164
40.57,1,0.025,-0.45,0.078,-0.012,-0.443,0.058,-1.545,-0.364,-0.187,40.33,127.4,40.505009,-3.365006,608.5,3,5,245.0,3.164
40.68,1,-0.092,-0.417,0.025,-0.031,-0.434,0.059,-1.543,-0.366,-0.185,40.33,127.4,40.505009,-3.365006,608.5,3,5,245.0,3.164
40.78,1,-0.136,-0.417,0.04,-0.093,-0.422,0.04,-1.543,-0.368,-0.184,40.33,127.4,40.505009,-3.365006,608.5,3,5,245.0,3.164
40.88,1,-0.082,-0.419,0.043,-0.091,-0.419,0.041,-1.543,-0.367,-0.182,40.33,127.4,40.505009,-3.365006,608.5,3,5,245.0,3.164
40.98,1,-0.058,-0.458,0.074,-0.072,-0.434,0.053,-1.543,-0.364,-0.18,40.33,127.4,40.505009,-3.365006,608.5,3,5,245.0,3.164
41.08,1,-0.128,-0.451,0.042,-0.093,-0.45,0.057,-1.542,-0.362,-0.178,40.33,127.4,40.505009,-3.365006,608.5,3,5,245.0,3.164
41.18,1,-0.033,-0.415,0.049,-0.081,-0.435,0.047,-1.542,-0.361,-0.175,40.33,127.4,40.505009,-3.365006,608.5,3,5,245.0,3.164
41.28,1,-0.033,-0.414,0.025,-0.047,-0.422,0.037,-1.541,-0.357,-0.174,40.33,127.4,40.505009,-3.365006,608.5,3,5,245.0,3.164
41.38,1,-0.09,-0.411,0.039,-0.06,-0.413,0.038,-1.541,-0.354,-0.172,41.34,129.4,40.504864,-3.365387,608.9,3,5,243.6,3.164
41.48,1,-0.054,-0.431,0.06,-0.067,-0.423,0.05,-1.54,-0.351,-0.17,41.34,129.4,40.504864,-3.365387,608.9,3,5,243.6,3.164
41.58,1,-0.098,-0.444,0.063,-0.077,-0.428,0.054,-1.539,-0.348,-0.169,41.34,129.4,40.504864,-3.365387,608.9,3,5,243.6,3.164
41.68,1,-0.049,-0.448,0.071,-0.071,-0.446,0.062,-1.539,-0.345,-0.167,41.34,129.4,40.504864,-3.365387,608.9,3,5,243.6,3.164
41.78,1,-0.067,-0.415,0.042,-0.067,-0.432,0.057,-1.538,-0.344,-0.166,41.34,129.4,40.504864,-3.365387,608.9,3,5,243.6,3.164
41.88,1,-0.075,-0.409,0.032,-0.077,-0.423,0.041,-1.537,-0.342,-0.164,41.34,129.4,40.504864,-3.365387,608.9,3,5,243.6,3.164
41.98,1,-0.036,-0.387,0.055,-0.05,-0.403,0.052,-1.537,-0.34,-0.164,41.34,129.4,40.504864,-3.365387,608.9,3,5,243.6,3.164
42.08,1,-0.005,-0.391,0.054,-0.03,-0.392,0.051,-1.537,-0.337,-0.163,41.34,129.4,40.504864,-3.365387,608.9,3,5,243.6,3.164
42.18,1,-0.089,-0.391,0.032,-0.047,-0.394,0.043,-1.537,-0.335,-0.163,41.34,129.4,40.504864,-3.365387,608.9,3,5,243.6,3.164
42.28,1,-0.056,-0.379,0.042,-0.068,-0.389,0.037,-1.537,-0.334,-0.163,41.34,129.4,40.504864,-3.365387,608.9,3,5,243.6,3.164
42.38,1,-0.045,-0.375,0.023,-0.047,-0.378,0.034,-1.536,-0.331,-0.163,42.31,131.3,40.504707,-3.365764,610.8,3,5,241.5,3.516
42.48,1,-0.115,-0.36,0.014,-0.077,-0.373,0.024,-1.536,-0.329,-0.163,42.31,131.3,40.504707,-3.365764,610.8,3,5,241.5,3.516
42.58,1,-0.017,-0.329,0.018,-0.064,-0.353,0.025,-1.535,-0.326,-0.164,42.31,131.3,40.504707,-3.365764,610.8,3,5,241.5,3.516
42.68,1,-0.019,-0.315,0.021,-0.026,-0.329,0.015,-1.536,-0.323,-0.166,42.31,131.3,40.504707,-3.365764,610.8,3,5,241.5,3.516
42.78,1,-0.065,-0.346,0.038,-0.049,-0.335,0.027,-1.536,-0.319,-0.167,42.31,131.3,40.504707,-3.365764,610.8,3,5,241.5,3.516
42.88,1,-0.043,-0.321,-0.003,-0.046,-0.33,0.016,-1.536,-0.318,-0.168,42.31,131.3,40.504707,-3.365764,610.8,3,5,241.5,3.516
42.98,1,-0.065,-0.34,0.021,-0.054,-0.332,0.016,-1.537,-0.317,-0.17,42.31,131.3,40.504707,-3.365764,610.8,3,5,241.5,3.516
43.08,1,-0.073,-0.314,0.031,-0.064,-0.324,0.023,-1.536,-0.314,-0.171,42.31,131.3,40.504707,-3.365764,610.8,3,5,241.5,3.516
43.18,1,-0.046,-0.343,-0.008,-0.058,-0.335,0.011,-1.535,-0.31,-0.172,42.31,131.3,40.504707,-3.365764,610.8,3,5,241.5,3.516
43.28,1,-0.017,-0.342,0.001,-0.047,-0.339,0.004,-1.536,-0.307,-0.174,42.31,131.3,40.504707,-3.365764,610.8,3,5,241.5,3.516
43.38,1,-0.018,-0.358,0.004,-0.019,-0.347,0.005,-1.536,-0.305,-0.176,43.36,132.9,40.504543,-3.366139,610.3,3,5,239.4,4.219
43.48,1,-0.053,-0.358,-0.009,-0.03,-0.354,-0.001,-1.536,-0.302,-0.177,43.36,132.9,40.504543,-3.366139,610.3,3,5,239.4,4.219
43.59,1,-0.081,-0.326,-0.024,-0.053,-0.34,-0.016,-1.536,-0.299,-0.178,43.36,132.9,40.504543,-3.366139,610.3,3,5,239.4,4.219
43.68,1,-0.108,-0.337,-0.024,-0.079,-0.34,-0.019,-1.536,-0.295,-0.179,43.36,132.9,40.504543,-3.366139,610.3,3,5,239.4,4.219
43.78,1,-0.045,-0.279,0.006,-0.075,-0.309,-0.014,-1.538,-0.292,-0.181,43.36,132.9,40.504543,-3.366139,610.3,3,5,239.4,4.219
43.89,1,-0.0,-0.308,-0.003,-0.042,-0.303,0.001,-1.538,-0.289,-0.183,43.36,132.9,40.504543,-3.366139,610.3,3,5,239.4,4.219
43.98,1,0.021,-0.296,-0.015,-0.013,-0.302,-0.013,-1.539,-0.288,-0.186,43.36,132.9,40.504543,-3.366139,610.3,3,5,239.4,4.219
44.08,1,-0.011,-0.304,0.015,-0.003,-0.303,0.004,-1.539,-0.287,-0.188,43.36,132.9,40.504543,-3.366139,610.3,3,5,239.4,4.219
44.18,1,-0.076,-0.308,-0.018,-0.028,-0.306,-0.001,-1.538,-0.287,-0.191,43.36,132.9,40.504543,-3.366139,610.3,3,5,239.4,4.219
44.28,1,-0.052,-0.254,-0.006,-0.051,-0.284,-0.011,-1.539,-0.285,-0.192,43.36,132.9,40.504543,-3.366139,610.3,3,5,239.4,4.219
44.38,1,-0.014,-0.311,0.037,-0.036,-0.29,0.011,-1.54,-0.282,-0.194,44.33,133.8,40.504364,-3.36651,608.2,3,5,238.4,3.164
44.49,1,-0.028,-0.319,0.012,-0.031,-0.308,0.018,-1.539,-0.279,-0.196,44.33,133.8,40.504364,-3.36651,608.2,3,5,238.4,3.164
44.59,1,-0.021,-0.332,0.025,-0.03,-0.319,0.015,-1.54,-0.277,-0.198,44.33,133.8,40.504364,-3.36651,608.2,3,5,238.4,3.164
44.68,1,-0.011,-0.313,0.037,-0.008,-0.319,0.029,-1.541,-0.277,-0.2,44.33,133.8,40.504364,-3.36651,608.2,3,5,238.4,3.164
44.78,1,-0.068,-0.339,0.036,-0.029,-0.326,0.038,-1.541,-0.277,-0.202,44.33,133.8,40.504364,-3.36651,608.2,3,5,238.4,3.164
44.89,1,0.037,-0.336,0.037,-0.018,-0.328,0.029,-1.542,-0.277,-0.204,44.33,133.8,40.504364,-3.36651,608.2,3,5,238.4,3.164
44.99,1,0.017,-0.313,0.037,0.001,-0.326,0.038,-1.543,-0.279,-0.206,44.33,133.8,40.504364,-3.36651,608.2,3,5,238.4,3.164
45.09,1,-0.064,-0.31,0.03,-0.021,-0.315,0.032,-1.543,-0.28,-0.208,44.33,133.8,40.504364,-3.36651,608.2,3,5,238.4,3.164
45.19,1,-0.074,-0.302,0.032,-0.047,-0.309,0.031,-1.543,-0.28,-0.209,44.33,133.8,40.504364,-3.36651,608.2,3,5,238.4,3.164
45.29,1,-0.027,-0.346,0.014,-0.04,-0.321,0.027,-1.542,-0.277,-0.211,44.33,133.8,40.504364,-3.36651,608.2,3,5,238.4,3.164
45.39,1,-0.026,-0.369,0.015,-0.03,-0.345,0.016,-1.542,-0.276,-0.212,45.31,133.9,40.504185,-3.366886,608.2,3,5,238.0,1.406
45.49,1,-0.043,-0.388,0.008,-0.043,-0.372,0.014,-1.542,-0.275,-0.213,45.31,133.9,40.504185,-3.366886,608.2,3,5,238.0,1.406
45.59,1,-0.02,-0.351,0.01,-0.033,-0.369,0.012,-1.542,-0.276,-0.215,45.31,133.9,40.504185,-3.366886,608.2,3,5,238.0,1.406
45.69,1,-0.027,-0.329,0.002,-0.021,-0.342,0.007,-1.543,-0.277,-0.217,45.31,133.9,40.504185,-3.366886,608.2,3,5,238.0,1.406
45.79,1,-0.056,-0.317,-0.018,-0.046,-0.333,0.003,-1.543,-0.279,-0.219,45.31,133.9,40.504185,-3.366886,608.2,3,5,238.0,1.406
45.89,1,-0.066,-0.287,-0.016,-0.054,-0.309,-0.014,-1.543,-0.28,-0.221,45.31,133.9,40.504185,-3.366886,608.2,3,5,238.0,1.406
45.99,1,-0.056,-0.303,0.001,-0.066,-0.299,-0.01,-1.544,-0.279,-0.223,45.31,133.9,40.504185,-3.366886,608.2,3,5,238.0,1.406
46.09,1,-0.059,-0.31,-0.002,-0.054,-0.311,-0.001,-1.545,-0.28,-0.225,45.31,133.9,40.504185,-3.366886,608.2,3,5,238.0,1.406
46.19,1,-0.032,-0.285,-0.004,-0.051,-0.299,-0.01,-1.545,-0.282,-0.228,45.31,133.9,40.504185,-3.366886,608.2,3,5,238.0,1.406
46.29,1,0.02,-0.288,0.016,-0.006,-0.286,0.008,-1.546,-0.284,-0.232,45.31,133.9,40.504185,-3.366886,608.2,3,5,238.0,1.406
46.4,1,-0.054,-0.222,-0.048,-0.019,-0.265,-0.02,-1.546,-0.286,-0.235,46.31,134.5,40.504005,-3.367256,608.2,3,5,237.7,0.703
46.49,1,-0.019,-0.217,0.039,-0.036,-0.238,0.002,-1.548,-0.287,-0.24,46.31,134.5,40.504005,-3.367256,608.2,3,5,237.7,0.703
46.59,1,-0.05,-0.216,0.03,-0.035,-0.218,0.021,-1.549,-0.287,-0.244,46.31,134.5,40.504005,-3.367256,608.2,3,5,237.7,0.703
46.69,1,-0.054,-0.241,0.023,-0.045,-0.227,0.022,-1.551,-0.286,-0.248,46.31,134.5,40.504005,-3.367256,608.2,3,5,237.7,0.703
46.79,1,-0.104,-0.238,0.046,-0.074,-0.238,0.032,-1.552,-0.287,-0.253,46.31,134.5,40.504005,-3.367256,608.2,3,5,237.7,0.703
46.89,1,-0.063,-0.258,0.026,-0.076,-0.245,0.033,-1.554,-0.287,-0.257,46.31,134.5,40.504005,-3.367256,608.2,3,5,237.7,0.703
46.99,1,-0.055,-0.268,0.057,-0.066,-0.259,0.04,-1.555,-0.289,-0.261,46.31,134.5,40.504005,-3.367256,608.2,3,5,237.7,0.703
47.09,1,-0.018,-0.25,0.028,-0.037,-0.257,0.042,-1.556,-0.289,-0.264,46.31,134.5,40.504005,-3.367256,608.2,3,5,237.7,0.703
47.19,1,-0.044,-0.281,0.012,-0.038,-0.263,0.026,-1.556,-0.286,-0.268,46.31,134.5,40.504005,-3.367256,608.2,3,5,237.7,0.703
47.29,1,-0.046,-0.29,0.029,-0.044,-0.282,0.025,-1.558,-0.286,-0.271,46.31,134.5,40.504005,-3.367256,608.2,3,5,237.7,0.703
47.39,1,-0.045,-0.275,0.006,-0.047,-0.281,0.019,-1.558,-0.287,-0.275,47.38,135.7,40.503826,-3.367636,607.4,3,5,237.3,0.703
47.49,1,-0.083,-0.287,0.012,-0.056,-0.278,0.017,-1.559,-0.288,-0.278,47.38,135.7,40.503826,-3.367636,607.4,3,5,237.3,0.703
47.6,1,-0.04,-0.262,-0.0,-0.058,-0.275,0.007,-1.56,-0.288,-0.281,47.38,135.7,40.503826,-3.367636,607.4,3,5,237.3,0.703
47.69,1,-0.026,-0.282,-0.032,-0.038,-0.275,-0.01,-1.559,-0.287,-0.284,47.38,135.7,40.503826,-3.367636,607.4,3,5,237.3,0.703
47.8,1,-0.069,-0.3,-0.05,-0.047,-0.287,-0.033,-1.56,-0.287,-0.286,47.38,135.7,40.503826,-3.367636,607.4,3,5,237.3,0.703
47.89,1,-0.106,-0.286,-0.076,-0.077,-0.291,-0.053,-1.561,-0.288,-0.289,47.38,135.7,40.503826,-3.367636,607.4,3,5,237.3,0.703
47.99,1,-0.064,-0.239,-0.035,-0.086,-0.27,-0.051,-1.562,-0.29,-0.292,47.38,135.7,40.503826,-3.367636,607.4,3,5,237.3,0.703
48.09,1,0.014,-0.249,-0.032,-0.037,-0.241,-0.041,-1.561,-0.289,-0.294,47.38,135.7,40.503826,-3.367636,607.4,3,5,237.3,0.703
48.19,1,0.226,-0.303,-0.064,0.093,-0.266,-0.046,-1.56,-0.283,-0.296,47.38,135.7,40.503826,-3.367636,607.4,3,5,237.3,0.703
48.29,1,0.049,-0.337,-0.035,0.105,-0.322,-0.046,-1.56,-0.283,-0.299,47.38,135.7,40.503826,-3.367636,607.4,3,5,237.3,0.703
48.39,1,-0.107,-0.292,-0.031,0.002,-0.31,-0.034,-1.562,-0.288,-0.301,48.31,137.6,40.503643,-3.368017,606.8,3,5,238.0,0.703
48.49,1,-0.186,-0.286,-0.042,-0.108,-0.289,-0.043,-1.563,-0.291,-0.304,48.31,137.6,40.503643,-3.368017,606.8,3,5,238.0,0.703
48.59,1,-0.163,-0.344,-0.041,-0.146,-0.314,-0.041,-1.563,-0.29,-0.305,48.31,137.6,40.503643,-3.368017,606.8,3,5,238.0,0.703
48.69,1,-0.122,-0.345,-0.042,-0.142,-0.333,-0.042,-1.566,-0.288,-0.306,48.31,137.6,40.503643,-3.368017,606.8,3,5,238.0,0.703
48.79,1,-0.067,-0.345,-0.034,-0.107,-0.342,-0.035,-1.568,-0.287,-0.307,48.31,137.6,40.503643,-3.368017,606.8,3,5,238.0,0.703
48.9,1,-0.023,-0.352,-0.035,-0.064,-0.349,-0.037,-1.57,-0.287,-0.309,48.31,137.6,40.503643,-3.368017,606.8,3,5,238.0,0.703
49.0,1,-0.033,-0.324,-0.042,-0.041,-0.339,-0.038,-1.571,-0.288,-0.31,48.31,137.6,40.503643,-3.368017,606.8,3,5,238.0,0.703
49.1,1,-0.056,-0.327,-0.042,-0.044,-0.328,-0.046,-1.571,-0.287,-0.312,48.31,137.6,40.503643,-3.368017,606.8,3,5,238.0,0.703
49.19,1,-0.107,-0.334,-0.049,-0.071,-0.334,-0.039,-1.572,-0.286,-0.313,48.31,137.6,40.503643,-3.368017,606.8,3,5,238.0,0.703
49.29,1,-0.104,-0.362,-0.055,-0.093,-0.347,-0.047,-1.573,-0.286,-0.315,48.31,137.6,40.503643,-3.368017,606.8,3,5,238.0,0.703
49.4,1,-0.119,-0.367,-0.038,-0.111,-0.355,-0.048,-1.574,-0.286,-0.316,49.32,137.2,40.503464,-3.368401,606.8,3,5,238.7,1.406
49.51,1,-0.064,-0.362,-0.039,-0.091,-0.357,-0.039,-1.577,-0.287,-0.318,49.32,137.2,40.503464,-3.368401,606.8,3,5,238.7,1.406
49.6,1,-0.089,-0.334,-0.042,-0.082,-0.355,-0.045,-1.578,-0.289,-0.319,49.32,137.2,40.503464,-3.368401,606.8,3,5,238.7,1.406
49.7,1,-0.109,-0.302,-0.068,-0.101,-0.326,-0.052,-1.58,-0.29,-0.321,49.32,137.2,40.503464,-3.368401,606.8,3,5,238.7,1.406
49.8,1,-0.005,-0.312,-0.051,-0.063,-0.311,-0.054,-1.581,-0.289,-0.323,49.32,137.2,40.503464,-3.368401,606.8,3,5,238.7,1.406
49.9,1,-0.021,-0.319,-0.059,-0.023,-0.316,-0.056,-1.582,-0.288,-0.325,49.32,137.2,40.503464,-3.368401,606.8,3,5,238.7,1.406
50.0,1,-0.087,-0.329,-0.079,-0.053,-0.323,-0.064,-1.582,-0.288,-0.326,49.32,137.2,40.503464,-3.368401,606.8,3,5,238.7,1.406
50.11,1,-0.064,-0.349,-0.062,-0.07,-0.337,-0.069,-1.583,-0.288,-0.328,49.32,137.2,40.503464,-3.368401,606.8,3,5,238.7,1.406
50.2,1,-0.026,-0.353,-0.072,-0.05,-0.345,-0.073,-1.583,-0.287,-0.329,49.32,137.2,40.503464,-3.368401,606.8,3,5,238.7,1.406
50.3,1,-0.058,-0.354,-0.07,-0.047,-0.35,-0.068,-1.583,-0.287,-0.33,49.32,137.2,40.503464,-3.368401,606.8,3,5,238.7,1.406
50.4,1,-0.025,-0.353,-0.084,-0.043,-0.351,-0.075,-1.584,-0.287,-0.332,50.37,137.4,40.503288,-3.368789,606.0,3,5,237.5,1.205
50.5,1,-0.041,-0.332,-0.088,-0.033,-0.345,-0.078,-1.584,-0.288,-0.333,50.37,137.4,40.503288,-3.368789,606.0,3,5,237.5,1.205
50.6,1,-0.089,-0.35,-0.068,-0.06,-0.342,-0.081,-1.585,-0.289,-0.334,50.37,137.4,40.503288,-3.368789,606.0,3,5,237.5,1.205
50.71,1,-0.043,-0.353,-0.052,-0.058,-0.35,-0.067,-1.585,-0.289,-0.335,50.37,137.4,40.503288,-3.368789,606.0,3,5,237.5,1.205
50.81,1,-0.038,-0.354,-0.059,-0.046,-0.352,-0.053,-1.585,-0.289,-0.336,50.37,137.4,40.503288,-3.368789,606.0,3,5,237.5,1.205
50.91,1,-0.038,-0.361,-0.071,-0.039,-0.356,-0.066,-1.586,-0.29,-0.337,50.37,137.4,40.503288,-3.368789,606.0,3,5,237.5,1.205
51.0,1,-0.063,-0.348,-0.065,-0.048,-0.354,-0.067,-1.587,-0.291,-0.338,50.37,137.4,40.503288,-3.368789,606.0,3,5,237.5,1.205
51.1,1,-0.059,-0.351,-0.084,-0.06,-0.354,-0.075,-1.587,-0.292,-0.34,50.37,137.4,40.503288,-3.368789,606.0,3,5,237.5,1.205
51.2,1,-0.051,-0.343,-0.038,-0.055,-0.349,-0.064,-1.588,-0.293,-0.341,50.37,137.4,40.503288,-3.368789,606.0,3,5,237.5,1.205
51.31,1,-0.018,-0.339,-0.062,-0.036,-0.344,-0.053,-1.588,-0.293,-0.343,50.37,137.4,40.503288,-3.368789,606.0,3,5,237.5,1.205
51.51,1,-0.052,-0.343,-0.073,-0.042,-0.337,-0.065,-1.59,-0.296,-0.346,51.36,137.1,40.503105,-3.369166,605.9,3,5,237.5,1.205
51.6,1,-0.057,-0.35,-0.053,-0.054,-0.344,-0.064,-1.591,-0.297,-0.347,51.36,137.1,40.503105,-3.369166,605.9,3,5,237.5,1.205
51.7,1,-0.025,-0.323,-0.052,-0.041,-0.337,-0.055,-1.591,-0.299,-0.349,51.36,137.1,40.503105,-3.369166,605.9,3,5,237.5,1.205
51.8,1,-0.047,-0.329,-0.075,-0.044,-0.33,-0.066,-1.591,-0.299,-0.35,51.36,137.1,40.503105,-3.369166,605.9,3,5,237.5,1.205
51.9,1,-0.05,-0.335,-0.051,-0.042,-0.331,-0.062,-1.592,-0.299,-0.352,51.36,137.1,40.503105,-3.369166,605.9,3,5,237.5,1.205
52.01,1,-0.081,-0.314,-0.064,-0.058,-0.327,-0.055,-1.593,-0.299,-0.353,51.36,137.1,40.503105,-3.369166,605.9,3,5,237.5,1.205
52.1,1,-0.045,-0.335,-0.057,-0.065,-0.326,-0.062,-1.594,-0.299,-0.354,51.36,137.1,40.503105,-3.369166,605.9,3,5,237.5,1.205
52.21,1,-0.036,-0.331,-0.074,-0.043,-0.333,-0.066,-1.594,-0.299,-0.356,51.36,137.1,40.503105,-3.369166,605.9,3,5,237.5,1.205
52.3,1,-0.06,-0.314,-0.078,-0.044,-0.324,-0.068,-1.595,-0.3,-0.358,51.36,137.1,40.503105,-3.369166,605.9,3,5,237.5,1.205
52.4,1,-0.117,-0.344,-0.061,-0.079,-0.328,-0.072,-1.595,-0.3,-0.359,51.36,137.1,40.503105,-3.369166,605.9,3,5,237.5,1.205
52.5,1,-0.043,-0.345,-0.073,-0.071,-0.337,-0.07,-1.596,-0.301,-0.36,52.31,136.2,40.502918,-3.369546,604.7,3,5,236.7,0.765
52.6,1,0.001,-0.342,-0.037,-0.046,-0.339,-0.058,-1.598,-0.302,-0.362,52.31,136.2,40.502918,-3.369546,604.7,3,5,236.7,0.765
52.7,1,-0.055,-0.337,-0.051,-0.027,-0.34,-0.051,-1.599,-0.303,-0.363,52.31,136.2,40.502918,-3.369546,604.7,3,5,236.7,0.765
52.8,1,-0.073,-0.34,-0.042,-0.062,-0.342,-0.047,-1.599,-0.303,-0.364,52.31,136.2,40.502918,-3.369546,604.7,3,5,236.7,0.765
52.9,1,-0.035,-0.335,-0.057,-0.047,-0.338,-0.048,-1.6,-0.302,-0.365,52.31,136.2,40.502918,-3.369546,604.7,3,5,236.7,0.765
53.0,1,-0.066,-0.342,-0.047,-0.052,-0.338,-0.049,-1.6,-0.302,-0.367,52.31,136.2,40.502918,-3.369546,604.7,3,5,236.7,0.765
53.1,1,-0.075,-0.329,-0.08,-0.073,-0.337,-0.063,-1.6,-0.304,-0.369,52.31,136.2,40.502918,-3.369546,604.7,3,5,236.7,0.765
53.21,1,0.003,-0.305,-0.057,-0.035,-0.321,-0.061,-1.6,-0.306,-0.372,52.31,136.2,40.502918,-3.369546,604.7,3,5,236.7,0.765
53.31,1,-0.006,-0.289,-0.076,-0.012,-0.305,-0.067,-1.6,-0.307,-0.374,52.31,136.2,40.502918,-3.369546,604.7,3,5,236.7,0.765
53.41,1,-0.091,-0.307,-0.081,-0.046,-0.301,-0.074,-1.6,-0.307,-0.376,52.31,136.2,40.502918,-3.369546,604.7,3,5,236.7,0.765
53.51,1,-0.045,-0.327,-0.07,-0.056,-0.313,-0.078,-1.601,-0.307,-0.378,53.31,135.9,40.502739,-3.369926,603.9,3,5,237.0,0.496
53.61,1,-0.056,-0.348,-0.076,-0.053,-0.332,-0.067,-1.602,-0.308,-0.379,53.31,135.9,40.502739,-3.369926,603.9,3,5,237.0,0.496
53.71,1,-0.093,-0.33,-0.091,-0.071,-0.335,-0.084,-1.602,-0.308,-0.38,53.31,135.9,40.502739,-3.369926,603.9,3,5,237.0,0.496
53.81,1,-0.084,-0.35,-0.089,-0.085,-0.34,-0.088,-1.604,-0.307,-0.381,53.31,135.9,40.502739,-3.369926,603.9,3,5,237.0,0.496
53.91,1,-0.084,-0.356,-0.095,-0.08,-0.349,-0.087,-1.604,-0.308,-0.382,53.31,135.9,40.502739,-3.369926,603.9,3,5,237.0,0.496
54.02,1,-0.034,-0.346,-0.088,-0.067,-0.35,-0.095,-1.605,-0.309,-0.383,53.31,135.9,40.502739,-3.369926,603.9,3,5,237.0,0.496
54.11,1,0.033,-0.321,-0.094,-0.016,-0.337,-0.088,-1.604,-0.309,-0.385,53.31,135.9,40.502739,-3.369926,603.9,3,5,237.0,0.496
54.21,1,-0.02,-0.304,-0.11,0.0,-0.319,-0.1,-1.604,-0.309,-0.387,53.31,135.9,40.502739,-3.369926,603.9,3,5,237.0,0.496
54.31,1,-0.047,-0.329,-0.092,-0.024,-0.321,-0.101,-1.604,-0.309,-0.389,53.31,135.9,40.502739,-3.369926,603.9,3,5,237.0,0.496
54.41,1,-0.037,-0.332,-0.099,-0.042,-0.323,-0.098,-1.605,-0.309,-0.391,53.31,135.9,40.502739,-3.369926,603.9,3,5,237.0,0.496
54.52,1,-0.025,-0.319,-0.096,-0.032,-0.324,-0.095,-1.605,-0.309,-0.392,54.31,135.3,40.502575,-3.370265,603.9,3,5,237.0,0.27
54.61,1,-0.042,-0.331,-0.12,-0.027,-0.324,-0.103,-1.606,-0.308,-0.393,54.31,135.3,40.502575,-3.370265,603.9,3,5,237.0,0.27
54.72,1,-0.062,-0.345,-0.1,-0.05,-0.337,-0.106,-1.606,-0.307,-0.394,54.31,135.3,40.502575,-3.370265,603.9,3,5,237.0,0.27
54.81,1,-0.073,-0.354,-0.121,-0.063,-0.344,-0.116,-1.607,-0.307,-0.395,54.31,135.3,40.502575,-3.370265,603.9,3,5,237.0,0.27
54.91,1,-0.061,-0.344,-0.111,-0.068,-0.346,-0.111,-1.608,-0.308,-0.397,54.31,135.3,40.502575,-3.370265,603.9,3,5,237.0,0.27
55.01,1,-0.048,-0.348,-0.105,-0.058,-0.346,-0.109,-1.609,-0.31,-0.398,54.31,135.3,40.502575,-3.370265,603.9,3,5,237.0,0.27
55.12,1,-0.025,-0.338,-0.089,-0.042,-0.346,-0.099,-1.609,-0.311,-0.399,54.31,135.3,40.502575,-3.370265,603.9,3,5,237.0,0.27
55.22,1,-0.097,-0.332,-0.152,-0.055,-0.336,-0.117,-1.609,-0.311,-0.4,54.31,135.3,40.502575,-3.370265,603.9,3,5,237.0,0.27
55.32,1,0.004,-0.342,-0.096,-0.049,-0.34,-0.124,-1.608,-0.312,-0.402,54.31,135.3,40.502575,-3.370265,603.9,3,5,237.0,0.27
55.41,1,-0.001,-0.366,-0.129,-0.007,-0.35,-0.118,-1.608,-0.311,-0.403,54.31,135.3,40.502575,-3.370265,603.9,3,5,237.0,0.27
55.51,1,-0.026,-0.356,-0.135,-0.012,-0.354,-0.125,-1.608,-0.312,-0.404,55.32,135.4,40.502365,-3.370673,604.0,4,5,237.3,0.291
55.62,1,-0.056,-0.35,-0.135,-0.034,-0.354,-0.133,-1.609,-0.313,-0.405,55.32,135.4,40.502365,-3.370673,604.0,4,5,237.3,0.291
55.72,1,-0.069,-0.32,-0.126,-0.054,-0.34,-0.128,-1.609,-0.313,-0.406,55.32,135.4,40.502365,-3.370673,604.0,4,5,237.3,0.291
55.81,1,-0.021,-0.348,-0.135,-0.049,-0.334,-0.135,-1.61,-0.312,-0.407,55.32,135.4,40.502365,-3.370673,604.0,4,5,237.3,0.291
55.92,1,-0.05,-0.369,-0.126,-0.038,-0.358,-0.13,-1.61,-0.312,-0.408,55.32,135.4,40.502365,-3.370673,604.0,4,5,237.3,0.291
56.01,1,-0.124,-0.342,-0.151,-0.075,-0.351,-0.131,-1.61,-0.313,-0.409,55.32,135.4,40.502365,-3.370673,604.0,4,5,237.3,0.291
56.11,1,-0.061,-0.347,-0.134,-0.082,-0.346,-0.14,-1.612,-0.313,-0.409,55.32,135.4,40.502365,-3.370673,604.0,4,5,237.3,0.291
56.21,1,-0.038,-0.342,-0.119,-0.064,-0.349,-0.129,-1.612,-0.312,-0.41,55.32,135.4,40.502365,-3.370673,604.0,4,5,237.3,0.291
56.31,1,-0.03,-0.346,-0.117,-0.04,-0.346,-0.123,-1.611,-0.312,-0.411,55.32,135.4,40.502365,-3.370673,604.0,4,5,237.3,0.291
56.42,1,-0.085,-0.382,-0.153,-0.059,-0.354,-0.138,-1.611,-0.313,-0.412,55.32,135.4,40.502365,-3.370673,604.0,4,5,237.3,0.291
56.52,1,-0.04,-0.374,-0.15,-0.063,-0.377,-0.136,-1.611,-0.321,-0.414,56.36,133.5,40.502193,-3.371044,603.5,4,5,237.3,0.291
56.63,1,-0.103,-0.293,-0.137,-0.064,-0.337,-0.144,-1.611,-0.325,-0.415,56.36,133.5,40.502193,-3.371044,603.5,4,5,237.3,0.291
56.73,1,-0.068,-0.346,-0.101,-0.074,-0.329,-0.129,-1.612,-0.322,-0.415,56.36,133.5,40.502193,-3.371044,603.5,4,5,237.3,0.291
56.81,1,-0.156,-0.387,-0.115,-0.113,-0.359,-0.115,-1.612,-0.32,-0.415,56.36,133.5,40.502193,-3.371044,603.5,4,5,237.3,0.291
56.91,1,-0.13,-0.353,-0.137,-0.125,-0.366,-0.122,-1.612,-0.321,-0.416,56.36,133.5,40.502193,-3.371044,603.5,4,5,237.3,0.291
57.01,1,-0.031,-0.338,-0.088,-0.09,-0.351,-0.112,-1.613,-0.322,-0.417,56.36,133.5,40.502193,-3.371044,603.5,4,5,237.3,0.291
57.12,1,-0.05,-0.355,-0.087,-0.056,-0.346,-0.095,-1.615,-0.322,-0.419,56.36,133.5,40.502193,-3.371044,603.5,4,5,237.3,0.291
57.21,1,-0.071,-0.349,-0.116,-0.065,-0.353,-0.105,-1.614,-0.322,-0.419,56.36,133.5,40.502193,-3.371044,603.5,4,5,237.3,0.291
57.32,1,-0.063,-0.348,-0.111,-0.065,-0.349,-0.109,-1.614,-0.323,-0.42,56.36,133.5,40.502193,-3.371044,603.5,4,5,237.3,0.291
57.42,1,-0.083,-0.37,-0.097,-0.071,-0.357,-0.102,-1.615,-0.323,-0.421,56.36,133.5,40.502193,-3.371044,603.5,4,5,237.3,0.291
57.52,1,-0.117,-0.343,-0.066,-0.091,-0.358,-0.089,-1.616,-0.324,-0.421,57.31,132.0,40.502014,-3.371411,602.6,4,5,237.7,0.355
57.62,1,0.001,-0.363,-0.067,-0.06,-0.355,-0.076,-1.617,-0.324,-0.422,57.31,132.0,40.502014,-3.371411,602.6,4,5,237.7,0.355
57.72,1,-0.063,-0.326,-0.062,-0.038,-0.346,-0.066,-1.616,-0.325,-0.423,57.31,132.0,40.502014,-3.371411,602.6,4,5,237.7,0.355
57.83,1,-0.046,-0.331,-0.041,-0.062,-0.33,-0.059,-1.617,-0.325,-0.424,57.31,132.0,40.502014,-3.371411,602.6,4,5,237.7,0.355
57.92,1,-0.05,-0.359,-0.048,-0.048,-0.348,-0.047,-1.618,-0.324,-0.424,57.31,132.0,40.502014,-3.371411,602.6,4,5,237.7,0.355
58.02,1,-0.068,-0.357,-0.054,-0.057,-0.353,-0.051,-1.619,-0.324,-0.425,57.31,132.0,40.502014,-3.371411,602.6,4,5,237.7,0.355
58.12,1,-0.075,-0.371,-0.063,-0.07,-0.359,-0.06,-1.618,-0.325,-0.425,57.31,132.0,40.502014,-3.371411,602.6,4,5,237.7,0.355
58.22,1,-0.02,-0.368,-0.074,-0.045,-0.368,-0.061,-1.618,-0.327,-0.426,57.31,132.0,40.502014,-3.371411,602.6,4,5,237.7,0.355
58.32,1,-0.001,-0.358,-0.077,-0.03,-0.362,-0.075,-1.616,-0.328,-0.426,57.31,132.0,40.502014,-3.371411,602.6,4,5,237.7,0.355
58.42,1,-0.053,-0.391,-0.081,-0.022,-0.37,-0.076,-1.616,-0.327,-0.426,57.31,132.0,40.502014,-3.371411,602.6,4,5,237.7,0.355
58.52,1,-0.073,-0.409,-0.108,-0.056,-0.39,-0.089,-1.614,-0.326,-0.425,58.31,130.3,40.501846,-3.371779,602.3,4,5,237.3,0.352
58.62,1,-0.077,-0.396,-0.126,-0.067,-0.4,-0.106,-1.614,-0.326,-0.425,58.31,130.3,40.501846,-3.371779,602.3,4,5,237.3,0.352
58.72,1,-0.083,-0.373,-0.101,-0.076,-0.387,-0.11,-1.615,-0.326,-0.425,58.31,130.3,40.501846,-3.371779,602.3,4,5,237.3,0.352
58.82,1,-0.091,-0.404,-0.108,-0.085,-0.39,-0.105,-1.615,-0.327,-0.426,58.31,130.3,40.501846,-3.371779,602.3,4,5,237.3,0.352
58.92,1,-0.097,-0.36,-0.119,-0.089,-0.382,-0.111,-1.615,-0.33,-0.427,58.31,130.3,40.501846,-3.371779,602.3,4,5,237.3,0.352
59.03,1,-0.074,-0.343,-0.092,-0.084,-0.36,-0.108,-1.616,-0.331,-0.428,58.31,130.3,40.501846,-3.371779,602.3,4,5,237.3,0.352
59.12,1,-0.048,-0.354,-0.105,-0.075,-0.36,-0.102,-1.616,-0.331,-0.429,58.31,130.3,40.501846,-3.371779,602.3,4,5,237.3,0.352
59.22,1,-0.064,-0.319,-0.122,-0.056,-0.337,-0.113,-1.617,-0.33,-0.43,58.31,130.3,40.501846,-3.371779,602.3,4,5,237.3,0.352
59.32,1,-0.098,-0.355,-0.126,-0.081,-0.34,-0.117,-1.617,-0.329,-0.431,58.31,130.3,40.501846,-3.371779,602.3,4,5,237.3,0.352
59.42,1,-0.023,-0.349,-0.089,-0.059,-0.348,-0.106,-1.617,-0.329,-0.432,58.31,130.3,40.501846,-3.371779,602.3,4,5,237.3,0.352
59.53,1,-0.043,-0.347,-0.103,-0.042,-0.348,-0.104,-1.618,-0.329,-0.433,59.32,130.8,40.501675,-3.37214,602.3,4,5,237.3,0.352
59.63,1,-0.104,-0.338,-0.096,-0.068,-0.341,-0.104,-1.619,-0.329,-0.433,59.32,130.8,40.501675,-3.37214,602.3,4,5,237.3,0.352
59.72,1,-0.04,-0.358,-0.094,-0.068,-0.349,-0.094,-1.619,-0.328,-0.434,59.32,130.8,40.501675,-3.37214,602.3,4,5,237.3,0.352
59.82,1,-0.03,-0.359,-0.108,-0.041,-0.356,-0.102,-1.619,-0.328,-0.434,59.32,130.8,40.501675,-3.37214,602.3,4,5,237.3,0.352
59.92,1,-0.057,-0.361,-0.113,-0.043,-0.357,-0.109,-1.618,-0.33,-0.435,59.32,130.8,40.501675,-3.37214,602.3,4,5,237.3,0.352
60.02,1,-0.049,-0.352,-0.112,-0.052,-0.357,-0.11,-1.618,-0.332,-0.436,59.32,130.8,40.501675,-3.37214,602.3,4,5,237.3,0.352
60.12,1,-0.06,-0.357,-0.112,-0.058,-0.353,-0.107,-1.618,-0.333,-0.437,59.32,130.8,40.501675,-3.37214,602.3,4,5,237.3,0.352
60.22,1,-0.066,-0.351,-0.148,-0.058,-0.353,-0.131,-1.617,-0.334,-0.438,59.32,130.8,40.501675,-3.37214,602.3,4,5,237.3,0.352
60.33,1,-0.088,-0.314,-0.148,-0.071,-0.339,-0.142,-1.618,-0.334,-0.439,59.32,130.8,40.501675,-3.37214,602.3,4,5,237.3,0.352
60.42,1,-0.097,-0.329,-0.136,-0.092,-0.333,-0.136,-1.618,-0.334,-0.44,59.32,130.8,40.501675,-3.37214,602.3,4,5,237.3,0.352
60.52,1,-0.065,-0.329,-0.137,-0.078,-0.327,-0.144,-1.619,-0.332,-0.441,60.31,130.1,40.501503,-3.372506,601.3,4,5,237.3,0.0
60.62,1,-0.078,-0.331,-0.146,-0.079,-0.331,-0.138,-1.619,-0.331,-0.442,60.31,130.1,40.501503,-3.372506,601.3,4,5,237.3,0.0
60.73,1,-0.1,-0.345,-0.131,-0.092,-0.334,-0.139,-1.62,-0.329,-0.443,60.31,130.1,40.501503,-3.372506,601.3,4,5,237.3,0.0
60.83,1,-0.016,-0.354,-0.118,-0.054,-0.343,-0.123,-1.62,-0.329,-0.444,60.31,130.1,40.501503,-3.372506,601.3,4,5,237.3,0.0
60.92,1,-0.038,-0.337,-0.144,-0.036,-0.346,-0.134,-1.619,-0.329,-0.444,60.31,130.1,40.501503,-3.372506,601.3,4,5,237.3,0.0
61.02,1,-0.083,-0.358,-0.152,-0.063,-0.348,-0.142,-1.619,-0.329,-0.444,60.31,130.1,40.501503,-3.372506,601.3,4,5,237.3,0.0
61.12,1,-0.061,-0.366,-0.119,-0.073,-0.356,-0.138,-1.619,-0.329,-0.445,60.31,130.1,40.501503,-3.372506,601.3,4,5,237.3,0.0
61.22,1,0.002,-0.361,-0.094,-0.038,-0.363,-0.113,-1.619,-0.329,-0.445,60.31,130.1,40.501503,-3.372506,601.3,4,5,237.3,0.0
61.43,1,-0.108,-0.342,-0.123,-0.049,-0.348,-0.12,-1.617,-0.331,-0.446,60.31,130.1,40.501503,-3.372506,601.3,4,5,237.3,0.0
61.54,1,-0.084,-0.347,-0.088,-0.075,-0.349,-0.107,-1.618,-0.332,-0.447,60.31,130.1,40.501503,-3.372506,601.3,4,5,237.3,0.0
61.63,1,-0.112,-0.364,-0.135,-0.092,-0.354,-0.111,-1.618,-0.332,-0.447,61.32,128.9,40.501328,-3.372864,600.9,4,5,237.3,0.0
61.73,1,-0.035,-0.378,-0.08,-0.077,-0.367,-0.11,-1.618,-0.331,-0.447,61.32,128.9,40.501328,-3.372864,600.9,4,5,237.3,0.0
61.83,1,-0.064,-0.346,-0.105,-0.058,-0.358,-0.097,-1.618,-0.331,-0.447,61.32,128.9,40.501328,-3.372864,600.9,4,5,237.3,0.0
61.93,1,-0.077,-0.34,-0.119,-0.071,-0.351,-0.113,-1.618,-0.332,-0.448,61.32,128.9,40.501328,-3.372864,600.9,4,5,237.3,0.0
62.03,1,-0.084,-0.364,-0.086,-0.073,-0.351,-0.103,-1.618,-0.332,-0.449,61.32,128.9,40.501328,-3.372864,600.9,4,5,237.3,0.0
62.13,1,-0.089,-0.359,-0.104,-0.087,-0.363,-0.1,-1.618,-0.332,-0.449,61.32,128.9,40.501328,-3.372864,600.9,4,5,237.3,0.0
62.24,1,-0.067,-0.361,-0.127,-0.072,-0.357,-0.105,-1.618,-0.333,-0.449,61.32,128.9,40.501328,-3.372864,600.9,4,5,237.3,0.0
62.33,1,-0.056,-0.365,-0.096,-0.065,-0.36,-0.114,-1.618,-0.334,-0.45,61.32,128.9,40.501328,-3.372864,600.9,4,5,237.3,0.0
62.43,1,-0.044,-0.351,-0.147,-0.055,-0.36,-0.117,-1.617,-0.335,-0.45,61.32,128.9,40.501328,-3.372864,600.9,4,5,237.3,0.0
62.53,1,-0.061,-0.335,-0.152,-0.057,-0.346,-0.138,-1.617,-0.335,-0.45,61.32,128.9,40.501328,-3.372864,600.9,4,5,237.3,0.0
62.63,1,-0.083,-0.344,-0.156,-0.073,-0.345,-0.15,-1.616,-0.335,-0.451,62.32,126.9,40.501152,-3.373216,600.3,4,5,237.7,0.352
62.73,1,-0.073,-0.354,-0.148,-0.077,-0.347,-0.153,-1.617,-0.334,-0.451,62.32,126.9,40.501152,-3.373216,600.3,4,5,237.7,0.352
62.83,1,-0.139,-0.355,-0.125,-0.094,-0.352,-0.145,-1.619,-0.333,-0.451,62.32,126.9,40.501152,-3.373216,600.3,4,5,237.7,0.352
62.93,1,-0.104,-0.364,-0.088,-0.114,-0.358,-0.106,-1.621,-0.333,-0.452,62.32,126.9,40.501152,-3.373216,600.3,4,5,237.7,0.352
63.03,1,-0.045,-0.362,-0.089,-0.084,-0.36,-0.094,-1.621,-0.333,-0.452,62.32,126.9,40.501152,-3.373216,600.3,4,5,237.7,0.352
63.13,1,-0.045,-0.348,-0.089,-0.052,-0.357,-0.085,-1.621,-0.331,-0.452,62.32,126.9,40.501152,-3.373216,600.3,4,5,237.7,0.352
63.24,1,-0.012,-0.389,-0.077,-0.034,-0.368,-0.092,-1.621,-0.331,-0.452,62.32,126.9,40.501152,-3.373216,600.3,4,5,237.7,0.352
63.33,1,-0.042,-0.364,-0.096,-0.032,-0.37,-0.095,-1.62,-0.333,-0.453,62.32,126.9,40.501152,-3.373216,600.3,4,5,237.7,0.352
63.44,1,-0.083,-0.341,-0.104,-0.058,-0.355,-0.096,-1.62,-0.334,-0.453,62.32,126.9,40.501152,-3.373216,600.3,4,5,237.7,0.352
63.53,1,-0.046,-0.336,-0.103,-0.056,-0.347,-0.1,-1.619,-0.334,-0.453,62.32,126.9,40.501152,-3.373216,600.3,4,5,237.7,0.352
63.64,1,-0.119,-0.384,-0.087,-0.082,-0.353,-0.1,-1.618,-0.331,-0.452,63.34,125.5,40.50098,-3.373557,599.8,4,5,237.0,0.703
63.73,1,-0.005,-0.395,-0.144,-0.046,-0.382,-0.115,-1.617,-0.331,-0.452,63.34,125.5,40.50098,-3.373557,599.8,4,5,237.0,0.703
63.83,1,-0.09,-0.365,-0.127,-0.073,-0.38,-0.134,-1.618,-0.331,-0.451,63.34,125.5,40.50098,-3.373557,599.8,4,5,237.0,0.703
63.94,1,-0.094,-0.399,-0.087,-0.081,-0.383,-0.106,-1.618,-0.331,-0.45,63.34,125.5,40.50098,-3.373557,599.8,4,5,237.0,0.703
64.03,1,-0.049,-0.395,-0.066,-0.071,-0.391,-0.086,-1.618,-0.331,-0.45,63.34,125.5,40.50098,-3.373557,599.8,4,5,237.0,0.703
64.13,1,-0.029,-0.4,-0.057,-0.052,-0.394,-0.067,-1.618,-0.332,-0.449,63.34,125.5,40.50098,-3.373557,599.8,4,5,237.0,0.703
64.23,1,-0.023,-0.386,-0.043,-0.033,-0.393,-0.058,-1.618,-0.335,-0.45,63.34,125.5,40.50098,-3.373557,599.8,4,5,237.0,0.703
64.33,1,-0.083,-0.389,-0.041,-0.054,-0.392,-0.047,-1.617,-0.337,-0.449,63.34,125.5,40.50098,-3.373557,599.8,4,5,237.0,0.703
64.43,1,-0.105,-0.38,-0.043,-0.075,-0.386,-0.041,-1.616,-0.337,-0.449,63.34,125.5,40.50098,-3.373557,599.8,4,5,237.0,0.703
64.54,1,-0.129,-0.399,-0.053,-0.11,-0.388,-0.05,-1.616,-0.335,-0.447,63.34,125.5,40.50098,-3.373557,599.8,4,5,237.0,0.703
64.63,1,-0.054,-0.415,-0.06,-0.089,-0.402,-0.052,-1.617,-0.334,-0.445,64.32,124.5,40.500813,-3.373898,599.8,4,5,237.3,0.352
64.73,1,-0.067,-0.403,-0.037,-0.068,-0.406,-0.046,-1.618,-0.335,-0.444,64.32,124.5,40.500813,-3.373898,599.8,4,5,237.3,0.352
64.83,1,-0.066,-0.401,-0.043,-0.073,-0.401,-0.048,-1.618,-0.336,-0.443,64.32,124.5,40.500813,-3.373898,599.8,4,5,237.3,0.352
64.93,1,-0.086,-0.406,-0.011,-0.071,-0.406,-0.031,-1.618,-0.336,-0.442,64.32,124.5,40.500813,-3.373898,599.8,4,5,237.3,0.352
65.03,1,-0.045,-0.422,0.0,-0.066,-0.413,-0.016,-1.618,-0.335,-0.44,64.32,124.5,40.500813,-3.373898,599.8,4,5,237.3,0.352
65.14,1,-0.058,-0.448,0.008,-0.058,-0.427,-0.0,-1.618,-0.334,-0.438,64.32,124.5,40.500813,-3.373898,599.8,4,5,237.3,0.352
65.24,1,-0.068,-0.417,0.007,-0.064,-0.43,0.005,-1.616,-0.335,-0.437,64.32,124.5,40.500813,-3.373898,599.8,4,5,237.3,0.352
65.34,1,-0.044,-0.388,0.009,-0.058,-0.404,0.006,-1.616,-0.335,-0.436,64.32,124.5,40.500813,-3.373898,599.8,4,5,237.3,0.352
65.43,1,-0.061,-0.429,0.005,-0.053,-0.414,0.006,-1.615,-0.334,-0.435,64.32,124.5,40.500813,-3.373898,599.8,4,5,237.3,0.352
65.54,1,-0.063,-0.422,0.026,-0.059,-0.424,0.016,-1.615,-0.336,-0.434,64.32,124.5,40.500813,-3.373898,599.8,4,5,237.3,0.352
65.64,1,-0.08,-0.403,0.015,-0.07,-0.411,0.016,-1.614,-0.337,-0.433,65.32,124.0,40.500641,-3.374234,599.7,4,5,236.6,0.703
65.74,1,-0.048,-0.406,0.014,-0.065,-0.409,0.014,-1.613,-0.338,-0.432,65.32,124.0,40.500641,-3.374234,599.7,4,5,236.6,0.703
65.84,1,-0.067,-0.434,0.0,-0.057,-0.418,0.011,-1.613,-0.338,-0.43,65.32,124.0,40.500641,-3.374234,599.7,4,5,236.6,0.703
65.94,1,-0.061,-0.416,0.012,-0.065,-0.422,0.01,-1.612,-0.339,-0.429,65.32,124.0,40.500641,-3.374234,599.7,4,5,236.6,0.703
66.04,1,-0.072,-0.378,0.0,-0.067,-0.401,0.01,-1.611,-0.339,-0.428,65.32,124.0,40.500641,-3.374234,599.7,4,5,236.6,0.703
66.14,1,-0.048,-0.363,0.006,-0.058,-0.384,-0.0,-1.612,-0.337,-0.428,65.32,124.0,40.500641,-3.374234,599.7,4,5,236.6,0.703
66.24,1,-0.133,-0.35,-0.001,-0.085,-0.366,-0.003,-1.612,-0.336,-0.428,65.32,124.0,40.500641,-3.374234,599.7,4,5,236.6,0.703
66.35,1,-0.049,-0.366,-0.001,-0.082,-0.36,0.005,-1.613,-0.336,-0.428,65.32,124.0,40.500641,-3.374234,599.7,4,5,236.6,0.703
66.44,1,-0.104,-0.362,0.007,-0.078,-0.36,0.003,-1.613,-0.336,-0.428,65.32,124.0,40.500641,-3.374234,599.7,4,5,236.6,0.703
66.54,1,-0.03,-0.328,0.012,-0.072,-0.346,0.009,-1.613,-0.338,-0.429,65.32,124.0,40.500641,-3.374234,599.7,4,5,236.6,0.703
66.64,1,-0.05,-0.316,0.026,-0.054,-0.334,0.015,-1.613,-0.339,-0.43,66.31,126.0,40.500465,-3.374576,599.7,4,5,236.2,1.055
66.74,1,-0.092,-0.333,-0.006,-0.063,-0.327,0.011,-1.614,-0.34,-0.431,66.31,126.0,40.500465,-3.374576,599.7,4,5,236.2,1.055
66.84,1,-0.04,-0.31,0.024,-0.06,-0.321,0.012,-1.614,-0.341,-0.433,66.31,126.0,40.500465,-3.374576,599.7,4,5,236.2,1.055
66.94,1,-0.034,-0.319,0.008,-0.05,-0.321,0.013,-1.613,-0.342,-0.434,66.31,126.0,40.500465,-3.374576,599.7,4,5,236.2,1.055
67.04,1,-0.035,-0.294,0.016,-0.038,-0.307,0.011,-1.613,-0.343,-0.436,66.31,126.0,40.500465,-3.374576,599.7,4,5,236.2,1.055
67.15,1,-0.024,-0.293,0.004,-0.032,-0.299,0.009,-1.613,-0.344,-0.438,66.31,126.0,40.500465,-3.374576,599.7,4,5,236.2,1.055
67.24,1,-0.077,-0.294,0.013,-0.048,-0.295,0.01,-1.613,-0.345,-0.44,66.31,126.0,40.500465,-3.374576,599.7,4,5,236.2,1.055
67.34,1,-0.077,-0.286,0.011,-0.064,-0.289,0.009,-1.613,-0.346,-0.442,66.31,126.0,40.500465,-3.374576,599.7,4,5,236.2,1.055
67.44,1,-0.046,-0.322,0.017,-0.061,-0.301,0.012,-1.613,-0.347,-0.444,66.31,126.0,40.500465,-3.374576,599.7,4,5,236.2,1.055
67.54,1,-0.075,-0.331,0.0,-0.06,-0.321,0.01,-1.613,-0.347,-0.445,66.31,126.0,40.500465,-3.374576,599.7,4,5,236.2,1.055
67.65,1,-0.101,-0.337,-0.005,-0.086,-0.334,0.002,-1.613,-0.348,-0.446,67.32,128.8,40.500282,-3.374921,601.1,4,5,235.5,1.055
67.74,1,-0.115,-0.348,-0.001,-0.099,-0.334,0.001,-1.614,-0.348,-0.447,67.32,128.8,40.500282,-3.374921,601.1,4,5,235.5,1.055
67.85,1,-0.123,-0.352,-0.002,-0.117,-0.348,-0.002,-1.614,-0.348,-0.447,67.32,128.8,40.500282,-3.374921,601.1,4,5,235.5,1.055
67.95,1,-0.068,-0.371,0.007,-0.095,-0.357,0.002,-1.615,-0.348,-0.448,67.32,128.8,40.500282,-3.374921,601.1,4,5,235.5,1.055
68.04,1,-0.059,-0.339,-0.018,-0.078,-0.351,-0.003,-1.615,-0.348,-0.448,67.32,128.8,40.500282,-3.374921,601.1,4,5,235.5,1.055
68.14,1,-0.062,-0.357,0.018,-0.062,-0.35,0.003,-1.615,-0.348,-0.449,67.32,128.8,40.500282,-3.374921,601.1,4,5,235.5,1.055
68.25,1,-0.071,-0.337,0.005,-0.064,-0.348,0.004,-1.615,-0.349,-0.449,67.32,128.8,40.500282,-3.374921,601.1,4,5,235.5,1.055
68.35,1,-0.079,-0.33,0.008,-0.073,-0.34,0.003,-1.616,-0.349,-0.45,67.32,128.8,40.500282,-3.374921,601.1,4,5,235.5,1.055
68.44,1,-0.079,-0.332,0.008,-0.075,-0.334,0.009,-1.616,-0.349,-0.451,67.32,128.8,40.500282,-3.374921,601.1,4,5,235.5,1.055
68.54,1,-0.077,-0.334,-0.016,-0.076,-0.336,0.001,-1.616,-0.349,-0.451,67.32,128.8,40.500282,-3.374921,601.1,4,5,235.5,1.055
68.64,1,-0.066,-0.348,-0.02,-0.074,-0.339,-0.015,-1.615,-0.349,-0.452,68.32,131.5,40.500095,-3.375279,601.5,4,5,235.5,0.703
68.74,1,-0.041,-0.358,-0.021,-0.063,-0.347,-0.014,-1.615,-0.348,-0.452,68.32,131.5,40.500095,-3.375279,601.5,4,5,235.5,0.703
68.85,1,-0.057,-0.361,-0.019,-0.049,-0.357,-0.021,-1.614,-0.347,-0.452,68.32,131.5,40.500095,-3.375279,601.5,4,5,235.5,0.703
68.94,1,-0.067,-0.352,-0.029,-0.064,-0.355,-0.019,-1.614,-0.347,-0.453,68.32,131.5,40.500095,-3.375279,601.5,4,5,235.5,0.703
69.05,1,-0.064,-0.353,-0.016,-0.063,-0.355,-0.023,-1.613,-0.347,-0.453,68.32,131.5,40.500095,-3.375279,601.5,4,5,235.5,0.703
69.14,1,-0.081,-0.366,-0.04,-0.069,-0.357,-0.026,-1.613,-0.347,-0.453,68.32,131.5,40.500095,-3.375279,601.5,4,5,235.5,0.703
69.24,1,-0.091,-0.365,-0.054,-0.084,-0.366,-0.044,-1.613,-0.349,-0.454,68.32,131.5,40.500095,-3.375279,601.5,4,5,235.5,0.703
69.34,1,-0.085,-0.326,-0.086,-0.086,-0.346,-0.058,-1.612,-0.35,-0.454,68.32,131.5,40.500095,-3.375279,601.5,4,5,235.5,0.703
69.44,1,-0.079,-0.369,-0.108,-0.078,-0.355,-0.085,-1.61,-0.35,-0.454,68.32,131.5,40.500095,-3.375279,601.5,4,5,235.5,0.703
69.56,1,-0.033,-0.36,-0.069,-0.068,-0.357,-0.086,-1.61,-0.349,-0.455,68.32,131.5,40.500095,-3.375279,601.5,4,5,235.5,0.703
69.65,1,-0.014,-0.36,-0.058,-0.033,-0.359,-0.07,-1.61,-0.348,-0.455,69.31,134.5,40.499908,-3.375641,600.0,4,5,236.2,0.703
69.75,1,-0.039,-0.373,-0.087,-0.029,-0.362,-0.075,-1.609,-0.348,-0.456,69.31,134.5,40.499908,-3.375641,600.0,4,5,236.2,0.703
69.85,1,-0.042,-0.333,-0.055,-0.04,-0.361,-0.073,-1.609,-0.349,-0.457,69.31,134.5,40.499908,-3.375641,600.0,4,5,236.2,0.703
69.95,1,-0.098,-0.326,-0.082,-0.063,-0.331,-0.073,-1.609,-0.35,-0.458,69.31,134.5,40.499908,-3.375641,600.0,4,5,236.2,0.703
70.05,1,-0.127,-0.325,-0.093,-0.101,-0.328,-0.08,-1.609,-0.351,-0.459,69.31,134.5,40.499908,-3.375641,600.0,4,5,236.2,0.703
70.15,1,-0.089,-0.344,-0.08,-0.102,-0.337,-0.083,-1.61,-0.352,-0.46,69.31,134.5,40.499908,-3.375641,600.0,4,5,236.2,0.703
70.25,1,-0.078,-0.327,-0.073,-0.083,-0.336,-0.075,-1.61,-0.354,-0.461,69.31,134.5,40.499908,-3.375641,600.0,4,5,236.2,0.703
70.35,1,-0.07,-0.343,-0.079,-0.085,-0.333,-0.08,-1.61,-0.355,-0.461,69.31,134.5,40.499908,-3.375641,600.0,4,5,236.2,0.703
70.45,1,-0.061,-0.346,-0.053,-0.063,-0.345,-0.071,-1.611,-0.355,-0.461,69.31,134.5,40.499908,-3.375641,600.0,4,5,236.2,0.703
70.55,1,-0.087,-0.352,-0.077,-0.079,-0.347,-0.069,-1.611,-0.355,-0.461,69.31,134.5,40.499908,-3.375641,600.0,4,5,236.2,0.703
70.65,1,-0.074,-0.367,-0.065,-0.08,-0.354,-0.066,-1.611,-0.354,-0.461,70.32,136.2,40.499722,-3.376015,601.3,4,5,236.2,0.703
70.76,1,-0.057,-0.37,-0.052,-0.064,-0.365,-0.059,-1.61,-0.354,-0.462,70.32,136.2,40.499722,-3.376015,601.3,4,5,236.2,0.703
70.85,1,-0.041,-0.378,-0.026,-0.053,-0.368,-0.048,-1.61,-0.354,-0.463,70.32,136.2,40.499722,-3.376015,601.3,4,5,236.2,0.703
70.96,1,-0.06,-0.376,-0.051,-0.053,-0.375,-0.042,-1.61,-0.354,-0.463,70.32,136.2,40.499722,-3.376015,601.3,4,5,236.2,0.703
71.06,1,-0.101,-0.39,-0.027,-0.073,-0.381,-0.037,-1.61,-0.354,-0.463,70.32,136.2,40.499722,-3.376015,601.3,4,5,236.2,0.703
71.15,1,-0.049,-0.401,-0.034,-0.074,-0.393,-0.036,-1.61,-0.354,-0.463,70.32,136.2,40.499722,-3.376015,601.3,4,5,236.2,0.703
71.25,1,-0.079,-0.375,-0.034,-0.064,-0.387,-0.038,-1.61,-0.354,-0.463,70.32,136.2,40.499722,-3.376015,601.3,4,5,236.2,0.703
71.35,1,-0.078,-0.381,-0.034,-0.077,-0.381,-0.026,-1.61,-0.354,-0.463,70.32,136.2,40.499722,-3.376015,601.3,4,5,236.2,0.703
71.45,1,-0.069,-0.375,-0.017,-0.077,-0.378,-0.032,-1.61,-0.354,-0.463,70.32,136.2,40.499722,-3.376015,601.3,4,5,236.2,0.703
71.55,1,-0.076,-0.373,-0.049,-0.068,-0.377,-0.032,-1.61,-0.353,-0.463,70.32,136.2,40.499722,-3.376015,601.3,4,5,236.2,0.703
71.65,1,-0.098,-0.367,-0.052,-0.087,-0.37,-0.045,-1.61,-0.353,-0.463,71.35,136.3,40.499531,-3.376389,601.5,4,5,236.2,0.0
71.75,1,-0.062,-0.381,-0.038,-0.079,-0.374,-0.045,-1.61,-0.352,-0.463,71.35,136.3,40.499531,-3.376389,601.5,4,5,236.2,0.0
71.85,1,-0.02,-0.377,-0.03,-0.051,-0.379,-0.035,-1.609,-0.353,-0.463,71.35,136.3,40.499531,-3.376389,601.5,4,5,236.2,0.0
71.96,1,-0.029,-0.383,-0.045,-0.027,-0.381,-0.037,-1.608,-0.355,-0.463,71.35,136.3,40.499531,-3.376389,601.5,4,5,236.2,0.0
72.05,1,-0.064,-0.367,-0.057,-0.055,-0.374,-0.051,-1.608,-0.355,-0.463,71.35,136.3,40.499531,-3.376389,601.5,4,5,236.2,0.0
72.16,1,-0.08,-0.37,-0.03,-0.063,-0.371,-0.038,-1.607,-0.356,-0.463,71.35,136.3,40.499531,-3.376389,601.5,4,5,236.2,0.0
72.26,1,-0.063,-0.363,-0.045,-0.062,-0.367,-0.043,-1.607,-0.355,-0.463,71.35,136.3,40.499531,-3.376389,601.5,4,5,236.2,0.0
72.35,1,-0.128,-0.351,-0.072,-0.092,-0.364,-0.05,-1.606,-0.355,-0.463,71.35,136.3,40.499531,-3.376389,601.5,4,5,236.2,0.0
72.45,1,-0.016,-0.34,-0.034,-0.069,-0.353,-0.05,-1.607,-0.356,-0.464,71.35,136.3,40.499531,-3.376389,601.5,4,5,236.2,0.0
72.55,1,-0.045,-0.339,-0.048,-0.042,-0.34,-0.045,-1.607,-0.355,-0.466,71.35,136.3,40.499531,-3.376389,601.5,4,5,236.2,0.0
72.66,1,-0.138,-0.337,-0.065,-0.085,-0.339,-0.057,-1.608,-0.354,-0.466,72.31,136.9,40.49934,-3.376756,601.6,4,5,236.2,0.0
72.75,1,-0.197,-0.35,-0.049,-0.14,-0.344,-0.057,-1.61,-0.353,-0.467,72.31,136.9,40.49934,-3.376756,601.6,4,5,236.2,0.0
72.85,1,-0.12,-0.358,-0.024,-0.158,-0.347,-0.044,-1.612,-0.351,-0.467,72.31,136.9,40.49934,-3.376756,601.6,4,5,236.2,0.0
72.95,1,0.012,-0.38,-0.011,-0.08,-0.367,-0.023,-1.612,-0.348,-0.467,72.31,136.9,40.49934,-3.376756,601.6,4,5,236.2,0.0
73.05,1,-0.051,-0.361,-0.049,-0.048,-0.369,-0.03,-1.611,-0.347,-0.466,72.31,136.9,40.49934,-3.376756,601.6,4,5,236.2,0.0
73.15,1,-0.023,-0.363,-0.029,-0.038,-0.362,-0.04,-1.612,-0.347,-0.467,72.31,136.9,40.49934,-3.376756,601.6,4,5,236.2,0.0
73.26,1,-0.005,-0.336,-0.017,-0.012,-0.352,-0.019,-1.612,-0.347,-0.468,72.31,136.9,40.49934,-3.376756,601.6,4,5,236.2,0.0
73.35,1,-0.088,-0.351,-0.054,-0.039,-0.346,-0.031,-1.611,-0.347,-0.469,72.31,136.9,40.49934,-3.376756,601.6,4,5,236.2,0.0
73.46,1,-0.105,-0.335,-0.044,-0.084,-0.343,-0.048,-1.61,-0.348,-0.47,72.31,136.9,40.49934,-3.376756,601.6,4,5,236.2,0.0
73.56,1,-0.073,-0.329,-0.037,-0.089,-0.334,-0.045,-1.61,-0.347,-0.47,72.31,136.9,40.49934,-3.376756,601.6,4,5,236.2,0.0
73.66,1,-0.043,-0.385,-0.042,-0.059,-0.354,-0.036,-1.609,-0.345,-0.47,73.32,137.6,40.499146,-3.377141,600.4,4,5,235.9,0.352
73.76,1,-0.017,-0.362,-0.049,-0.033,-0.366,-0.044,-1.608,-0.345,-0.471,73.32,137.6,40.499146,-3.377141,600.4,4,5,235.9,0.352
73.86,1,-0.018,-0.344,-0.061,-0.023,-0.358,-0.05,-1.607,-0.345,-0.472,73.32,137.6,40.499146,-3.377141,600.4,4,5,235.9,0.352
73.96,1,-0.072,-0.385,-0.087,-0.045,-0.358,-0.07,-1.605,-0.345,-0.472,73.32,137.6,40.499146,-3.377141,600.4,4,5,235.9,0.352
74.07,1,-0.161,-0.383,-0.099,-0.096,-0.38,-0.086,-1.605,-0.347,-0.473,73.32,137.6,40.499146,-3.377141,600.4,4,5,235.9,0.352
74.16,1,-0.198,-0.345,-0.103,-0.154,-0.367,-0.094,-1.607,-0.348,-0.473,73.32,137.6,40.499146,-3.377141,600.4,4,5,235.9,0.352
74.26,1,-0.127,-0.363,-0.07,-0.164,-0.36,-0.091,-1.609,-0.348,-0.473,73.32,137.6,40.499146,-3.377141,600.4,4,5,235.9,0.352
74.36,1,-0.013,-0.377,-0.061,-0.086,-0.368,-0.067,-1.609,-0.346,-0.473,73.32,137.6,40.499146,-3.377141,600.4,4,5,235.9,0.352
74.47,1,0.008,-0.338,-0.085,-0.03,-0.357,-0.076,-1.609,-0.347,-0.475,73.32,137.6,40.499146,-3.377141,600.4,4,5,235.9,0.352
74.56,1,0.011,-0.306,-0.067,-0.003,-0.334,-0.078,-1.609,-0.348,-0.476,73.32,137.6,40.499146,-3.377141,600.4,4,5,235.9,0.352
74.67,1,0.002,-0.333,-0.086,-0.002,-0.325,-0.072,-1.607,-0.347,-0.477,74.35,138.8,40.498951,-3.377515,601.0,3,5,236.6,0.703
74.76,1,-0.04,-0.358,-0.105,-0.015,-0.336,-0.091,-1.606,-0.345,-0.477,74.35,138.8,40.498951,-3.377515,601.0,3,5,236.6,0.703
74.86,1,-0.11,-0.382,-0.123,-0.056,-0.367,-0.107,-1.605,-0.346,-0.477,74.35,138.8,40.498951,-3.377515,601.0,3,5,236.6,0.703
74.96,1,-0.171,-0.35,-0.108,-0.125,-0.362,-0.112,-1.606,-0.348,-0.478,74.35,138.8,40.498951,-3.377515,601.0,3,5,236.6,0.703
75.06,1,-0.155,-0.341,-0.061,-0.146,-0.349,-0.089,-1.607,-0.349,-0.478,74.35,138.8,40.498951,-3.377515,601.0,3,5,236.6,0.703
75.16,1,-0.013,-0.36,-0.099,-0.087,-0.35,-0.088,-1.608,-0.349,-0.478,74.35,138.8,40.498951,-3.377515,601.0,3,5,236.6,0.703
75.26,1,-0.004,-0.365,-0.11,-0.035,-0.358,-0.1,-1.608,-0.348,-0.478,74.35,138.8,40.498951,-3.377515,601.0,3,5,236.6,0.703
75.37,1,-0.044,-0.375,-0.092,-0.029,-0.369,-0.1,-1.608,-0.35,-0.479,74.35,138.8,40.498951,-3.377515,601.0,3,5,236.6,0.703
75.47,1,-0.135,-0.356,-0.102,-0.074,-0.366,-0.099,-1.608,-0.352,-0.48,74.35,138.8,40.498951,-3.377515,601.0,3,5,236.6,0.703
75.56,1,-0.123,-0.334,-0.081,-0.119,-0.349,-0.094,-1.608,-0.353,-0.48,74.35,138.8,40.498951,-3.377515,601.0,3,5,236.6,0.703
75.66,1,-0.04,-0.341,-0.079,-0.089,-0.344,-0.081,-1.608,-0.353,-0.481,75.32,138.3,40.498756,-3.377902,600.8,3,5,236.2,0.352
75.76,1,0.026,-0.34,-0.1,-0.028,-0.342,-0.089,-1.607,-0.352,-0.481,75.32,138.3,40.498756,-3.377902,600.8,3,5,236.2,0.352
75.86,1,-0.047,-0.369,-0.119,-0.014,-0.348,-0.102,-1.607,-0.351,-0.481,75.32,138.3,40.498756,-3.377902,600.8,3,5,236.2,0.352
75.96,1,-0.063,-0.386,-0.081,-0.047,-0.37,-0.099,-1.606,-0.351,-0.481,75.32,138.3,40.498756,-3.377902,600.8,3,5,236.2,0.352
76.06,1,-0.033,-0.365,-0.1,-0.046,-0.375,-0.096,-1.606,-0.352,-0.482,75.32,138.3,40.498756,-3.377902,600.8,3,5,236.2,0.352
76.16,1,-0.011,-0.349,-0.091,-0.032,-0.363,-0.097,-1.605,-0.353,-0.482,75.32,138.3,40.498756,-3.377902,600.8,3,5,236.2,0.352
76.26,1,-0.103,-0.346,-0.129,-0.052,-0.349,-0.106,-1.604,-0.351,-0.481,75.32,138.3,40.498756,-3.377902,600.8,3,5,236.2,0.352
76.37,1,-0.114,-0.38,-0.11,-0.097,-0.362,-0.114,-1.605,-0.35,-0.481,75.32,138.3,40.498756,-3.377902,600.8,3,5,236.2,0.352
76.46,1,-0.083,-0.358,-0.096,-0.09,-0.368,-0.104,-1.605,-0.351,-0.482,75.32,138.3,40.498756,-3.377902,600.8,3,5,236.2,0.352
76.57,1,-0.027,-0.326,-0.109,-0.063,-0.349,-0.107,-1.605,-0.35,-0.482,75.32,138.3,40.498756,-3.377902,600.8,3,5,236.2,0.352
76.68,1,-0.06,-0.344,-0.097,-0.054,-0.336,-0.104,-1.604,-0.349,-0.483,76.33,137.3,40.498569,-3.378273,600.6,3,5,236.6,0.352
76.76,1,-0.057,-0.358,-0.09,-0.052,-0.35,-0.092,-1.603,-0.349,-0.483,76.33,137.3,40.498569,-3.378273,600.6,3,5,236.6,0.352
76.86,1,-0.065,-0.361,-0.119,-0.062,-0.355,-0.106,-1.603,-0.349,-0.484,76.33,137.3,40.498569,-3.378273,600.6,3,5,236.6,0.352
76.96,1,-0.084,-0.364,-0.09,-0.077,-0.359,-0.102,-1.604,-0.349,-0.484,76.33,137.3,40.498569,-3.378273,600.6,3,5,236.6,0.352
77.07,1,-0.057,-0.369,-0.086,-0.076,-0.363,-0.094,-1.604,-0.349,-0.484,76.33,137.3,40.498569,-3.378273,600.6,3,5,236.6,0.352
77.16,1,-0.067,-0.374,-0.092,-0.053,-0.372,-0.088,-1.605,-0.35,-0.484,76.33,137.3,40.498569,-3.378273,600.6,3,5,236.6,0.352
77.26,1,-0.184,-0.344,-0.101,-0.107,-0.362,-0.096,-1.606,-0.352,-0.484,76.33,137.3,40.498569,-3.378273,600.6,3,5,236.6,0.352
77.36,1,-0.136,-0.346,-0.073,-0.145,-0.348,-0.089,-1.608,-0.352,-0.484,76.33,137.3,40.498569,-3.378273,600.6,3,5,236.6,0.352
77.46,1,-0.121,-0.41,-0.1,-0.127,-0.372,-0.092,-1.608,-0.349,-0.483,76.33,137.3,40.498569,-3.378273,600.6,3,5,236.6,0.352
77.56,1,0.001,-0.412,-0.054,-0.075,-0.402,-0.07,-1.608,-0.347,-0.483,76.33,137.3,40.498569,-3.378273,600.6,3,5,236.6,0.352
77.67,1,-0.013,-0.386,-0.078,-0.035,-0.399,-0.072,-1.607,-0.347,-0.483,77.34,136.6,40.498379,-3.378644,601.7,3,5,236.2,0.352
77.78,1,-0.017,-0.363,-0.096,-0.022,-0.381,-0.086,-1.606,-0.347,-0.484,77.34,136.6,40.498379,-3.378644,601.7,3,5,236.2,0.352
77.88,1,-0.055,-0.36,-0.092,-0.03,-0.365,-0.091,-1.606,-0.346,-0.484,77.34,136.6,40.498379,-3.378644,601.7,3,5,236.2,0.352
77.97,1,-0.098,-0.397,-0.084,-0.067,-0.378,-0.089,-1.606,-0.345,-0.483,77.34,136.6,40.498379,-3.378644,601.7,3,5,236.2,0.352
78.07,1,0.014,-0.362,-0.075,-0.044,-0.375,-0.082,-1.605,-0.346,-0.483,77.34,136.6,40.498379,-3.378644,601.7,3,5,236.2,0.352
78.17,1,-0.022,-0.352,-0.098,-0.017,-0.365,-0.085,-1.603,-0.345,-0.483,77.34,136.6,40.498379,-3.378644,601.7,3,5,236.2,0.352
78.27,1,-0.045,-0.373,-0.096,-0.029,-0.363,-0.093,-1.603,-0.346,-0.483,77.34,136.6,40.498379,-3.378644,601.7,3,5,236.2,0.352
78.37,1,-0.104,-0.346,-0.08,-0.061,-0.362,-0.086,-1.603,-0.348,-0.484,77.34,136.6,40.498379,-3.378644,601.7,3,5,236.2,0.352
78.48,1,-0.137,-0.347,-0.091,-0.107,-0.349,-0.09,-1.604,-0.349,-0.484,77.34,136.6,40.498379,-3.378644,601.7,3,5,236.2,0.352
78.57,1,-0.082,-0.362,-0.081,-0.103,-0.354,-0.085,-1.604,-0.349,-0.484,77.34,136.6,40.498379,-3.378644,601.7,3,5,236.2,0.352
78.67,1,-0.042,-0.388,-0.099,-0.074,-0.369,-0.093,-1.604,-0.348,-0.484,78.32,135.3,40.498184,-3.379008,600.1,3,5,236.2,0.352
78.77,1,-0.044,-0.37,-0.07,-0.051,-0.373,-0.084,-1.603,-0.347,-0.484,78.32,135.3,40.498184,-3.379008,600.1,3,5,236.2,0.352
78.87,1,-0.071,-0.38,-0.088,-0.06,-0.379,-0.083,-1.603,-0.347,-0.484,78.32,135.3,40.498184,-3.379008,600.1,3,5,236.2,0.352
78.97,1,-0.135,-0.356,-0.086,-0.09,-0.369,-0.081,-1.603,-0.348,-0.484,78.32,135.3,40.498184,-3.379008,600.1,3,5,236.2,0.352
79.07,1,-0.027,-0.362,-0.069,-0.085,-0.362,-0.08,-1.604,-0.347,-0.484,78.32,135.3,40.498184,-3.379008,600.1,3,5,236.2,0.352
79.17,1,-0.083,-0.366,-0.072,-0.062,-0.365,-0.074,-1.605,-0.345,-0.483,78.32,135.3,40.498184,-3.379008,600.1,3,5,236.2,0.352
79.27,1,-0.05,-0.346,-0.054,-0.07,-0.358,-0.066,-1.605,-0.345,-0.484,78.32,135.3,40.498184,-3.379008,600.1,3,5,236.2,0.352
79.37,1,-0.022,-0.338,-0.074,-0.047,-0.347,-0.065,-1.604,-0.345,-0.485,78.32,135.3,40.498184,-3.379008,600.1,3,5,236.2,0.352
79.48,1,-0.026,-0.331,-0.051,-0.025,-0.342,-0.061,-1.604,-0.346,-0.485,78.32,135.3,40.498184,-3.379008,600.1,3,5,236.2,0.352
79.58,1,-0.075,-0.328,-0.076,-0.044,-0.33,-0.065,-1.604,-0.346,-0.486,78.32,135.3,40.498184,-3.379008,600.1,3,5,236.2,0.352
79.68,1,-0.113,-0.349,-0.066,-0.08,-0.337,-0.069,-1.604,-0.345,-0.486,79.32,134.7,40.497993,-3.379374,600.3,3,5,236.2,0.0
79.77,1,-0.126,-0.358,-0.068,-0.107,-0.348,-0.067,-1.605,-0.344,-0.486,79.32,134.7,40.497993,-3.379374,600.3,3,5,236.2,0.0
79.87,1,-0.144,-0.393,-0.053,-0.133,-0.365,-0.063,-1.605,-0.343,-0.486,79.32,134.7,40.497993,-3.379374,600.3,3,5,236.2,0.0
79.97,1,-0.067,-0.353,-0.074,-0.101,-0.369,-0.065,-1.606,-0.344,-0.486,79.32,134.7,40.497993,-3.379374,600.3,3,5,236.2,0.0
80.07,1,-0.039,-0.366,-0.058,-0.073,-0.368,-0.061,-1.606,-0.344,-0.486,79.32,134.7,40.497993,-3.379374,600.3,3,5,236.2,0.0
80.17,1,-0.004,-0.363,-0.057,-0.036,-0.366,-0.065,-1.606,-0.344,-0.486,79.32,134.7,40.497993,-3.379374,600.3,3,5,236.2,0.0
80.28,1,-0.008,-0.35,-0.055,-0.016,-0.355,-0.061,-1.605,-0.344,-0.486,79.32,134.7,40.497993,-3.379374,600.3,3,5,236.2,0.0
80.37,1,-0.081,-0.365,-0.066,-0.033,-0.358,-0.055,-1.604,-0.343,-0.485,79.32,134.7,40.497993,-3.379374,600.3,3,5,236.2,0.0
80.47,1,-0.034,-0.401,-0.062,-0.056,-0.38,-0.065,-1.604,-0.343,-0.485,79.32,134.7,40.497993,-3.379374,600.3,3,5,236.2,0.0
80.57,1,-0.116,-0.377,-0.053,-0.074,-0.381,-0.054,-1.604,-0.345,-0.485,79.32,134.7,40.497993,-3.379374,600.3,3,5,236.2,0.0
80.67,1,-0.073,-0.367,-0.068,-0.081,-0.375,-0.063,-1.604,-0.345,-0.485,80.39,134.1,40.49781,-3.379738,599.6,3,5,236.2,0.0
80.77,1,-0.097,-0.368,-0.086,-0.089,-0.37,-0.074,-1.604,-0.345,-0.485,80.39,134.1,40.49781,-3.379738,599.6,3,5,236.2,0.0
80.87,1,-0.049,-0.38,-0.079,-0.077,-0.371,-0.079,-1.604,-0.345,-0.484,80.39,134.1,40.49781,-3.379738,599.6,3,5,236.2,0.0
80.97,1,-0.039,-0.382,-0.1,-0.047,-0.382,-0.085,-1.604,-0.345,-0.484,80.39,134.1,40.49781,-3.379738,599.6,3,5,236.2,0.0
81.07,1,-0.054,-0.395,-0.101,-0.048,-0.385,-0.098,-1.603,-0.346,-0.483,80.39,134.1,40.49781,-3.379738,599.6,3,5,236.2,0.0
81.17,1,-0.113,-0.387,-0.09,-0.078,-0.389,-0.097,-1.603,-0.345,-0.482,80.39,134.1,40.49781,-3.379738,599.6,3,5,236.2,0.0
81.27,1,-0.141,-0.407,-0.111,-0.102,-0.396,-0.094,-1.602,-0.344,-0.481,80.39,134.1,40.49781,-3.379738,599.6,3,5,236.2,0.0
81.38,1,-0.079,-0.404,-0.107,-0.11,-0.408,-0.108,-1.602,-0.343,-0.48,80.39,134.1,40.49781,-3.379738,599.6,3,5,236.2,0.0
81.47,1,-0.062,-0.379,-0.096,-0.083,-0.391,-0.106,-1.602,-0.344,-0.479,80.39,134.1,40.49781,-3.379738,599.6,3,5,236.2,0.0
81.58,1,-0.043,-0.374,-0.088,-0.064,-0.382,-0.095,-1.602,-0.345,-0.479,80.39,134.1,40.49781,-3.379738,599.6,3,5,236.2,0.0
81.68,1,-0.073,-0.317,-0.086,-0.062,-0.357,-0.085,-1.603,-0.346,-0.48,81.33,134.2,40.497623,-3.380107,599.7,3,5,236.2,0.0
81.78,1,-0.111,-0.324,-0.12,-0.088,-0.329,-0.105,-1.603,-0.345,-0.48,81.33,134.2,40.497623,-3.380107,599.7,3,5,236.2,0.0
81.88,1,-0.056,-0.355,-0.074,-0.088,-0.343,-0.092,-1.603,-0.344,-0.48,81.33,134.2,40.497623,-3.380107,599.7,3,5,236.2,0.0
81.98,1,-0.004,-0.342,-0.075,-0.031,-0.344,-0.077,-1.603,-0.344,-0.481,81.33,134.2,40.497623,-3.380107,599.7,3,5,236.2,0.0
82.08,1,-0.043,-0.331,-0.044,-0.034,-0.338,-0.066,-1.604,-0.345,-0.482,81.33,134.2,40.497623,-3.380107,599.7,3,5,236.2,0.0
82.19,1,-0.047,-0.327,-0.063,-0.045,-0.332,-0.065,-1.604,-0.346,-0.483,81.33,134.2,40.497623,-3.380107,599.7,3,5,236.2,0.0
82.29,1,-0.061,-0.336,-0.056,-0.047,-0.328,-0.059,-1.604,-0.346,-0.483,81.33,134.2,40.497623,-3.380107,599.7,3,5,236.2,0.0
82.38,1,-0.087,-0.374,-0.053,-0.064,-0.348,-0.057,-1.604,-0.345,-0.483,81.33,134.2,40.497623,-3.380107,599.7,3,5,236.2,0.0
82.48,1,-0.089,-0.368,-0.051,-0.083,-0.364,-0.051,-1.604,-0.345,-0.484,81.33,134.2,40.497623,-3.380107,599.7,3,5,236.2,0.0
82.58,1,-0.083,-0.365,-0.058,-0.079,-0.367,-0.048,-1.605,-0.346,-0.484,81.33,134.2,40.497623,-3.380107,599.7,3,5,236.2,0.0
82.68,1,-0.093,-0.354,-0.074,-0.095,-0.357,-0.065,-1.605,-0.346,-0.484,82.35,133.6,40.497437,-3.380469,600.1,3,5,236.2,0.0
82.78,1,-0.1,-0.366,-0.058,-0.087,-0.361,-0.067,-1.606,-0.348,-0.485,82.35,133.6,40.497437,-3.380469,600.1,3,5,236.2,0.0
82.88,1,-0.138,-0.326,-0.056,-0.114,-0.35,-0.056,-1.606,-0.35,-0.486,82.35,133.6,40.497437,-3.380469,600.1,3,5,236.2,0.0
82.98,1,-0.086,-0.336,-0.063,-0.114,-0.339,-0.061,-1.606,-0.35,-0.486,82.35,133.6,40.497437,-3.380469,600.1,3,5,236.2,0.0
83.08,1,0.001,-0.339,-0.034,-0.053,-0.337,-0.051,-1.607,-0.349,-0.486,82.35,133.6,40.497437,-3.380469,600.1,3,5,236.2,0.0
83.18,1,-0.115,-0.34,-0.066,-0.072,-0.337,-0.054,-1.608,-0.349,-0.487,82.35,133.6,40.497437,-3.380469,600.1,3,5,236.2,0.0
83.28,1,-0.105,-0.355,-0.05,-0.099,-0.348,-0.056,-1.609,-0.348,-0.487,82.35,133.6,40.497437,-3.380469,600.1,3,5,236.2,0.0
83.38,1,-0.047,-0.349,-0.022,-0.076,-0.347,-0.041,-1.61,-0.348,-0.487,82.35,133.6,40.497437,-3.380469,600.1,3,5,236.2,0.0
83.48,1,-0.007,-0.38,-0.018,-0.044,-0.361,-0.027,-1.609,-0.347,-0.487,82.35,133.6,40.497437,-3.380469,600.1,3,5,236.2,0.0
83.58,1,-0.017,-0.367,-0.035,-0.019,-0.372,-0.026,-1.609,-0.349,-0.488,82.35,133.6,40.497437,-3.380469,600.1,3,5,236.2,0.0
83.68,1,-0.033,-0.337,-0.036,-0.027,-0.358,-0.036,-1.609,-0.351,-0.489,83.36,133.4,40.497238,-3.380833,602.6,3,5,235.9,0.352
83.8,1,-0.145,-0.311,-0.042,-0.071,-0.334,-0.038,-1.609,-0.351,-0.488,83.36,133.4,40.497238,-3.380833,602.6,3,5,235.9,0.352
83.88,1,-0.128,-0.342,-0.039,-0.125,-0.326,-0.043,-1.61,-0.349,-0.488,83.36,133.4,40.497238,-3.380833,602.6,3,5,235.9,0.352
83.98,1,-0.111,-0.372,-0.038,-0.112,-0.347,-0.035,-1.611,-0.347,-0.488,83.36,133.4,40.497238,-3.380833,602.6,3,5,235.9,0.352
84.09,1,-0.08,-0.379,-0.025,-0.099,-0.371,-0.033,-1.612,-0.347,-0.489,83.36,133.4,40.497238,-3.380833,602.6,3,5,235.9,0.352
84.19,1,0.012,-0.341,-0.027,-0.056,-0.36,-0.028,-1.612,-0.348,-0.489,83.36,133.4,40.497238,-3.380833,602.6,3,5,235.9,0.352
84.28,1,-0.055,-0.358,-0.025,-0.038,-0.355,-0.029,-1.612,-0.347,-0.489,83.36,133.4,40.497238,-3.380833,602.6,3,5,235.9,0.352
84.38,1,-0.041,-0.378,-0.029,-0.038,-0.368,-0.022,-1.613,-0.347,-0.489,83.36,133.4,40.497238,-3.380833,602.6,3,5,235.9,0.352
84.48,1,-0.026,-0.352,-0.043,-0.038,-0.363,-0.034,-1.613,-0.346,-0.489,83.36,133.4,40.497238,-3.380833,602.6,3,5,235.9,0.352
84.58,1,-0.079,-0.352,-0.044,-0.049,-0.356,-0.038,-1.613,-0.346,-0.489,83.36,133.4,40.497238,-3.380833,602.6,3,5,235.9,0.352
84.69,1,-0.065,-0.341,-0.038,-0.063,-0.345,-0.043,-1.612,-0.346,-0.489,84.33,133.7,40.497044,-3.381193,599.6,3,5,235.9,0.352
84.78,1,0.009,-0.375,-0.027,-0.03,-0.356,-0.033,-1.612,-0.344,-0.489,84.33,133.7,40.497044,-3.381193,599.6,3,5,235.9,0.352
84.88,1,-0.052,-0.357,-0.022,-0.027,-0.362,-0.026,-1.612,-0.344,-0.489,84.33,133.7,40.497044,-3.381193,599.6,3,5,235.9,0.352
84.98,1,-0.116,-0.387,-0.053,-0.073,-0.372,-0.039,-1.612,-0.343,-0.488,84.33,133.7,40.497044,-3.381193,599.6,3,5,235.9,0.352
85.09,1,-0.103,-0.385,-0.032,-0.093,-0.377,-0.038,-1.613,-0.343,-0.488,84.33,133.7,40.497044,-3.381193,599.6,3,5,235.9,0.352
85.19,1,-0.113,-0.386,-0.032,-0.102,-0.388,-0.033,-1.614,-0.344,-0.489,84.33,133.7,40.497044,-3.381193,599.6,3,5,235.9,0.352
85.29,1,-0.09,-0.318,-0.029,-0.108,-0.356,-0.039,-1.615,-0.346,-0.489,84.33,133.7,40.497044,-3.381193,599.6,3,5,235.9,0.352
85.39,1,-0.046,-0.356,-0.059,-0.067,-0.344,-0.039,-1.615,-0.345,-0.489,84.33,133.7,40.497044,-3.381193,599.6,3,5,235.9,0.352
85.48,1,-0.041,-0.37,-0.024,-0.061,-0.36,-0.04,-1.615,-0.345,-0.489,84.33,133.7,40.497044,-3.381193,599.6,3,5,235.9,0.352
85.59,1,-0.058,-0.36,-0.023,-0.049,-0.364,-0.024,-1.615,-0.345,-0.489,84.33,133.7,40.497044,-3.381193,599.6,3,5,235.9,0.352
85.69,1,-0.037,-0.37,-0.036,-0.046,-0.36,-0.026,-1.614,-0.345,-0.488,85.33,135.0,40.496861,-3.381555,599.3,3,5,236.2,0.352
85.79,1,-0.078,-0.384,-0.015,-0.057,-0.376,-0.031,-1.615,-0.346,-0.488,85.33,135.0,40.496861,-3.381555,599.3,3,5,236.2,0.352
85.9,1,-0.107,-0.374,-0.017,-0.086,-0.376,-0.016,-1.615,-0.346,-0.487,85.33,135.0,40.496861,-3.381555,599.3,3,5,236.2,0.352
85.99,1,-0.082,-0.386,-0.022,-0.084,-0.379,-0.022,-1.614,-0.346,-0.487,85.33,135.0,40.496861,-3.381555,599.3,3,5,236.2,0.352
86.09,1,-0.044,-0.379,-0.006,-0.072,-0.38,-0.018,-1.614,-0.346,-0.486,85.33,135.0,40.496861,-3.381555,599.3,3,5,236.2,0.352
86.19,1,-0.1,-0.389,-0.037,-0.073,-0.384,-0.021,-1.615,-0.347,-0.486,85.33,135.0,40.496861,-3.381555,599.3,3,5,236.2,0.352
86.29,1,-0.069,-0.358,-0.043,-0.076,-0.379,-0.034,-1.614,-0.348,-0.486,85.33,135.0,40.496861,-3.381555,599.3,3,5,236.2,0.352
86.39,1,-0.075,-0.341,-0.031,-0.08,-0.36,-0.035,-1.614,-0.349,-0.486,85.33,135.0,40.496861,-3.381555,599.3,3,5,236.2,0.352
86.49,1,-0.094,-0.382,-0.022,-0.079,-0.36,-0.029,-1.615,-0.347,-0.485,85.33,135.0,40.496861,-3.381555,599.3,3,5,236.2,0.352
86.6,1,-0.101,-0.406,0.002,-0.105,-0.388,-0.016,-1.615,-0.346,-0.485,85.33,135.0,40.496861,-3.381555,599.3,3,5,236.2,0.352
86.69,1,-0.082,-0.419,-0.002,-0.082,-0.405,-0.007,-1.616,-0.347,-0.484,86.34,136.3,40.496677,-3.381935,598.6,3,5,236.2,0.352
86.79,1,-0.087,-0.381,-0.035,-0.093,-0.393,-0.014,-1.615,-0.347,-0.483,86.34,136.3,40.496677,-3.381935,598.6,3,5,236.2,0.352
86.92,1,-0.142,-0.423,-0.033,-0.098,-0.403,-0.023,-1.616,-0.347,-0.482,86.34,136.3,40.496677,-3.381935,598.6,3,5,236.2,0.352
87.0,1,-0.122,-0.391,-0.04,-0.13,-0.407,-0.038,-1.616,-0.348,-0.482,86.34,136.3,40.496677,-3.381935,598.6,3,5,236.2,0.352
87.09,1,-0.09,-0.416,-0.012,-0.123,-0.404,-0.032,-1.616,-0.35,-0.481,86.34,136.3,40.496677,-3.381935,598.6,3,5,236.2,0.352
87.19,1,-0.083,-0.345,-0.044,-0.088,-0.384,-0.023,-1.614,-0.351,-0.481,86.34,136.3,40.496677,-3.381935,598.6,3,5,236.2,0.352
87.29,1,-0.021,-0.361,-0.029,-0.062,-0.362,-0.033,-1.612,-0.35,-0.48,86.34,136.3,40.496677,-3.381935,598.6,3,5,236.2,0.352
87.39,1,-0.022,-0.389,-0.021,-0.033,-0.373,-0.031,-1.612,-0.349,-0.48,86.34,136.3,40.496677,-3.381935,598.6,3,5,236.2,0.352
87.49,1,-0.08,-0.379,-0.068,-0.04,-0.382,-0.043,-1.612,-0.349,-0.479,86.34,136.3,40.496677,-3.381935,598.6,3,5,236.2,0.352
87.59,1,-0.094,-0.387,-0.025,-0.089,-0.383,-0.041,-1.612,-0.349,-0.479,86.34,136.3,40.496677,-3.381935,598.6,3,5,236.2,0.352
87.69,1,-0.102,-0.379,-0.042,-0.081,-0.386,-0.032,-1.612,-0.349,-0.479,87.37,137.6,40.496483,-3.382303,599.0,3,5,235.9,0.352
87.8,1,-0.16,-0.391,-0.055,-0.121,-0.382,-0.045,-1.612,-0.348,-0.478,87.37,137.6,40.496483,-3.382303,599.0,3,5,235.9,0.352
87.89,1,-0.05,-0.391,-0.045,-0.109,-0.388,-0.047,-1.611,-0.347,-0.478,87.37,137.6,40.496483,-3.382303,599.0,3,5,235.9,0.352
87.99,1,0.02,-0.378,-0.044,-0.026,-0.389,-0.048,-1.612,-0.346,-0.478,87.37,137.6,40.496483,-3.382303,599.0,3,5,235.9,0.352
88.09,1,-0.043,-0.387,-0.069,-0.031,-0.384,-0.055,-1.611,-0.347,-0.478,87.37,137.6,40.496483,-3.382303,599.0,3,5,235.9,0.352
88.2,1,-0.059,-0.399,-0.07,-0.045,-0.388,-0.062,-1.61,-0.347,-0.477,87.37,137.6,40.496483,-3.382303,599.0,3,5,235.9,0.352
88.3,1,-0.121,-0.417,-0.063,-0.082,-0.404,-0.061,-1.61,-0.348,-0.476,87.37,137.6,40.496483,-3.382303,599.0,3,5,235.9,0.352
88.4,1,-0.133,-0.403,-0.082,-0.113,-0.408,-0.075,-1.609,-0.349,-0.475,87.37,137.6,40.496483,-3.382303,599.0,3,5,235.9,0.352
88.49,1,-0.07,-0.411,-0.059,-0.098,-0.405,-0.068,-1.609,-0.35,-0.474,87.37,137.6,40.496483,-3.382303,599.0,3,5,235.9,0.352
88.6,1,-0.131,-0.446,-0.086,-0.101,-0.424,-0.072,-1.609,-0.349,-0.472,87.37,137.6,40.496483,-3.382303,599.0,3,5,235.9,0.352
88.69,1,-0.082,-0.45,-0.075,-0.108,-0.441,-0.073,-1.608,-0.351,-0.471,88.34,139.2,40.496288,-3.38268,598.8,3,5,235.5,0.703
88.8,1,0.017,-0.41,-0.072,-0.048,-0.431,-0.077,-1.607,-0.352,-0.47,88.34,139.2,40.496288,-3.38268,598.8,3,5,235.5,0.703
88.89,1,-0.049,-0.412,-0.077,-0.024,-0.418,-0.073,-1.607,-0.352,-0.47,88.34,139.2,40.496288,-3.38268,598.8,3,5,235.5,0.703
89.0,1,-0.124,-0.429,-0.08,-0.073,-0.419,-0.079,-1.607,-0.353,-0.468,88.34,139.2,40.496288,-3.38268,598.8,3,5,235.5,0.703
89.09,1,-0.134,-0.417,-0.082,-0.108,-0.421,-0.081,-1.606,-0.356,-0.467,88.34,139.2,40.496288,-3.38268,598.8,3,5,235.5,0.703
89.19,1,-0.072,-0.398,-0.085,-0.11,-0.41,-0.085,-1.606,-0.357,-0.466,88.34,139.2,40.496288,-3.38268,598.8,3,5,235.5,0.703
89.3,1,-0.053,-0.392,-0.075,-0.074,-0.4,-0.082,-1.606,-0.357,-0.465,88.34,139.2,40.496288,-3.38268,598.8,3,5,235.5,0.703
89.4,1,-0.118,-0.392,-0.084,-0.091,-0.396,-0.084,-1.606,-0.357,-0.464,88.34,139.2,40.496288,-3.38268,598.8,3,5,235.5,0.703
89.5,1,-0.07,-0.407,-0.084,-0.095,-0.4,-0.088,-1.606,-0.357,-0.463,88.34,139.2,40.496288,-3.38268,598.8,3,5,235.5,0.703
89.6,1,-0.085,-0.398,-0.095,-0.076,-0.401,-0.08,-1.605,-0.358,-0.463,88.34,139.2,40.496288,-3.38268,598.8,3,5,235.5,0.703
89.71,1,-0.103,-0.401,-0.092,-0.094,-0.4,-0.089,-1.605,-0.358,-0.462,89.35,139.6,40.49609,-3.383054,599.4,3,5,235.5,0.352
89.81,1,0.008,-0.389,-0.065,-0.054,-0.394,-0.084,-1.605,-0.358,-0.462,89.35,139.6,40.49609,-3.383054,599.4,3,5,235.5,0.352
89.9,1,-0.008,-0.426,-0.083,-0.016,-0.405,-0.073,-1.603,-0.359,-0.461,89.35,139.6,40.49609,-3.383054,599.4,3,5,235.5,0.352
90.0,1,-0.053,-0.377,-0.109,-0.021,-0.4,-0.093,-1.602,-0.36,-0.461,89.35,139.6,40.49609,-3.383054,599.4,3,5,235.5,0.352
90.1,1,-0.106,-0.376,-0.08,-0.077,-0.38,-0.094,-1.601,-0.358,-0.46,89.35,139.6,40.49609,-3.383054,599.4,3,5,235.5,0.352
90.2,1,-0.066,-0.393,-0.079,-0.085,-0.39,-0.089,-1.601,-0.357,-0.459,89.35,139.6,40.49609,-3.383054,599.4,3,5,235.5,0.352
90.3,1,-0.048,-0.369,-0.087,-0.05,-0.384,-0.076,-1.602,-0.357,-0.46,89.35,139.6,40.49609,-3.383054,599.4,3,5,235.5,0.352
90.4,1,-0.122,-0.358,-0.097,-0.082,-0.369,-0.086,-1.602,-0.358,-0.461,89.35,139.6,40.49609,-3.383054,599.4,3,5,235.5,0.352
90.5,1,-0.123,-0.363,-0.075,-0.112,-0.366,-0.086,-1.603,-0.36,-0.463,89.35,139.6,40.49609,-3.383054,599.4,3,5,235.5,0.352
90.6,1,-0.067,-0.331,-0.086,-0.095,-0.351,-0.083,-1.604,-0.362,-0.464,89.35,139.6,40.49609,-3.383054,599.4,3,5,235.5,0.352
90.71,1,-0.059,-0.344,-0.096,-0.072,-0.342,-0.092,-1.604,-0.362,-0.465,90.31,138.8,40.495888,-3.383423,599.6,3,5,234.5,1.055
90.8,1,-0.068,-0.35,-0.073,-0.065,-0.346,-0.085,-1.604,-0.361,-0.465,90.31,138.8,40.495888,-3.383423,599.6,3,5,234.5,1.055
90.91,1,-0.042,-0.36,-0.082,-0.061,-0.353,-0.079,-1.603,-0.36,-0.466,90.31,138.8,40.495888,-3.383423,599.6,3,5,234.5,1.055
91.01,1,-0.062,-0.355,-0.091,-0.056,-0.353,-0.085,-1.602,-0.359,-0.466,90.31,138.8,40.495888,-3.383423,599.6,3,5,234.5,1.055
91.1,1,-0.045,-0.372,-0.099,-0.054,-0.361,-0.094,-1.602,-0.357,-0.466,90.31,138.8,40.495888,-3.383423,599.6,3,5,234.5,1.055
91.2,1,-0.066,-0.372,-0.102,-0.055,-0.369,-0.1,-1.602,-0.357,-0.467,90.31,138.8,40.495888,-3.383423,599.6,3,5,234.5,1.055
91.3,1,-0.087,-0.348,-0.07,-0.074,-0.361,-0.088,-1.602,-0.357,-0.467,90.31,138.8,40.495888,-3.383423,599.6,3,5,234.5,1.055
91.4,1,-0.069,-0.347,-0.084,-0.067,-0.354,-0.079,-1.602,-0.358,-0.468,90.31,138.8,40.495888,-3.383423,599.6,3,5,234.5,1.055
91.51,1,-0.091,-0.372,-0.093,-0.077,-0.36,-0.088,-1.602,-0.359,-0.468,90.31,138.8,40.495888,-3.383423,599.6,3,5,234.5,1.055
91.6,1,-0.092,-0.351,-0.094,-0.095,-0.36,-0.091,-1.602,-0.359,-0.468,90.31,138.8,40.495888,-3.383423,599.6,3,5,234.5,1.055
91.7,1,-0.098,-0.365,-0.084,-0.091,-0.358,-0.085,-1.602,-0.358,-0.469,91.33,137.8,40.495689,-3.383779,598.4,3,5,234.1,1.406
91.8,1,-0.084,-0.372,-0.095,-0.093,-0.368,-0.092,-1.602,-0.357,-0.469,91.33,137.8,40.495689,-3.383779,598.4,3,5,234.1,1.406
91.9,1,-0.08,-0.393,-0.096,-0.087,-0.376,-0.095,-1.602,-0.359,-0.47,91.33,137.8,40.495689,-3.383779,598.4,3,5,234.1,1.406
92.0,1,-0.081,-0.361,-0.098,-0.081,-0.372,-0.095,-1.601,-0.361,-0.47,91.33,137.8,40.495689,-3.383779,598.4,3,5,234.1,1.406
92.1,1,-0.02,-0.377,-0.096,-0.057,-0.372,-0.098,-1.6,-0.361,-0.47,91.33,137.8,40.495689,-3.383779,598.4,3,5,234.1,1.406
92.24,1,-0.055,-0.366,-0.051,-0.036,-0.37,-0.078,-1.599,-0.361,-0.468,91.33,137.8,40.495689,-3.383779,598.4,3,5,234.1,1.406
92.3,1,-0.095,-0.392,-0.081,-0.078,-0.38,-0.069,-1.599,-0.361,-0.467,91.33,137.8,40.495689,-3.383779,598.4,3,5,234.1,1.406
92.4,1,-0.087,-0.393,-0.086,-0.083,-0.389,-0.084,-1.599,-0.36,-0.467,91.33,137.8,40.495689,-3.383779,598.4,3,5,234.1,1.406
92.5,1,-0.087,-0.394,-0.094,-0.083,-0.39,-0.083,-1.599,-0.358,-0.466,91.33,137.8,40.495689,-3.383779,598.4,3,5,234.1,1.406
92.61,1,-0.06,-0.405,-0.087,-0.075,-0.401,-0.09,-1.598,-0.358,-0.465,91.33,137.8,40.495689,-3.383779,598.4,3,5,234.1,1.406
92.71,1,-0.061,-0.367,-0.091,-0.068,-0.381,-0.098,-1.598,-0.357,-0.465,92.33,136.3,40.495495,-3.384156,598.5,3,5,234.5,0.352
92.8,1,-0.059,-0.41,-0.071,-0.061,-0.392,-0.077,-1.597,-0.355,-0.464,92.33,136.3,40.495495,-3.384156,598.5,3,5,234.5,0.352
92.9,1,-0.069,-0.397,-0.106,-0.066,-0.4,-0.085,-1.595,-0.355,-0.463,92.33,136.3,40.495495,-3.384156,598.5,3,5,234.5,0.352
93.0,1,-0.051,-0.396,-0.064,-0.051,-0.401,-0.083,-1.595,-0.354,-0.463,92.33,136.3,40.495495,-3.384156,598.5,3,5,234.5,0.352
93.1,1,-0.113,-0.383,-0.093,-0.078,-0.39,-0.082,-1.595,-0.355,-0.463,92.33,136.3,40.495495,-3.384156,598.5,3,5,234.5,0.352
93.21,1,-0.088,-0.406,-0.087,-0.101,-0.394,-0.096,-1.594,-0.355,-0.462,92.33,136.3,40.495495,-3.384156,598.5,3,5,234.5,0.352
93.31,1,-0.047,-0.388,-0.075,-0.071,-0.397,-0.077,-1.595,-0.355,-0.462,92.33,136.3,40.495495,-3.384156,598.5,3,5,234.5,0.352
93.42,1,-0.094,-0.392,-0.101,-0.071,-0.388,-0.09,-1.595,-0.354,-0.461,92.33,136.3,40.495495,-3.384156,598.5,3,5,234.5,0.352
93.51,1,-0.068,-0.411,-0.073,-0.079,-0.405,-0.083,-1.594,-0.352,-0.46,92.33,136.3,40.495495,-3.384156,598.5,3,5,234.5,0.352
93.61,1,-0.024,-0.408,-0.072,-0.054,-0.405,-0.079,-1.593,-0.351,-0.459,92.33,136.3,40.495495,-3.384156,598.5,3,5,234.5,0.352
93.71,1,-0.069,-0.401,-0.088,-0.048,-0.405,-0.079,-1.593,-0.351,-0.458,93.33,136.0,40.4953,-3.38453,598.4,4,5,234.5,0.352
93.81,1,-0.082,-0.413,-0.056,-0.068,-0.403,-0.069,-1.592,-0.351,-0.457,93.33,136.0,40.4953,-3.38453,598.4,4,5,234.5,0.352
93.91,1,-0.096,-0.43,-0.082,-0.086,-0.419,-0.074,-1.591,-0.351,-0.456,93.33,136.0,40.4953,-3.38453,598.4,4,5,234.5,0.352
94.01,1,-0.03,-0.437,-0.043,-0.066,-0.43,-0.064,-1.591,-0.351,-0.454,93.33,136.0,40.4953,-3.38453,598.4,4,5,234.5,0.352
94.11,1,-0.014,-0.412,-0.064,-0.041,-0.424,-0.062,-1.59,-0.351,-0.453,93.33,136.0,40.4953,-3.38453,598.4,4,5,234.5,0.352
94.21,1,-0.015,-0.43,-0.023,-0.018,-0.421,-0.044,-1.59,-0.351,-0.452,93.33,136.0,40.4953,-3.38453,598.4,4,5,234.5,0.352
94.31,1,-0.097,-0.441,-0.046,-0.057,-0.434,-0.039,-1.589,-0.352,-0.451,93.33,136.0,40.4953,-3.38453,598.4,4,5,234.5,0.352
94.41,1,-0.065,-0.467,-0.04,-0.072,-0.446,-0.049,-1.587,-0.354,-0.449,93.33,136.0,40.4953,-3.38453,598.4,4,5,234.5,0.352
94.51,1,0.105,-0.437,-0.03,0.003,-0.453,-0.03,-1.584,-0.356,-0.447,93.33,136.0,40.4953,-3.38453,598.4,4,5,234.5,0.352
94.62,1,-0.002,-0.426,-0.018,0.037,-0.435,-0.026,-1.584,-0.358,-0.446,93.33,136.0,40.4953,-3.38453,598.4,4,5,234.5,0.352
94.71,1,-0.075,-0.432,-0.02,-0.026,-0.43,-0.029,-1.584,-0.36,-0.444,94.3,134.8,40.495102,-3.384893,599.5,3,5,234.1,0.352
94.81,1,-0.133,-0.403,-0.03,-0.077,-0.422,-0.021,-1.584,-0.359,-0.443,94.3,134.8,40.495102,-3.384893,599.5,3,5,234.1,0.352
94.91,1,-0.187,-0.441,-0.04,-0.139,-0.42,-0.03,-1.584,-0.357,-0.441,94.3,134.8,40.495102,-3.384893,599.5,3,5,234.1,0.352
95.01,1,-0.112,-0.429,0.002,-0.144,-0.436,-0.022,-1.585,-0.356,-0.44,94.3,134.8,40.495102,-3.384893,599.5,3,5,234.1,0.352
95.11,1,-0.016,-0.412,-0.005,-0.078,-0.423,-0.013,-1.586,-0.357,-0.44,94.3,134.8,40.495102,-3.384893,599.5,3,5,234.1,0.352
95.22,1,-0.038,-0.381,-0.021,-0.044,-0.404,-0.012,-1.587,-0.359,-0.44,94.3,134.8,40.495102,-3.384893,599.5,3,5,234.1,0.352
95.32,1,-0.099,-0.361,-0.015,-0.067,-0.381,-0.012,-1.587,-0.359,-0.439,94.3,134.8,40.495102,-3.384893,599.5,3,5,234.1,0.352
95.41,1,-0.065,-0.419,-0.009,-0.083,-0.386,-0.011,-1.585,-0.357,-0.438,94.3,134.8,40.495102,-3.384893,599.5,3,5,234.1,0.352
95.51,1,-0.013,-0.429,-0.024,-0.043,-0.413,-0.016,-1.584,-0.355,-0.437,94.3,134.8,40.495102,-3.384893,599.5,3,5,234.1,0.352
95.61,1,-0.039,-0.403,-0.015,-0.033,-0.413,-0.022,-1.583,-0.355,-0.436,94.3,134.8,40.495102,-3.384893,599.5,3,5,234.1,0.352
95.71,1,-0.018,-0.395,-0.019,-0.035,-0.406,-0.016,-1.583,-0.355,-0.436,95.33,133.5,40.494919,-3.385247,598.0,3,5,233.4,1.055
95.81,1,-0.03,-0.412,0.001,-0.02,-0.404,-0.005,-1.581,-0.354,-0.435,95.33,133.5,40.494919,-3.385247,598.0,3,5,233.4,1.055
95.91,1,-0.057,-0.418,-0.02,-0.046,-0.411,-0.013,-1.579,-0.354,-0.434,95.33,133.5,40.494919,-3.385247,598.0,3,5,233.4,1.055
96.01,1,-0.029,-0.419,-0.015,-0.038,-0.414,-0.015,-1.578,-0.353,-0.433,95.33,133.5,40.494919,-3.385247,598.0,3,5,233.4,1.055
96.11,1,-0.04,-0.397,-0.019,-0.033,-0.407,-0.015,-1.578,-0.353,-0.432,95.33,133.5,40.494919,-3.385247,598.0,3,5,233.4,1.055
96.21,1,-0.111,-0.394,-0.02,-0.067,-0.398,-0.021,-1.576,-0.352,-0.43,95.33,133.5,40.494919,-3.385247,598.0,3,5,233.4,1.055
96.31,1,-0.085,-0.415,-0.001,-0.095,-0.407,-0.019,-1.576,-0.35,-0.43,95.33,133.5,40.494919,-3.385247,598.0,3,5,233.4,1.055
96.41,1,-0.006,-0.408,-0.016,-0.048,-0.408,-0.009,-1.576,-0.35,-0.429,95.33,133.5,40.494919,-3.385247,598.0,3,5,233.4,1.055
96.52,1,-0.052,-0.406,-0.033,-0.038,-0.411,-0.019,-1.576,-0.35,-0.429,95.33,133.5,40.494919,-3.385247,598.0,3,5,233.4,1.055
96.62,1,-0.058,-0.407,-0.023,-0.049,-0.405,-0.024,-1.575,-0.351,-0.428,95.33,133.5,40.494919,-3.385247,598.0,3,5,233.4,1.055
96.71,1,-0.047,-0.398,-0.051,-0.049,-0.404,-0.03,-1.574,-0.351,-0.428,96.38,134.3,40.494713,-3.385597,598.8,3,5,231.5,2.616
96.81,1,-0.069,-0.413,-0.053,-0.056,-0.404,-0.046,-1.573,-0.351,-0.427,96.38,134.3,40.494713,-3.385597,598.8,3,5,231.5,2.616
96.91,1,-0.105,-0.414,-0.067,-0.077,-0.415,-0.055,-1.572,-0.35,-0.426,96.38,134.3,40.494713,-3.385597,598.8,3,5,231.5,2.616
97.02,1,-0.113,-0.422,-0.042,-0.099,-0.414,-0.056,-1.571,-0.35,-0.425,96.38,134.3,40.494713,-3.385597,598.8,3,5,231.5,2.616
97.12,1,-0.054,-0.421,-0.071,-0.09,-0.424,-0.056,-1.57,-0.349,-0.424,96.38,134.3,40.494713,-3.385597,598.8,3,5,231.5,2.616
97.22,1,-0.032,-0.397,-0.052,-0.05,-0.41,-0.062,-1.569,-0.35,-0.424,96.38,134.3,40.494713,-3.385597,598.8,3,5,231.5,2.616
97.32,1,-0.082,-0.415,-0.076,-0.065,-0.408,-0.063,-1.57,-0.351,-0.423,96.38,134.3,40.494713,-3.385597,598.8,3,5,231.5,2.616
97.42,1,-0.075,-0.405,-0.076,-0.076,-0.402,-0.072,-1.569,-0.35,-0.422,96.38,134.3,40.494713,-3.385597,598.8,3,5,231.5,2.616
97.52,1,-0.067,-0.455,-0.073,-0.065,-0.427,-0.071,-1.567,-0.349,-0.421,96.38,134.3,40.494713,-3.385597,598.8,3,5,231.5,2.616
97.62,1,0.006,-0.375,-0.077,-0.036,-0.417,-0.071,-1.567,-0.349,-0.42,96.38,134.3,40.494713,-3.385597,598.8,3,5,231.5,2.616
97.72,1,-0.062,-0.423,-0.062,-0.04,-0.41,-0.075,-1.565,-0.35,-0.419,97.31,134.9,40.494507,-3.38595,598.4,3,5,231.5,1.912
97.82,1,-0.059,-0.464,-0.068,-0.059,-0.436,-0.071,-1.565,-0.351,-0.419,97.31,134.9,40.494507,-3.38595,598.4,3,5,231.5,1.912
97.92,1,-0.074,-0.443,-0.064,-0.061,-0.438,-0.068,-1.564,-0.351,-0.418,97.31,134.9,40.494507,-3.38595,598.4,3,5,231.5,1.912
98.02,1,-0.074,-0.411,-0.059,-0.073,-0.431,-0.063,-1.564,-0.352,-0.417,97.31,134.9,40.494507,-3.38595,598.4,3,5,231.5,1.912
98.12,1,-0.063,-0.392,-0.103,-0.06,-0.411,-0.082,-1.564,-0.352,-0.417,97.31,134.9,40.494507,-3.38595,598.4,3,5,231.5,1.912
98.22,1,-0.039,-0.378,-0.089,-0.055,-0.395,-0.078,-1.564,-0.353,-0.417,97.31,134.9,40.494507,-3.38595,598.4,3,5,231.5,1.912
98.32,1,-0.063,-0.399,-0.061,-0.055,-0.393,-0.079,-1.563,-0.353,-0.417,97.31,134.9,40.494507,-3.38595,598.4,3,5,231.5,1.912
98.42,1,-0.12,-0.418,-0.077,-0.079,-0.401,-0.074,-1.563,-0.354,-0.417,97.31,134.9,40.494507,-3.38595,598.4,3,5,231.5,1.912
98.52,1,-0.107,-0.41,-0.06,-0.105,-0.41,-0.072,-1.563,-0.355,-0.417,97.31,134.9,40.494507,-3.38595,598.4,3,5,231.5,1.912
98.62,1,-0.037,-0.399,-0.044,-0.07,-0.404,-0.053,-1.564,-0.356,-0.418,97.31,134.9,40.494507,-3.38595,598.4,3,5,231.5,1.912
98.72,1,-0.067,-0.379,-0.067,-0.06,-0.393,-0.057,-1.564,-0.356,-0.418,98.31,134.6,40.494297,-3.386293,598.6,3,5,231.5,0.0
98.82,1,-0.064,-0.389,-0.055,-0.076,-0.385,-0.059,-1.564,-0.355,-0.418,98.31,134.6,40.494297,-3.386293,598.6,3,5,231.5,0.0
98.93,1,-0.059,-0.406,-0.033,-0.055,-0.399,-0.051,-1.564,-0.354,-0.418,98.31,134.6,40.494297,-3.386293,598.6,3,5,231.5,0.0
99.03,1,-0.111,-0.402,-0.032,-0.081,-0.4,-0.039,-1.565,-0.352,-0.417,98.31,134.6,40.494297,-3.386293,598.6,3,5,231.5,0.0
99.12,1,-0.082,-0.433,-0.03,-0.092,-0.418,-0.03,-1.566,-0.352,-0.417,98.31,134.6,40.494297,-3.386293,598.6,3,5,231.5,0.0
99.22,1,-0.046,-0.398,0.018,-0.076,-0.412,-0.013,-1.567,-0.353,-0.417,98.31,134.6,40.494297,-3.386293,598.6,3,5,231.5,0.0
99.32,1,-0.053,-0.402,-0.002,-0.06,-0.407,0.0,-1.567,-0.354,-0.417,98.31,134.6,40.494297,-3.386293,598.6,3,5,231.5,0.0
99.42,1,-0.027,-0.435,0.009,-0.039,-0.413,-0.002,-1.566,-0.353,-0.417,98.31,134.6,40.494297,-3.386293,598.6,3,5,231.5,0.0
99.52,1,-0.046,-0.421,0.024,-0.036,-0.425,0.016,-1.566,-0.354,-0.416,98.31,134.6,40.494297,-3.386293,598.6,3,5,231.5,0.0
99.63,1,-0.076,-0.391,0.004,-0.062,-0.411,0.009,-1.566,-0.355,-0.416,98.31,134.6,40.494297,-3.386293,598.6,3,5,231.5,0.0
99.72,1,-0.046,-0.384,0.027,-0.058,-0.39,0.013,-1.565,-0.353,-0.416,99.31,133.0,40.494091,-3.386627,598.1,4,5,230.4,1.122
99.82,1,-0.074,-0.413,0.019,-0.06,-0.399,0.027,-1.564,-0.35,-0.415,99.31,133.0,40.494091,-3.386627,598.1,4,5,230.4,1.122
99.92,1,-0.051,-0.432,0.015,-0.057,-0.42,0.014,-1.563,-0.348,-0.415,99.31,133.0,40.494091,-3.386627,598.1,4,5,230.4,1.122
100.03,1,-0.1,-0.412,0.006,-0.071,-0.419,0.016,-1.564,-0.349,-0.414,99.31,133.0,40.494091,-3.386627,598.1,4,5,230.4,1.122
100.12,1,-0.098,-0.408,0.012,-0.091,-0.41,0.008,-1.565,-0.349,-0.415,99.31,133.0,40.494091,-3.386627,598.1,4,5,230.4,1.122
100.23,1,-0.127,-0.406,0.001,-0.108,-0.409,0.009,-1.564,-0.349,-0.414,99.31,133.0,40.494091,-3.386627,598.1,4,5,230.4,1.122
100.32,1,-0.118,-0.391,-0.018,-0.123,-0.399,-0.0,-1.563,-0.348,-0.414,99.31,133.0,40.494091,-3.386627,598.1,4,5,230.4,1.122
100.42,1,-0.036,-0.393,-0.02,-0.09,-0.399,-0.013,-1.563,-0.347,-0.414,99.31,133.0,40.494091,-3.386627,598.1,4,5,230.4,1.122
100.52,1,-0.042,-0.415,-0.009,-0.05,-0.403,-0.012,-1.563,-0.348,-0.414,99.31,133.0,40.494091,-3.386627,598.1,4,5,230.4,1.122
100.63,1,-0.094,-0.411,-0.018,-0.07,-0.406,-0.023,-1.563,-0.35,-0.414,99.31,133.0,40.494091,-3.386627,598.1,4,5,230.4,1.122
100.73,1,-0.077,-0.401,-0.043,-0.08,-0.403,-0.029,-1.562,-0.35,-0.414,100.39,132.3,40.493874,-3.386969,597.1,3,5,230.7,0.781
100.83,1,-0.041,-0.4,-0.041,-0.054,-0.406,-0.036,-1.561,-0.351,-0.414,100.39,132.3,40.493874,-3.386969,597.1,3,5,230.7,0.781
100.94,1,-0.077,-0.391,-0.031,-0.049,-0.396,-0.029,-1.561,-0.351,-0.414,100.39,132.3,40.493874,-3.386969,597.1,3,5,230.7,0.781
101.03,1,-0.034,-0.405,-0.035,-0.072,-0.402,-0.037,-1.561,-0.352,-0.414,100.39,132.3,40.493874,-3.386969,597.1,3,5,230.7,0.781
101.13,1,-0.077,-0.417,-0.041,-0.061,-0.407,-0.034,-1.56,-0.352,-0.414,100.39,132.3,40.493874,-3.386969,597.1,3,5,230.7,0.781
101.23,1,-0.017,-0.398,-0.048,-0.042,-0.405,-0.043,-1.561,-0.352,-0.415,100.39,132.3,40.493874,-3.386969,597.1,3,5,230.7,0.781
101.33,1,-0.061,-0.396,-0.022,-0.044,-0.398,-0.042,-1.561,-0.349,-0.415,100.39,132.3,40.493874,-3.386969,597.1,3,5,230.7,0.781
101.43,1,-0.053,-0.424,-0.045,-0.05,-0.41,-0.035,-1.559,-0.348,-0.415,100.39,132.3,40.493874,-3.386969,597.1,3,5,230.7,0.781
101.53,1,-0.031,-0.42,-0.04,-0.043,-0.418,-0.034,-1.559,-0.35,-0.416,100.39,132.3,40.493874,-3.386969,597.1,3,5,230.7,0.781
101.63,1,-0.074,-0.37,-0.043,-0.051,-0.4,-0.043,-1.56,-0.353,-0.416,100.39,132.3,40.493874,-3.386969,597.1,3,5,230.7,0.781
101.73,1,-0.135,-0.366,-0.07,-0.094,-0.377,-0.054,-1.561,-0.354,-0.417,101.3,133.2,40.49366,-3.387287,597.5,4,5,229.6,1.124
101.83,1,-0.096,-0.356,-0.044,-0.107,-0.37,-0.053,-1.561,-0.355,-0.417,101.3,133.2,40.49366,-3.387287,597.5,4,5,229.6,1.124
101.97,1,-0.067,-0.363,-0.025,-0.087,-0.36,-0.038,-1.561,-0.353,-0.417,101.3,133.2,40.49366,-3.387287,597.5,4,5,229.6,1.124
102.04,1,-0.039,-0.388,-0.054,-0.061,-0.373,-0.045,-1.561,-0.352,-0.417,101.3,133.2,40.49366,-3.387287,597.5,4,5,229.6,1.124
102.14,1,-0.031,-0.376,-0.057,-0.044,-0.377,-0.049,-1.561,-0.351,-0.418,101.3,133.2,40.49366,-3.387287,597.5,4,5,229.6,1.124
102.23,1,-0.032,-0.372,-0.046,-0.037,-0.378,-0.053,-1.56,-0.351,-0.419,101.3,133.2,40.49366,-3.387287,597.5,4,5,229.6,1.124
102.33,1,-0.075,-0.381,-0.034,-0.048,-0.375,-0.039,-1.56,-0.352,-0.42,101.3,133.2,40.49366,-3.387287,597.5,4,5,229.6,1.124
102.43,1,-0.065,-0.37,-0.06,-0.066,-0.374,-0.049,-1.56,-0.353,-0.42,101.3,133.2,40.49366,-3.387287,597.5,4,5,229.6,1.124
102.53,1,-0.103,-0.393,-0.078,-0.081,-0.382,-0.057,-1.56,-0.354,-0.421,101.3,133.2,40.49366,-3.387287,597.5,4,5,229.6,1.124
102.64,1,-0.096,-0.396,-0.055,-0.094,-0.388,-0.067,-1.56,-0.354,-0.421,101.3,133.2,40.49366,-3.387287,597.5,4,5,229.6,1.124
102.73,1,-0.047,-0.398,-0.038,-0.072,-0.395,-0.052,-1.56,-0.352,-0.42,102.32,132.7,40.493439,-3.387618,597.2,3,5,229.1,1.681
102.83,1,-0.104,-0.415,-0.062,-0.075,-0.405,-0.051,-1.561,-0.35,-0.419,102.32,132.7,40.493439,-3.387618,597.2,3,5,229.1,1.681
102.93,1,-0.076,-0.433,-0.042,-0.075,-0.416,-0.055,-1.561,-0.348,-0.418,102.32,132.7,40.493439,-3.387618,597.2,3,5,229.1,1.681
103.03,1,-0.018,-0.433,-0.015,-0.067,-0.427,-0.033,-1.56,-0.348,-0.418,102.32,132.7,40.493439,-3.387618,597.2,3,5,229.1,1.681
103.14,1,-0.02,-0.434,-0.056,-0.027,-0.437,-0.033,-1.558,-0.35,-0.418,102.32,132.7,40.493439,-3.387618,597.2,3,5,229.1,1.681
103.24,1,-0.089,-0.377,-0.052,-0.057,-0.411,-0.053,-1.559,-0.353,-0.418,102.32,132.7,40.493439,-3.387618,597.2,3,5,229.1,1.681
103.34,1,-0.116,-0.373,-0.053,-0.088,-0.385,-0.047,-1.56,-0.354,-0.419,102.32,132.7,40.493439,-3.387618,597.2,3,5,229.1,1.681
103.43,1,-0.084,-0.38,-0.042,-0.095,-0.384,-0.052,-1.56,-0.354,-0.419,102.32,132.7,40.493439,-3.387618,597.2,3,5,229.1,1.681
103.53,1,-0.097,-0.396,-0.041,-0.092,-0.386,-0.047,-1.56,-0.352,-0.418,102.32,132.7,40.493439,-3.387618,597.2,3,5,229.1,1.681
103.63,1,-0.052,-0.395,-0.065,-0.075,-0.394,-0.047,-1.56,-0.351,-0.418,102.32,132.7,40.493439,-3.387618,597.2,3,5,229.1,1.681
103.73,1,-0.034,-0.411,-0.035,-0.053,-0.398,-0.05,-1.56,-0.351,-0.419,103.3,131.7,40.493221,-3.387944,597.2,3,5,228.9,0.753
103.83,1,-0.044,-0.391,-0.038,-0.045,-0.397,-0.038,-1.56,-0.353,-0.42,103.3,131.7,40.493221,-3.387944,597.2,3,5,228.9,0.753
103.93,1,-0.051,-0.381,-0.019,-0.043,-0.391,-0.03,-1.56,-0.354,-0.421,103.3,131.7,40.493221,-3.387944,597.2,3,5,228.9,0.753
104.03,1,-0.141,-0.358,-0.07,-0.09,-0.377,-0.043,-1.561,-0.354,-0.421,103.3,131.7,40.493221,-3.387944,597.2,3,5,228.9,0.753
104.14,1,-0.036,-0.355,-0.059,-0.083,-0.362,-0.059,-1.561,-0.354,-0.422,103.3,131.7,40.493221,-3.387944,597.2,3,5,228.9,0.753
104.23,1,-0.003,-0.363,-0.052,-0.039,-0.359,-0.049,-1.56,-0.353,-0.423,103.3,131.7,40.493221,-3.387944,597.2,3,5,228.9,0.753
104.33,1,-0.008,-0.37,-0.062,-0.01,-0.366,-0.065,-1.56,-0.352,-0.424,103.3,131.7,40.493221,-3.387944,597.2,3,5,228.9,0.753
104.44,1,-0.073,-0.364,-0.05,-0.036,-0.369,-0.054,-1.561,-0.352,-0.424,103.3,131.7,40.493221,-3.387944,597.2,3,5,228.9,0.753
104.55,1,-0.18,-0.359,-0.054,-0.102,-0.358,-0.052,-1.562,-0.351,-0.424,103.3,131.7,40.493221,-3.387944,597.2,3,5,228.9,0.753
104.64,1,-0.094,-0.401,-0.072,-0.12,-0.377,-0.059,-1.562,-0.348,-0.424,103.3,131.7,40.493221,-3.387944,597.2,3,5,228.9,0.753
104.74,1,-0.025,-0.413,-0.067,-0.08,-0.398,-0.07,-1.561,-0.348,-0.423,104.37,130.8,40.493015,-3.38827,597.0,4,5,228.9,0.197
104.84,1,-0.042,-0.408,-0.071,-0.044,-0.406,-0.07,-1.561,-0.349,-0.423,104.37,130.8,40.493015,-3.38827,597.0,4,5,228.9,0.197
104.94,1,-0.047,-0.416,-0.058,-0.052,-0.412,-0.067,-1.562,-0.348,-0.423,104.37,130.8,40.493015,-3.38827,597.0,4,5,228.9,0.197
105.04,1,-0.111,-0.403,-0.051,-0.068,-0.414,-0.055,-1.562,-0.349,-0.423,104.37,130.8,40.493015,-3.38827,597.0,4,5,228.9,0.197
105.14,1,-0.074,-0.39,-0.029,-0.086,-0.398,-0.043,-1.562,-0.35,-0.424,104.37,130.8,40.493015,-3.38827,597.0,4,5,228.9,0.197
105.24,1,-0.029,-0.366,-0.026,-0.055,-0.379,-0.03,-1.562,-0.349,-0.424,104.37,130.8,40.493015,-3.38827,597.0,4,5,228.9,0.197
105.34,1,-0.043,-0.392,-0.053,-0.047,-0.382,-0.036,-1.561,-0.348,-0.424,104.37,130.8,40.493015,-3.38827,597.0,4,5,228.9,0.197
105.44,1,-0.014,-0.415,-0.015,-0.03,-0.395,-0.032,-1.561,-0.346,-0.424,104.37,130.8,40.493015,-3.38827,597.0,4,5,228.9,0.197
105.54,1,-0.052,-0.42,-0.049,-0.033,-0.411,-0.043,-1.561,-0.345,-0.424,104.37,130.8,40.493015,-3.38827,597.0,4,5,228.9,0.197
105.64,1,-0.06,-0.399,-0.057,-0.056,-0.416,-0.048,-1.561,-0.346,-0.424,104.37,130.8,40.493015,-3.38827,597.0,4,5,228.9,0.197
105.75,1,-0.087,-0.408,-0.033,-0.065,-0.402,-0.039,-1.561,-0.347,-0.424,105.3,130.0,40.492802,-3.388587,596.3,4,5,227.7,1.14
105.85,1,-0.09,-0.411,-0.024,-0.081,-0.404,-0.038,-1.562,-0.347,-0.424,105.3,130.0,40.492802,-3.388587,596.3,4,5,227.7,1.14
105.94,1,-0.066,-0.413,-0.017,-0.079,-0.412,-0.024,-1.562,-0.346,-0.424,105.3,130.0,40.492802,-3.388587,596.3,4,5,227.7,1.14
106.04,1,-0.032,-0.412,-0.042,-0.058,-0.413,-0.033,-1.561,-0.346,-0.424,105.3,130.0,40.492802,-3.388587,596.3,4,5,227.7,1.14
106.14,1,-0.081,-0.438,-0.028,-0.053,-0.421,-0.023,-1.561,-0.346,-0.423,105.3,130.0,40.492802,-3.388587,596.3,4,5,227.7,1.14
106.24,1,-0.14,-0.434,-0.029,-0.101,-0.434,-0.034,-1.562,-0.346,-0.423,105.3,130.0,40.492802,-3.388587,596.3,4,5,227.7,1.14
106.34,1,-0.081,-0.436,-0.024,-0.096,-0.433,-0.026,-1.563,-0.347,-0.422,105.3,130.0,40.492802,-3.388587,596.3,4,5,227.7,1.14
106.45,1,-0.059,-0.411,-0.007,-0.083,-0.422,-0.019,-1.563,-0.349,-0.421,105.3,130.0,40.492802,-3.388587,596.3,4,5,227.7,1.14
106.54,1,-0.031,-0.424,-0.006,-0.059,-0.422,-0.009,-1.562,-0.35,-0.421,105.3,130.0,40.492802,-3.388587,596.3,4,5,227.7,1.14
106.65,1,-0.067,-0.387,0.01,-0.054,-0.408,0.0,-1.562,-0.351,-0.421,105.3,130.0,40.492802,-3.388587,596.3,4,5,227.7,1.14
106.74,1,-0.07,-0.4,-0.015,-0.067,-0.4,-0.003,-1.563,-0.35,-0.421,106.35,129.2,40.492584,-3.388896,596.7,3,5,227.1,1.719
106.84,1,-0.054,-0.419,-0.022,-0.057,-0.406,-0.011,-1.563,-0.349,-0.421,106.35,129.2,40.492584,-3.388896,596.7,3,5,227.1,1.719
106.94,1,-0.089,-0.38,-0.01,-0.068,-0.402,-0.019,-1.563,-0.349,-0.421,106.35,129.2,40.492584,-3.388896,596.7,3,5,227.1,1.719
107.05,1,-0.067,-0.398,-0.034,-0.077,-0.393,-0.024,-1.562,-0.348,-0.421,106.35,129.2,40.492584,-3.388896,596.7,3,5,227.1,1.719
107.14,1,-0.056,-0.39,-0.029,-0.065,-0.393,-0.029,-1.561,-0.348,-0.421,106.35,129.2,40.492584,-3.388896,596.7,3,5,227.1,1.719
107.25,1,-0.069,-0.405,-0.033,-0.064,-0.395,-0.024,-1.56,-0.348,-0.422,106.35,129.2,40.492584,-3.388896,596.7,3,5,227.1,1.719
107.35,1,-0.051,-0.39,-0.004,-0.055,-0.399,-0.021,-1.561,-0.349,-0.422,106.35,129.2,40.492584,-3.388896,596.7,3,5,227.1,1.719
107.45,1,-0.076,-0.386,-0.032,-0.059,-0.391,-0.022,-1.561,-0.351,-0.422,106.35,129.2,40.492584,-3.388896,596.7,3,5,227.1,1.719
107.54,1,-0.079,-0.368,-0.059,-0.079,-0.38,-0.038,-1.562,-0.351,-0.422,106.35,129.2,40.492584,-3.388896,596.7,3,5,227.1,1.719
107.65,1,-0.088,-0.376,-0.037,-0.083,-0.377,-0.043,-1.563,-0.351,-0.422,106.35,129.2,40.492584,-3.388896,596.7,3,5,227.1,1.719
107.75,1,-0.098,-0.39,-0.05,-0.09,-0.379,-0.045,-1.563,-0.349,-0.421,107.32,128.6,40.492363,-3.389211,596.4,3,5,227.1,0.579
107.85,1,-0.05,-0.411,-0.044,-0.078,-0.393,-0.049,-1.563,-0.348,-0.421,107.32,128.6,40.492363,-3.389211,596.4,3,5,227.1,0.579
107.95,1,-0.021,-0.412,-0.017,-0.045,-0.406,-0.031,-1.562,-0.348,-0.421,107.32,128.6,40.492363,-3.389211,596.4,3,5,227.1,0.579
108.05,1,-0.05,-0.391,-0.033,-0.037,-0.407,-0.028,-1.562,-0.348,-0.421,107.32,128.6,40.492363,-3.389211,596.4,3,5,227.1,0.579
108.15,1,-0.107,-0.388,-0.0,-0.076,-0.391,-0.028,-1.563,-0.349,-0.422,107.32,128.6,40.492363,-3.389211,596.4,3,5,227.1,0.579
108.25,1,-0.025,-0.369,-0.032,-0.059,-0.382,-0.019,-1.563,-0.349,-0.423,107.32,128.6,40.492363,-3.389211,596.4,3,5,227.1,0.579
108.35,1,-0.009,-0.393,-0.031,-0.029,-0.384,-0.02,-1.562,-0.348,-0.423,107.32,128.6,40.492363,-3.389211,596.4,3,5,227.1,0.579
108.45,1,-0.055,-0.402,-0.065,-0.031,-0.392,-0.043,-1.562,-0.348,-0.423,107.32,128.6,40.492363,-3.389211,596.4,3,5,227.1,0.579
108.55,1,-0.106,-0.395,-0.063,-0.076,-0.397,-0.058,-1.562,-0.347,-0.423,107.32,128.6,40.492363,-3.389211,596.4,3,5,227.1,0.579
108.65,1,-0.051,-0.421,-0.06,-0.074,-0.407,-0.059,-1.561,-0.348,-0.423,107.32,128.6,40.492363,-3.389211,596.4,3,5,227.1,0.579
108.75,1,-0.052,-0.4,-0.082,-0.064,-0.408,-0.072,-1.561,-0.349,-0.423,108.33,128.8,40.492146,-3.389518,595.9,3,5,227.1,0.0
108.86,1,-0.02,-0.382,-0.075,-0.037,-0.394,-0.074,-1.561,-0.349,-0.423,108.33,128.8,40.492146,-3.389518,595.9,3,5,227.1,0.0
108.95,1,-0.036,-0.378,-0.061,-0.028,-0.385,-0.065,-1.561,-0.348,-0.424,108.33,128.8,40.492146,-3.389518,595.9,3,5,227.1,0.0
109.05,1,-0.108,-0.387,-0.047,-0.063,-0.381,-0.062,-1.561,-0.348,-0.424,108.33,128.8,40.492146,-3.389518,595.9,3,5,227.1,0.0
109.15,1,-0.059,-0.38,-0.049,-0.069,-0.388,-0.056,-1.561,-0.348,-0.425,108.33,128.8,40.492146,-3.389518,595.9,3,5,227.1,0.0
109.25,1,-0.092,-0.392,-0.07,-0.085,-0.387,-0.057,-1.562,-0.348,-0.426,108.33,128.8,40.492146,-3.389518,595.9,3,5,227.1,0.0
109.35,1,-0.085,-0.363,-0.055,-0.086,-0.38,-0.059,-1.564,-0.348,-0.426,108.33,128.8,40.492146,-3.389518,595.9,3,5,227.1,0.0
109.46,1,-0.026,-0.385,-0.055,-0.06,-0.375,-0.057,-1.565,-0.347,-0.427,108.33,128.8,40.492146,-3.389518,595.9,3,5,227.1,0.0
109.55,1,-0.025,-0.386,-0.054,-0.037,-0.38,-0.055,-1.566,-0.346,-0.427,108.33,128.8,40.492146,-3.389518,595.9,3,5,227.1,0.0
109.65,1,-0.017,-0.386,-0.039,-0.026,-0.384,-0.047,-1.566,-0.346,-0.428,108.33,128.8,40.492146,-3.389518,595.9,3,5,227.1,0.0
109.75,1,-0.114,-0.38,-0.041,-0.065,-0.382,-0.043,-1.565,-0.347,-0.428,109.34,128.3,40.491928,-3.389826,595.8,3,5,226.1,1.032
109.85,1,-0.04,-0.378,-0.036,-0.063,-0.381,-0.043,-1.565,-0.347,-0.428,109.34,128.3,40.491928,-3.389826,595.8,3,5,226.1,1.032
