Timestamp_Accel,SystemActivated,accelerometerXAxis,accelerometerYAxis,accelerometerZAxis,AccelX_KF,AccelY_KF,AccelZ_KF,gyroscopeXAxis,gyroscopeYAxis,gyroscopeZAxis,Timestamp_GPS,Speed,latitude,longitude,Altitude,VerticalAccuracy,HorizontalAccuracy,Course,Difcourse
10.65,0,-0.017,0.031,-0.025,-0.01,0.007,-0.021,-1.507,-0.029,0.033,10.66,0.0,40.505341,-3.35722,599.7,32,405,-1.0,-1.0
10.76,0,-0.005,0.014,0.013,-0.008,0.011,-0.006,-1.51,-0.03,0.032,10.66,0.0,40.505341,-3.35722,599.7,32,405,-1.0,-1.0
10.85,0,-0.021,0.058,-0.004,-0.011,0.028,0.001,-1.512,-0.036,0.032,10.66,0.0,40.505341,-3.35722,599.7,32,405,-1.0,-1.0
10.95,0,-0.037,-0.007,0.037,-0.021,0.022,0.011,-1.513,-0.041,0.031,10.66,0.0,40.505341,-3.35722,599.7,32,405,-1.0,-1.0
11.05,1,-0.0,-0.005,0.031,-0.02,0.008,0.027,-1.517,-0.038,0.03,10.66,0.0,40.505341,-3.35722,599.7,32,405,-1.0,-1.0
11.15,1,-0.012,0.001,0.004,-0.011,-0.001,0.018,-1.52,-0.036,0.03,10.66,0.0,40.505341,-3.35722,599.7,32,405,-1.0,-1.0
11.25,1,-0.017,-0.008,0.021,-0.015,-0.002,0.019,-1.522,-0.034,0.029,10.66,0.0,40.505341,-3.35722,599.7,32,405,-1.0,-1.0
11.36,1,0.0,-0.028,0.024,-0.014,-0.012,0.02,-1.526,-0.032,0.027,10.66,0.0,40.505341,-3.35722,599.7,32,405,-1.0,-1.0
11.45,1,0.03,-0.018,0.023,0.006,-0.021,0.018,-1.526,-0.029,0.026,10.66,0.0,40.505341,-3.35722,599.7,32,405,-1.0,-1.0
11.55,1,0.009,-0.023,0.017,0.021,-0.027,0.026,-1.526,-0.03,0.025,10.66,0.0,40.505341,-3.35722,599.7,32,405,-1.0,-1.0
11.65,1,-0.039,0.012,0.028,-0.016,-0.008,0.017,-1.529,-0.031,0.025,11.68,73.8,40.505657,-3.356018,593.5,6,5,280.9,171.211
11.75,1,-0.043,-0.004,0.051,-0.026,0.001,0.038,-1.536,-0.033,0.024,11.68,73.8,40.505657,-3.356018,593.5,6,5,280.9,171.211
11.85,1,0.003,0.003,0.103,-0.015,0.005,0.062,-1.546,-0.037,0.023,11.68,73.8,40.505657,-3.356018,593.5,6,5,280.9,171.211
11.95,1,0.027,0.017,0.098,0.003,0.003,0.09,-1.555,-0.038,0.022,11.68,73.8,40.505657,-3.356018,593.5,6,5,280.9,171.211
12.06,1,-0.051,0.004,0.043,-0.015,0.012,0.076,-1.56,-0.036,0.022,11.68,73.8,40.505657,-3.356018,593.5,6,5,280.9,171.211
12.16,1,0.028,-0.027,0.006,-0.009,0.002,0.039,-1.562,-0.033,0.021,11.68,73.8,40.505657,-3.356018,593.5,6,5,280.9,171.211
12.25,1,-0.068,-0.016,-0.008,-0.014,-0.023,0.012,-1.562,-0.029,0.021,11.68,73.8,40.505657,-3.356018,593.5,6,5,280.9,171.211
12.35,1,-0.016,0.006,-0.007,-0.036,-0.006,0.001,-1.561,-0.029,0.021,11.68,73.8,40.505657,-3.356018,593.5,6,5,280.9,171.211
12.45,1,-0.043,-0.015,-0.008,-0.037,-0.013,-0.009,-1.558,-0.031,0.02,11.68,73.8,40.505657,-3.356018,593.5,6,5,280.9,171.211
12.55,1,-0.069,0.021,-0.032,-0.03,0.004,-0.012,-1.558,-0.036,0.019,11.68,73.8,40.505657,-3.356018,593.5,6,5,280.9,171.211
12.65,1,-0.016,-0.006,-0.054,-0.053,0.008,-0.041,-1.56,-0.039,0.019,12.7,66.1,40.50584,-3.356279,601.9,3,5,275.6,5.273
12.75,1,-0.01,-0.035,0.002,-0.017,-0.024,-0.023,-1.562,-0.04,0.018,12.7,66.1,40.50584,-3.356279,601.9,3,5,275.6,5.273
12.85,1,-0.029,0.037,-0.012,-0.026,0.004,-0.016,-1.562,-0.047,0.017,12.7,66.1,40.50584,-3.356279,601.9,3,5,275.6,5.273
12.95,1,0.051,-0.0,-0.05,0.005,0.013,-0.027,-1.559,-0.051,0.016,12.7,66.1,40.50584,-3.356279,601.9,3,5,275.6,5.273
13.06,1,0.043,0.015,-0.036,0.033,0.009,-0.038,-1.558,-0.05,0.015,12.7,66.1,40.50584,-3.356279,601.9,3,5,275.6,5.273
13.15,1,0.011,-0.007,-0.022,0.03,0.005,-0.033,-1.554,-0.047,0.015,12.7,66.1,40.50584,-3.356279,601.9,3,5,275.6,5.273
13.26,1,0.018,-0.024,-0.066,0.017,-0.008,-0.045,-1.55,-0.046,0.014,12.7,66.1,40.50584,-3.356279,601.9,3,5,275.6,5.273
13.35,1,-0.009,-0.004,-0.023,0.016,-0.017,-0.035,-1.547,-0.044,0.013,12.7,66.1,40.50584,-3.356279,601.9,3,5,275.6,5.273
13.45,1,-0.051,0.0,-0.046,-0.03,-0.006,-0.037,-1.546,-0.046,0.012,12.7,66.1,40.50584,-3.356279,601.9,3,5,275.6,5.273
13.55,1,0.001,0.022,-0.026,-0.017,0.012,-0.035,-1.544,-0.046,0.011,12.7,66.1,40.50584,-3.356279,601.9,3,5,275.6,5.273
13.65,1,0.0,-0.01,-0.055,-0.003,0.002,-0.039,-1.543,-0.047,0.011,13.71,68.7,40.505829,-3.356511,602.6,3,5,277.4,3.516
13.75,1,-0.046,-0.048,-0.009,-0.034,-0.025,-0.033,-1.542,-0.045,0.01,13.71,68.7,40.505829,-3.356511,602.6,3,5,277.4,3.516
13.86,1,0.005,-0.006,0.007,-0.01,-0.016,-0.009,-1.542,-0.044,0.01,13.71,68.7,40.505829,-3.356511,602.6,3,5,277.4,3.516
13.95,1,0.013,-0.025,-0.02,-0.003,-0.018,-0.011,-1.54,-0.04,0.01,13.71,68.7,40.505829,-3.356511,602.6,3,5,277.4,3.516
14.05,1,0.065,-0.03,-0.028,0.03,-0.024,-0.022,-1.535,-0.038,0.011,13.71,68.7,40.505829,-3.356511,602.6,3,5,277.4,3.516
14.15,1,-0.046,-0.045,-0.025,0.006,-0.029,-0.025,-1.533,-0.034,0.012,13.71,68.7,40.505829,-3.356511,602.6,3,5,277.4,3.516
14.26,1,0.0,-0.062,-0.017,-0.006,-0.051,-0.025,-1.532,-0.026,0.015,13.71,68.7,40.505829,-3.356511,602.6,3,5,277.4,3.516
14.36,1,-0.026,-0.068,0.017,-0.012,-0.069,-0.004,-1.533,-0.018,0.019,13.71,68.7,40.505829,-3.356511,602.6,3,5,277.4,3.516
14.47,1,0.004,-0.045,0.005,-0.013,-0.054,0.006,-1.534,-0.011,0.022,13.71,68.7,40.505829,-3.356511,602.6,3,5,277.4,3.516
14.57,1,0.027,-0.029,0.016,0.013,-0.043,0.01,-1.535,-0.009,0.025,13.71,68.7,40.505829,-3.356511,602.6,3,5,277.4,3.516
14.66,1,-0.008,-0.039,-0.004,0.005,-0.034,0.005,-1.537,-0.005,0.028,14.63,66.0,40.505852,-3.356736,602.4,3,5,278.4,2.812
14.76,1,0.005,-0.06,0.04,0.0,-0.045,0.01,-1.54,0.0,0.031,14.63,66.0,40.505852,-3.356736,602.4,3,5,278.4,2.812
14.86,1,0.002,-0.035,0.076,0.0,-0.047,0.05,-1.546,0.006,0.034,14.63,66.0,40.505852,-3.356736,602.4,3,5,278.4,2.812
14.96,1,0.003,-0.057,0.083,0.009,-0.051,0.072,-1.553,0.01,0.036,14.63,66.0,40.505852,-3.356736,602.4,3,5,278.4,2.812
15.06,1,-0.006,-0.031,0.1,-0.003,-0.041,0.081,-1.559,0.015,0.04,14.63,66.0,40.505852,-3.356736,602.4,3,5,278.4,2.812
15.16,1,0.013,-0.053,0.077,0.008,-0.045,0.088,-1.566,0.016,0.044,14.63,66.0,40.505852,-3.356736,602.4,3,5,278.4,2.812
15.26,1,-0.022,-0.037,0.075,-0.004,-0.044,0.082,-1.574,0.021,0.048,14.63,66.0,40.505852,-3.356736,602.4,3,5,278.4,2.812
15.36,1,-0.027,-0.091,0.084,-0.022,-0.057,0.078,-1.581,0.027,0.054,14.63,66.0,40.505852,-3.356736,602.4,3,5,278.4,2.812
15.46,1,-0.01,-0.106,0.095,-0.015,-0.09,0.084,-1.584,0.028,0.06,14.63,66.0,40.505852,-3.356736,602.4,3,5,278.4,2.812
15.56,1,-0.046,-0.055,0.054,-0.03,-0.077,0.074,-1.585,0.027,0.066,14.63,66.0,40.505852,-3.356736,602.4,3,5,278.4,2.812
15.67,1,-0.005,-0.069,0.067,-0.021,-0.07,0.076,-1.587,0.027,0.071,15.69,66.7,40.505844,-3.35696,603.2,3,5,277.0,1.406
15.76,1,-0.015,-0.053,0.035,-0.017,-0.064,0.055,-1.587,0.025,0.076,15.69,66.7,40.505844,-3.35696,603.2,3,5,277.0,1.406
15.86,1,-0.013,-0.059,0.049,-0.012,-0.059,0.044,-1.588,0.023,0.08,15.69,66.7,40.505844,-3.35696,603.2,3,5,277.0,1.406
15.96,1,0.012,-0.028,0.051,-0.005,-0.049,0.044,-1.588,0.021,0.084,15.69,66.7,40.505844,-3.35696,603.2,3,5,277.0,1.406
16.06,1,0.007,0.014,0.045,0.007,-0.016,0.048,-1.588,0.02,0.087,15.69,66.7,40.505844,-3.35696,603.2,3,5,277.0,1.406
16.16,1,0.018,0.028,0.044,0.007,0.009,0.046,-1.588,0.021,0.089,15.69,66.7,40.505844,-3.35696,603.2,3,5,277.0,1.406
16.26,1,0.012,0.005,0.062,0.018,0.011,0.048,-1.587,0.023,0.092,15.69,66.7,40.505844,-3.35696,603.2,3,5,277.0,1.406
16.36,1,0.022,-0.007,0.059,0.008,-0.002,0.065,-1.587,0.023,0.094,15.69,66.7,40.505844,-3.35696,603.2,3,5,277.0,1.406
16.46,1,0.046,-0.015,0.07,0.026,-0.018,0.07,-1.587,0.021,0.095,15.69,66.7,40.505844,-3.35696,603.2,3,5,277.0,1.406
16.56,1,-0.014,0.0,0.092,0.014,-0.008,0.082,-1.586,0.019,0.097,15.69,66.7,40.505844,-3.35696,603.2,3,5,277.0,1.406
16.66,1,0.054,0.003,0.107,0.034,0.011,0.077,-1.586,0.016,0.097,16.63,69.6,40.505852,-3.357188,603.2,3,5,275.3,3.164
16.76,1,-0.01,0.048,0.037,0.024,0.024,0.056,-1.586,0.015,0.098,16.63,69.6,40.505852,-3.357188,603.2,3,5,275.3,3.164
16.87,1,-0.073,0.042,-0.003,-0.033,0.039,0.043,-1.587,0.014,0.099,16.63,69.6,40.505852,-3.357188,603.2,3,5,275.3,3.164
16.96,1,-0.032,0.021,0.075,-0.038,0.026,0.062,-1.589,0.013,0.099,16.63,69.6,40.505852,-3.357188,603.2,3,5,275.3,3.164
17.06,1,0.019,0.014,0.072,-0.013,0.03,0.044,-1.589,0.013,0.099,16.63,69.6,40.505852,-3.357188,603.2,3,5,275.3,3.164
17.16,1,-0.005,0.047,-0.023,0.007,0.023,0.038,-1.588,0.013,0.099,16.63,69.6,40.505852,-3.357188,603.2,3,5,275.3,3.164
17.26,1,-0.024,0.043,0.039,-0.01,0.037,0.022,-1.588,0.011,0.099,16.63,69.6,40.505852,-3.357188,603.2,3,5,275.3,3.164
17.37,1,-0.02,0.085,-0.042,-0.018,0.052,-0.003,-1.589,0.009,0.098,16.63,69.6,40.505852,-3.357188,603.2,3,5,275.3,3.164
17.46,1,-0.085,0.07,0.073,-0.052,0.072,0.02,-1.591,0.009,0.097,16.63,69.6,40.505852,-3.357188,603.2,3,5,275.3,3.164
17.57,1,0.027,0.019,0.02,-0.038,0.053,0.035,-1.592,0.009,0.097,16.63,69.6,40.505852,-3.357188,603.2,3,5,275.3,3.164
17.66,1,0.014,0.045,0.07,0.019,0.042,0.041,-1.592,0.006,0.095,17.63,72.5,40.505878,-3.357411,603.6,3,5,274.2,2.812
17.77,1,-0.072,0.158,0.024,-0.033,0.088,0.051,-1.589,0.003,0.093,17.63,72.5,40.505878,-3.357411,603.6,3,5,274.2,2.812
17.87,1,0.05,0.074,-0.003,-0.007,0.105,0.012,-1.59,0.001,0.092,17.63,72.5,40.505878,-3.357411,603.6,3,5,274.2,2.812
17.97,1,-0.027,0.069,0.076,0.003,0.078,0.038,-1.591,0.003,0.089,17.63,72.5,40.505878,-3.357411,603.6,3,5,274.2,2.812
18.07,1,0.036,0.071,0.05,-0.003,0.081,0.051,-1.591,0.005,0.089,17.63,72.5,40.505878,-3.357411,603.6,3,5,274.2,2.812
18.17,1,0.004,0.04,-0.011,0.019,0.05,0.029,-1.592,0.006,0.087,17.63,72.5,40.505878,-3.357411,603.6,3,5,274.2,2.812
18.27,1,-0.005,0.083,0.035,0.001,0.06,0.02,-1.593,0.004,0.085,17.63,72.5,40.505878,-3.357411,603.6,3,5,274.2,2.812
18.37,1,-0.029,0.092,0.044,-0.013,0.079,0.03,-1.595,0.001,0.082,17.63,72.5,40.505878,-3.357411,603.6,3,5,274.2,2.812
18.47,1,0.015,0.073,0.037,-0.001,0.084,0.045,-1.613,-0.019,0.078,17.63,72.5,40.505878,-3.357411,603.6,3,5,274.2,2.812
18.57,1,-0.019,0.09,0.007,-0.004,0.086,0.018,-1.618,-0.027,0.075,17.63,72.5,40.505878,-3.357411,603.6,3,5,274.2,2.812
18.67,1,0.034,0.086,-0.008,-0.001,0.087,0.001,-1.619,-0.028,0.071,18.63,75.3,40.505928,-3.35767,604.2,3,5,273.9,1.406
18.77,1,0.053,0.082,-0.001,0.042,0.085,0.008,-1.619,-0.038,0.068,18.63,75.3,40.505928,-3.35767,604.2,3,5,273.9,1.406
18.87,1,-0.02,0.107,-0.104,0.02,0.094,-0.042,-1.612,-0.049,0.065,18.63,75.3,40.505928,-3.35767,604.2,3,5,273.9,1.406
18.97,1,0.021,0.076,-0.013,0.0,0.088,-0.048,-1.613,-0.045,0.063,18.63,75.3,40.505928,-3.35767,604.2,3,5,273.9,1.406
19.07,1,0.045,-0.008,-0.028,0.032,0.047,-0.026,-1.612,-0.043,0.06,18.63,75.3,40.505928,-3.35767,604.2,3,5,273.9,1.406
19.18,1,0.009,0.0,-0.076,0.028,0.015,-0.053,-1.602,-0.042,0.059,18.63,75.3,40.505928,-3.35767,604.2,3,5,273.9,1.406
19.27,1,-0.066,0.003,-0.069,-0.025,0.008,-0.068,-1.597,-0.043,0.059,18.63,75.3,40.505928,-3.35767,604.2,3,5,273.9,1.406
19.37,1,-0.022,0.009,-0.05,-0.019,0.01,-0.056,-1.595,-0.041,0.058,18.63,75.3,40.505928,-3.35767,604.2,3,5,273.9,1.406
19.47,1,0.004,0.031,-0.021,-0.034,0.014,-0.037,-1.592,-0.04,0.059,18.63,75.3,40.505928,-3.35767,604.2,3,5,273.9,1.406
19.57,1,0.094,-0.032,-0.034,0.047,-0.002,-0.041,-1.583,-0.043,0.058,18.63,75.3,40.505928,-3.35767,604.2,3,5,273.9,1.406
19.78,1,-0.032,-0.043,-0.033,0.011,-0.015,-0.034,-1.577,-0.054,0.058,19.63,78.4,40.505924,-3.35798,603.6,3,5,274.9,1.055
19.88,1,-0.039,0.027,-0.028,-0.025,0.006,-0.052,-1.579,-0.055,0.058,19.63,78.4,40.505924,-3.35798,603.6,3,5,274.9,1.055
19.97,1,-0.05,-0.024,-0.024,-0.035,-0.004,-0.02,-1.58,-0.055,0.057,19.63,78.4,40.505924,-3.35798,603.6,3,5,274.9,1.055
20.07,1,0.005,-0.066,0.013,-0.031,-0.025,-0.017,-1.584,-0.052,0.057,19.63,78.4,40.505924,-3.35798,603.6,3,5,274.9,1.055
20.17,1,-0.027,-0.009,-0.063,-0.01,-0.041,-0.021,-1.581,-0.053,0.058,19.63,78.4,40.505924,-3.35798,603.6,3,5,274.9,1.055
20.27,1,-0.021,-0.004,-0.072,-0.024,-0.016,-0.042,-1.579,-0.053,0.058,19.63,78.4,40.505924,-3.35798,603.6,3,5,274.9,1.055
20.37,1,0.007,-0.026,-0.026,-0.006,-0.013,-0.057,-1.581,-0.051,0.058,19.63,78.4,40.505924,-3.35798,603.6,3,5,274.9,1.055
20.47,1,-0.02,-0.04,-0.105,-0.008,-0.028,-0.076,-1.581,-0.048,0.059,19.63,78.4,40.505924,-3.35798,603.6,3,5,274.9,1.055
20.57,1,0.016,-0.054,-0.041,0.0,-0.04,-0.059,-1.582,-0.048,0.059,19.63,78.4,40.505924,-3.35798,603.6,3,5,274.9,1.055
20.67,1,0.006,-0.009,-0.057,0.01,-0.033,-0.043,-1.577,-0.049,0.06,19.63,78.4,40.505924,-3.35798,603.6,3,5,274.9,1.055
20.77,1,0.034,-0.075,-0.048,0.005,-0.04,-0.062,-1.564,-0.045,0.062,20.63,79.7,40.505962,-3.358184,603.6,3,5,276.0,2.109
20.87,1,-0.08,0.012,-0.022,-0.017,-0.034,-0.041,-1.559,-0.039,0.063,20.63,79.7,40.505962,-3.358184,603.6,3,5,276.0,2.109
20.98,1,0.038,-0.028,-0.017,-0.006,-0.015,-0.025,-1.558,-0.044,0.064,20.63,79.7,40.505962,-3.358184,603.6,3,5,276.0,2.109
21.08,1,-0.018,-0.035,-0.057,-0.008,-0.033,-0.04,-1.554,-0.041,0.065,20.63,79.7,40.505962,-3.358184,603.6,3,5,276.0,2.109
21.18,1,-0.026,-0.05,-0.041,-0.012,-0.037,-0.046,-1.555,-0.039,0.066,20.63,79.7,40.505962,-3.358184,603.6,3,5,276.0,2.109
21.28,1,-0.03,0.003,-0.033,-0.03,-0.026,-0.036,-1.553,-0.038,0.067,20.63,79.7,40.505962,-3.358184,603.6,3,5,276.0,2.109
21.37,1,0.031,-0.017,-0.037,0.003,-0.011,-0.042,-1.552,-0.041,0.068,20.63,79.7,40.505962,-3.358184,603.6,3,5,276.0,2.109
21.47,1,-0.002,-0.038,-0.063,0.008,-0.019,-0.046,-1.552,-0.041,0.068,20.63,79.7,40.505962,-3.358184,603.6,3,5,276.0,2.109
21.58,1,-0.031,-0.009,-0.058,-0.01,-0.022,-0.049,-1.55,-0.043,0.07,20.63,79.7,40.505962,-3.358184,603.6,3,5,276.0,2.109
21.67,1,-0.002,-0.045,-0.064,-0.016,-0.027,-0.063,-1.549,-0.043,0.071,20.63,79.7,40.505962,-3.358184,603.6,3,5,276.0,2.109
21.78,1,0.017,-0.049,-0.042,-0.001,-0.047,-0.051,-1.549,-0.043,0.073,21.71,79.6,40.505959,-3.358428,603.5,3,5,276.0,1.055
21.87,1,-0.06,-0.053,-0.005,-0.023,-0.045,-0.036,-1.55,-0.04,0.074,21.71,79.6,40.505959,-3.358428,603.5,3,5,276.0,1.055
21.97,1,-0.018,-0.031,-0.009,-0.025,-0.044,-0.016,-1.55,-0.033,0.077,21.71,79.6,40.505959,-3.358428,603.5,3,5,276.0,1.055
22.07,1,0.005,-0.05,-0.024,-0.005,-0.044,-0.018,-1.546,-0.029,0.079,21.71,79.6,40.505959,-3.358428,603.5,3,5,276.0,1.055
22.18,1,-0.043,0.011,0.018,-0.029,-0.025,-0.0,-1.548,-0.018,0.081,21.71,79.6,40.505959,-3.358428,603.5,3,5,276.0,1.055
22.27,1,-0.029,-0.031,0.004,-0.022,-0.011,-0.01,-1.547,-0.017,0.083,21.71,79.6,40.505959,-3.358428,603.5,3,5,276.0,1.055
22.38,1,-0.032,-0.015,0.061,-0.033,-0.024,0.035,-1.548,-0.017,0.085,21.71,79.6,40.505959,-3.358428,603.5,3,5,276.0,1.055
22.48,1,-0.019,-0.03,0.052,-0.028,-0.024,0.052,-1.55,-0.018,0.088,21.71,79.6,40.505959,-3.358428,603.5,3,5,276.0,1.055
22.57,1,-0.002,-0.058,0.079,-0.02,-0.037,0.051,-1.554,-0.016,0.09,21.71,79.6,40.505959,-3.358428,603.5,3,5,276.0,1.055
22.68,1,0.024,-0.013,0.104,0.006,-0.029,0.087,-1.559,-0.013,0.092,21.71,79.6,40.505959,-3.358428,603.5,3,5,276.0,1.055
22.77,1,-0.058,0.013,0.023,-0.003,-0.019,0.067,-1.558,-0.015,0.094,22.67,79.0,40.505989,-3.358662,603.5,3,5,276.7,0.703
22.87,1,0.016,-0.028,0.069,-0.018,-0.013,0.051,-1.56,-0.016,0.096,22.67,79.0,40.505989,-3.358662,603.5,3,5,276.7,0.703
22.99,1,-0.021,-0.002,0.036,-0.013,-0.015,0.056,-1.56,-0.017,0.098,22.67,79.0,40.505989,-3.358662,603.5,3,5,276.7,0.703
23.07,1,-0.012,-0.02,0.032,-0.008,0.0,0.031,-1.562,-0.016,0.101,22.67,79.0,40.505989,-3.358662,603.5,3,5,276.7,0.703
23.18,1,-0.003,-0.028,-0.038,-0.015,-0.026,0.026,-1.562,-0.018,0.103,22.67,79.0,40.505989,-3.358662,603.5,3,5,276.7,0.703
23.28,1,-0.021,-0.013,-0.046,-0.009,-0.016,-0.034,-1.561,-0.019,0.105,22.67,79.0,40.505989,-3.358662,603.5,3,5,276.7,0.703
23.38,1,-0.038,0.011,-0.011,-0.028,-0.008,-0.029,-1.561,-0.019,0.108,22.67,79.0,40.505989,-3.358662,603.5,3,5,276.7,0.703
23.48,1,0.005,-0.012,0.002,-0.011,-0.002,-0.016,-1.56,-0.02,0.11,22.67,79.0,40.505989,-3.358662,603.5,3,5,276.7,0.703
23.59,1,-0.043,0.002,-0.039,-0.021,-0.005,-0.013,-1.563,-0.02,0.112,22.67,79.0,40.505989,-3.358662,603.5,3,5,276.7,0.703
23.69,1,-0.017,-0.036,0.029,-0.025,-0.017,-0.001,-1.565,-0.015,0.114,22.67,79.0,40.505989,-3.358662,603.5,3,5,276.7,0.703
23.78,1,-0.005,0.011,0.029,-0.018,-0.007,0.015,-1.57,-0.013,0.115,23.64,79.7,40.505997,-3.358918,603.5,3,5,275.6,1.055
23.88,1,-0.02,0.002,0.029,-0.014,-0.001,0.028,-1.574,-0.01,0.118,23.64,79.7,40.505997,-3.358918,603.5,3,5,275.6,1.055
23.98,1,-0.031,-0.006,0.047,-0.022,-0.002,0.029,-1.578,-0.007,0.12,23.64,79.7,40.505997,-3.358918,603.5,3,5,275.6,1.055
24.08,1,-0.007,0.039,0.009,-0.019,0.011,0.031,-1.586,-0.005,0.121,23.64,79.7,40.505997,-3.358918,603.5,3,5,275.6,1.055
24.18,1,0.012,0.0,0.016,-0.005,0.019,0.014,-1.585,-0.01,0.123,23.64,79.7,40.505997,-3.358918,603.5,3,5,275.6,1.055
24.28,1,0.004,0.025,-0.009,0.006,0.012,0.014,-1.586,-0.011,0.125,23.64,79.7,40.505997,-3.358918,603.5,3,5,275.6,1.055
24.38,1,-0.046,-0.006,0.017,-0.015,0.009,0.006,-1.589,-0.01,0.126,23.64,79.7,40.505997,-3.358918,603.5,3,5,275.6,1.055
24.48,1,-0.003,-0.006,0.012,-0.025,-0.003,0.012,-1.592,-0.007,0.128,23.64,79.7,40.505997,-3.358918,603.5,3,5,275.6,1.055
24.58,1,-0.033,-0.011,0.002,-0.022,-0.006,0.007,-1.593,-0.007,0.13,23.64,79.7,40.505997,-3.358918,603.5,3,5,275.6,1.055
24.69,1,0.033,-0.005,-0.006,-0.001,0.0,-0.006,-1.591,-0.007,0.132,23.64,79.7,40.505997,-3.358918,603.5,3,5,275.6,1.055
24.78,1,-0.054,0.02,-0.005,-0.012,-0.004,0.001,-1.591,-0.007,0.135,24.67,78.8,40.506016,-3.359176,603.4,3,5,275.6,1.055
24.89,1,0.018,-0.015,0.003,-0.006,0.002,-0.002,-1.591,-0.007,0.138,24.67,78.8,40.506016,-3.359176,603.4,3,5,275.6,1.055
24.98,1,-0.027,0.001,-0.011,-0.019,-0.002,-0.009,-1.592,-0.004,0.141,24.67,78.8,40.506016,-3.359176,603.4,3,5,275.6,1.055
25.08,1,-0.045,-0.042,-0.023,-0.026,-0.015,-0.008,-1.594,-0.002,0.145,24.67,78.8,40.506016,-3.359176,603.4,3,5,275.6,1.055
25.18,1,0.002,-0.044,0.002,-0.018,-0.032,-0.008,-1.594,0.0,0.149,24.67,78.8,40.506016,-3.359176,603.4,3,5,275.6,1.055
25.28,1,-0.048,-0.045,-0.037,-0.03,-0.041,-0.017,-1.594,0.001,0.152,24.67,78.8,40.506016,-3.359176,603.4,3,5,275.6,1.055
25.38,1,-0.036,-0.053,-0.015,-0.033,-0.044,-0.02,-1.596,0.002,0.156,24.67,78.8,40.506016,-3.359176,603.4,3,5,275.6,1.055
25.48,1,0.017,-0.028,-0.018,-0.016,-0.047,-0.018,-1.598,0.006,0.16,24.67,78.8,40.506016,-3.359176,603.4,3,5,275.6,1.055
25.58,1,-0.017,-0.005,-0.037,-0.004,-0.024,-0.03,-1.595,0.007,0.163,24.67,78.8,40.506016,-3.359176,603.4,3,5,275.6,1.055
25.68,1,0.009,-0.043,-0.015,0.005,-0.028,-0.025,-1.594,0.01,0.167,24.67,78.8,40.506016,-3.359176,603.4,3,5,275.6,1.055
25.78,1,0.021,-0.019,-0.009,-0.005,-0.027,-0.016,-1.594,0.011,0.171,25.64,80.2,40.506031,-3.359441,603.6,3,5,276.0,0.352
25.88,1,0.016,-0.038,-0.056,0.022,-0.031,-0.035,-1.592,0.008,0.175,25.64,80.2,40.506031,-3.359441,603.6,3,5,276.0,0.352
25.98,1,0.012,-0.042,-0.007,0.014,-0.033,-0.015,-1.591,0.011,0.178,25.64,80.2,40.506031,-3.359441,603.6,3,5,276.0,0.352
26.09,1,-0.039,-0.007,-0.035,-0.01,-0.022,-0.037,-1.591,0.011,0.182,25.64,80.2,40.506031,-3.359441,603.6,3,5,276.0,0.352
26.18,1,-0.068,-0.024,-0.032,-0.037,-0.023,-0.026,-1.59,0.014,0.186,25.64,80.2,40.506031,-3.359441,603.6,3,5,276.0,0.352
26.28,1,0.025,-0.004,-0.004,-0.013,-0.013,-0.021,-1.589,0.017,0.189,25.64,80.2,40.506031,-3.359441,603.6,3,5,276.0,0.352
26.38,1,0.016,0.009,-0.06,-0.0,-0.0,-0.04,-1.587,0.025,0.193,25.64,80.2,40.506031,-3.359441,603.6,3,5,276.0,0.352
26.49,1,-0.042,-0.013,-0.053,-0.013,-0.009,-0.036,-1.586,0.028,0.197,25.64,80.2,40.506031,-3.359441,603.6,3,5,276.0,0.352
26.59,1,-0.04,-0.047,-0.032,-0.041,-0.02,-0.044,-1.583,0.032,0.201,25.64,80.2,40.506031,-3.359441,603.6,3,5,276.0,0.352
26.69,1,-0.009,-0.016,-0.024,-0.025,-0.033,-0.033,-1.583,0.031,0.204,25.64,80.2,40.506031,-3.359441,603.6,3,5,276.0,0.352
26.79,1,0.035,0.07,-0.099,0.007,0.025,-0.058,-1.576,0.025,0.207,26.65,79.0,40.506035,-3.359691,602.7,3,5,271.4,4.57
26.89,1,-0.067,-0.014,-0.075,-0.013,0.009,-0.072,-1.576,0.025,0.211,26.65,79.0,40.506035,-3.359691,602.7,3,5,271.4,4.57
26.99,1,-0.016,0.015,-0.032,-0.024,0.014,-0.058,-1.578,0.024,0.214,26.65,79.0,40.506035,-3.359691,602.7,3,5,271.4,4.57
27.1,1,0.016,0.053,-0.062,-0.018,0.026,-0.056,-1.577,0.022,0.216,26.65,79.0,40.506035,-3.359691,602.7,3,5,271.4,4.57
27.19,1,-0.046,-0.001,-0.029,-0.011,0.015,-0.038,-1.573,0.022,0.217,26.65,79.0,40.506035,-3.359691,602.7,3,5,271.4,4.57
27.29,1,-0.025,0.044,-0.027,-0.027,0.033,-0.046,-1.568,0.017,0.22,26.65,79.0,40.506035,-3.359691,602.7,3,5,271.4,4.57
27.39,1,0.013,0.037,-0.077,-0.018,0.036,-0.047,-1.567,0.012,0.221,26.65,79.0,40.506035,-3.359691,602.7,3,5,271.4,4.57
27.49,1,0.002,0.035,-0.048,0.0,0.033,-0.047,-1.567,0.011,0.222,26.65,79.0,40.506035,-3.359691,602.7,3,5,271.4,4.57
27.59,1,-0.01,0.043,-0.015,-0.006,0.033,-0.038,-1.568,0.009,0.222,26.65,79.0,40.506035,-3.359691,602.7,3,5,271.4,4.57
27.69,1,-0.054,0.075,-0.052,-0.023,0.054,-0.046,-1.568,0.009,0.223,26.65,79.0,40.506035,-3.359691,602.7,3,5,271.4,4.57
27.79,1,-0.037,0.06,-0.039,-0.032,0.066,-0.04,-1.567,0.004,0.225,27.66,80.4,40.506027,-3.359956,603.1,3,5,269.6,6.328
27.89,1,-0.005,0.002,-0.024,-0.024,0.039,-0.029,-1.565,0.002,0.227,27.66,80.4,40.506027,-3.359956,603.1,3,5,269.6,6.328
27.99,1,0.011,0.023,-0.019,-0.002,0.022,-0.027,-1.565,0.002,0.228,27.66,80.4,40.506027,-3.359956,603.1,3,5,269.6,6.328
28.09,1,-0.045,0.037,-0.002,-0.023,0.029,-0.021,-1.563,0.001,0.23,27.66,80.4,40.506027,-3.359956,603.1,3,5,269.6,6.328
28.19,1,0.011,-0.019,-0.029,-0.012,0.009,-0.016,-1.562,-0.002,0.232,27.66,80.4,40.506027,-3.359956,603.1,3,5,269.6,6.328
28.29,1,-0.027,0.02,0.024,-0.019,0.012,-0.007,-1.562,-0.003,0.234,27.66,80.4,40.506027,-3.359956,603.1,3,5,269.6,6.328
28.39,1,-0.048,-0.0,0.005,-0.028,0.01,0.003,-1.564,-0.001,0.237,27.66,80.4,40.506027,-3.359956,603.1,3,5,269.6,6.328
28.5,1,-0.021,-0.026,0.078,-0.027,-0.016,0.034,-1.566,0.003,0.239,27.66,80.4,40.506027,-3.359956,603.1,3,5,269.6,6.328
28.59,1,-0.048,0.055,0.018,-0.036,0.009,0.042,-1.565,0.003,0.241,27.66,80.4,40.506027,-3.359956,603.1,3,5,269.6,6.328
28.69,1,-0.004,0.021,0.02,-0.026,0.026,0.031,-1.566,0.005,0.243,27.66,80.4,40.506027,-3.359956,603.1,3,5,269.6,6.328
28.79,1,0.001,-0.024,0.109,-0.012,0.005,0.063,-1.568,0.006,0.245,28.65,79.4,40.50602,-3.360218,603.0,3,5,268.9,2.461
28.89,1,-0.013,0.013,0.027,-0.009,0.002,0.057,-1.566,0.005,0.248,28.65,79.4,40.50602,-3.360218,603.0,3,5,268.9,2.461
29.0,1,-0.028,-0.011,0.014,-0.014,0.003,0.032,-1.566,0.004,0.251,28.65,79.4,40.50602,-3.360218,603.0,3,5,268.9,2.461
29.09,1,-0.031,0.03,0.032,-0.023,0.008,0.028,-1.568,0.005,0.253,28.65,79.4,40.50602,-3.360218,603.0,3,5,268.9,2.461
29.19,1,-0.07,0.011,-0.003,-0.038,0.017,0.012,-1.57,0.005,0.256,28.65,79.4,40.50602,-3.360218,603.0,3,5,268.9,2.461
29.29,1,-0.083,0.004,0.038,-0.076,0.006,0.022,-1.573,0.005,0.259,28.65,79.4,40.50602,-3.360218,603.0,3,5,268.9,2.461
29.39,1,-0.057,-0.004,0.038,-0.068,0.0,0.036,-1.574,0.005,0.262,28.65,79.4,40.50602,-3.360218,603.0,3,5,268.9,2.461
29.51,1,0.029,-0.025,0.056,-0.026,-0.008,0.044,-1.575,0.005,0.264,28.65,79.4,40.50602,-3.360218,603.0,3,5,268.9,2.461
29.59,1,0.036,-0.005,0.066,0.017,-0.012,0.048,-1.573,0.004,0.266,28.65,79.4,40.50602,-3.360218,603.0,3,5,268.9,2.461
29.71,1,-0.009,0.021,0.016,0.012,0.006,0.035,-1.572,0.003,0.269,28.65,79.4,40.50602,-3.360218,603.0,3,5,268.9,2.461
29.8,1,-0.085,0.006,0.019,-0.032,0.006,0.026,-1.574,0.004,0.271,29.63,79.1,40.506012,-3.36048,602.9,3,5,267.5,2.109
29.9,1,-0.051,-0.003,0.033,-0.054,0.002,0.041,-1.576,0.004,0.274,29.63,79.1,40.506012,-3.36048,602.9,3,5,267.5,2.109
30.0,1,-0.02,-0.022,0.021,-0.044,-0.008,0.022,-1.581,0.003,0.277,29.63,79.1,40.506012,-3.36048,602.9,3,5,267.5,2.109
30.1,1,-0.01,-0.049,0.066,-0.023,-0.024,0.042,-1.581,0.004,0.28,29.63,79.1,40.506012,-3.36048,602.9,3,5,267.5,2.109
30.2,1,-0.029,-0.043,0.008,-0.02,-0.037,0.024,-1.583,0.005,0.284,29.63,79.1,40.506012,-3.36048,602.9,3,5,267.5,2.109
30.3,1,0.001,-0.044,0.028,-0.016,-0.048,0.033,-1.587,0.009,0.289,29.63,79.1,40.506012,-3.36048,602.9,3,5,267.5,2.109
30.4,1,-0.022,-0.069,0.078,-0.016,-0.052,0.045,-1.588,0.014,0.294,29.63,79.1,40.506012,-3.36048,602.9,3,5,267.5,2.109
30.5,1,-0.017,-0.024,-0.001,-0.015,-0.045,0.035,-1.59,0.015,0.299,29.63,79.1,40.506012,-3.36048,602.9,3,5,267.5,2.109
30.6,1,-0.017,-0.085,0.075,-0.014,-0.06,0.041,-1.59,0.014,0.304,29.63,79.1,40.506012,-3.36048,602.9,3,5,267.5,2.109
30.7,1,0.035,-0.03,0.042,0.003,-0.047,0.048,-1.59,0.012,0.309,29.63,79.1,40.506012,-3.36048,602.9,3,5,267.5,2.109
30.8,1,0.042,-0.091,0.039,0.019,-0.055,0.049,-1.589,0.012,0.315,30.66,79.9,40.506001,-3.360733,603.3,3,5,265.1,3.867
30.9,1,-0.036,-0.1,0.055,0.01,-0.087,0.045,-1.586,0.012,0.32,30.66,79.9,40.506001,-3.360733,603.3,3,5,265.1,3.867
31.0,1,0.06,-0.046,0.075,0.018,-0.064,0.061,-1.586,0.014,0.326,30.66,79.9,40.506001,-3.360733,603.3,3,5,265.1,3.867
31.1,1,-0.068,-0.048,0.003,0.005,-0.063,0.04,-1.585,0.014,0.333,30.66,79.9,40.506001,-3.360733,603.3,3,5,265.1,3.867
31.2,1,-0.035,-0.055,0.058,-0.04,-0.055,0.036,-1.587,0.014,0.339,30.66,79.9,40.506001,-3.360733,603.3,3,5,265.1,3.867
31.3,1,-0.002,-0.056,0.069,-0.022,-0.065,0.062,-1.588,0.014,0.345,30.66,79.9,40.506001,-3.360733,603.3,3,5,265.1,3.867
31.4,1,-0.033,-0.016,0.06,-0.024,-0.041,0.056,-1.588,0.015,0.351,30.66,79.9,40.506001,-3.360733,603.3,3,5,265.1,3.867
31.5,1,0.002,-0.077,0.041,-0.017,-0.041,0.056,-1.588,0.016,0.356,30.66,79.9,40.506001,-3.360733,603.3,3,5,265.1,3.867
31.61,1,0.044,-0.044,0.068,0.011,-0.063,0.064,-1.587,0.015,0.36,30.66,79.9,40.506001,-3.360733,603.3,3,5,265.1,3.867
31.7,1,0.04,-0.029,0.073,0.043,-0.04,0.062,-1.586,0.013,0.364,30.66,79.9,40.506001,-3.360733,603.3,3,5,265.1,3.867
31.8,1,-0.002,0.034,0.015,0.021,-0.003,0.045,-1.586,0.01,0.367,31.64,80.9,40.50597,-3.360997,603.4,3,5,261.9,5.625
31.9,1,-0.06,0.027,0.064,-0.023,0.023,0.047,-1.591,0.009,0.37,31.64,80.9,40.50597,-3.360997,603.4,3,5,261.9,5.625
32.0,1,-0.063,0.051,0.057,-0.045,0.03,0.059,-1.598,0.01,0.373,31.64,80.9,40.50597,-3.360997,603.4,3,5,261.9,5.625
32.11,1,0.009,0.065,0.023,-0.033,0.052,0.035,-1.598,0.007,0.374,31.64,80.9,40.50597,-3.360997,603.4,3,5,261.9,5.625
32.22,1,0.019,0.074,0.068,0.007,0.055,0.048,-1.598,0.006,0.374,31.64,80.9,40.50597,-3.360997,603.4,3,5,261.9,5.625
32.3,1,-0.004,0.116,0.042,-0.003,0.087,0.052,-1.597,0.006,0.373,31.64,80.9,40.50597,-3.360997,603.4,3,5,261.9,5.625
32.4,1,-0.027,0.081,0.032,-0.02,0.09,0.042,-1.598,0.008,0.373,31.64,80.9,40.50597,-3.360997,603.4,3,5,261.9,5.625
32.5,1,-0.033,0.109,0.079,-0.026,0.099,0.045,-1.599,0.008,0.371,31.64,80.9,40.50597,-3.360997,603.4,3,5,261.9,5.625
32.6,1,-0.062,0.149,0.049,-0.029,0.103,0.058,-1.599,0.007,0.37,31.64,80.9,40.50597,-3.360997,603.4,3,5,261.9,5.625
32.7,1,-0.1,0.125,0.055,-0.057,0.132,0.067,-1.599,0.006,0.368,31.64,80.9,40.50597,-3.360997,603.4,3,5,261.9,5.625
32.82,1,0.013,0.095,0.037,-0.06,0.134,0.045,-1.598,0.006,0.368,32.65,83.0,40.505939,-3.361257,603.7,3,5,259.8,5.273
32.91,1,0.014,0.054,0.045,-0.003,0.087,0.044,-1.599,0.007,0.367,32.65,83.0,40.505939,-3.361257,603.7,3,5,259.8,5.273
33.01,1,-0.05,0.132,0.045,-0.026,0.097,0.044,-1.599,0.009,0.366,32.65,83.0,40.505939,-3.361257,603.7,3,5,259.8,5.273
33.11,1,-0.007,0.053,0.047,-0.022,0.085,0.044,-1.599,0.009,0.366,32.65,83.0,40.505939,-3.361257,603.7,3,5,259.8,5.273
33.21,1,0.029,0.107,0.017,0.01,0.088,0.038,-1.599,0.01,0.365,32.65,83.0,40.505939,-3.361257,603.7,3,5,259.8,5.273
33.31,1,-0.001,0.1,0.033,0.004,0.091,0.038,-1.599,0.01,0.364,32.65,83.0,40.505939,-3.361257,603.7,3,5,259.8,5.273
33.41,1,0.01,0.099,0.037,0.005,0.101,0.027,-1.599,0.009,0.363,32.65,83.0,40.505939,-3.361257,603.7,3,5,259.8,5.273
33.51,1,-0.013,0.091,0.043,-0.002,0.094,0.035,-1.599,0.009,0.362,32.65,83.0,40.505939,-3.361257,603.7,3,5,259.8,5.273
33.61,1,-0.047,0.098,0.018,-0.026,0.103,0.021,-1.6,0.009,0.362,32.65,83.0,40.505939,-3.361257,603.7,3,5,259.8,5.273
33.71,1,-0.014,0.06,0.051,-0.017,0.078,0.044,-1.6,0.009,0.362,32.65,83.0,40.505939,-3.361257,603.7,3,5,259.8,5.273
33.82,1,0.007,0.096,0.02,-0.013,0.084,0.034,-1.6,0.009,0.362,33.65,83.1,40.505905,-3.361523,603.5,3,5,260.2,1.758
33.91,1,0.021,0.052,0.024,0.005,0.067,0.035,-1.6,0.008,0.362,33.65,83.1,40.505905,-3.361523,603.5,3,5,260.2,1.758
34.02,1,0.023,0.073,0.036,0.022,0.058,0.035,-1.6,0.006,0.36,33.65,83.1,40.505905,-3.361523,603.5,3,5,260.2,1.758
34.11,1,-0.002,0.144,0.019,0.006,0.104,0.025,-1.601,0.004,0.359,33.65,83.1,40.505905,-3.361523,603.5,3,5,260.2,1.758
34.21,1,-0.007,0.112,0.045,-0.0,0.115,0.03,-1.6,0.004,0.358,33.65,83.1,40.505905,-3.361523,603.5,3,5,260.2,1.758
34.31,1,0.024,0.084,0.059,0.011,0.107,0.039,-1.599,0.005,0.357,33.65,83.1,40.505905,-3.361523,603.5,3,5,260.2,1.758
34.41,1,-0.058,0.106,0.014,-0.006,0.101,0.028,-1.599,0.005,0.356,33.65,83.1,40.505905,-3.361523,603.5,3,5,260.2,1.758
34.51,1,-0.016,0.064,0.056,-0.029,0.092,0.035,-1.601,0.006,0.356,33.65,83.1,40.505905,-3.361523,603.5,3,5,260.2,1.758
34.61,1,0.027,0.035,0.043,-0.003,0.06,0.052,-1.602,0.006,0.356,33.65,83.1,40.505905,-3.361523,603.5,3,5,260.2,1.758
34.71,1,-0.0,0.062,0.032,0.003,0.053,0.042,-1.6,0.006,0.357,33.65,83.1,40.505905,-3.361523,603.5,3,5,260.2,1.758
34.81,1,-0.04,0.059,-0.001,-0.009,0.058,0.026,-1.599,0.005,0.358,34.63,87.4,40.505867,-3.361807,604.4,3,5,259.8,0.352
34.91,1,-0.058,0.085,0.036,-0.048,0.062,0.035,-1.601,0.005,0.359,34.63,87.4,40.505867,-3.361807,604.4,3,5,259.8,0.352
35.01,1,-0.017,0.011,0.082,-0.035,0.045,0.055,-1.603,0.006,0.36,34.63,87.4,40.505867,-3.361807,604.4,3,5,259.8,0.352
35.11,1,0.003,0.034,0.015,-0.016,0.042,0.042,-1.602,0.005,0.362,34.63,87.4,40.505867,-3.361807,604.4,3,5,259.8,0.352
35.22,1,0.018,0.039,0.058,0.012,0.042,0.03,-1.602,0.005,0.363,34.63,87.4,40.505867,-3.361807,604.4,3,5,259.8,0.352
35.32,1,-0.06,0.012,0.023,-0.012,0.033,0.018,-1.603,0.006,0.365,34.63,87.4,40.505867,-3.361807,604.4,3,5,259.8,0.352
35.41,1,-0.049,0.008,0.044,-0.053,0.019,0.031,-1.604,0.005,0.368,34.63,87.4,40.505867,-3.361807,604.4,3,5,259.8,0.352
35.51,1,0.068,0.035,0.015,0.003,0.013,0.045,-1.603,0.005,0.369,34.63,87.4,40.505867,-3.361807,604.4,3,5,259.8,0.352
35.61,1,-0.002,0.019,0.041,0.011,0.02,0.047,-1.601,0.005,0.372,34.63,87.4,40.505867,-3.361807,604.4,3,5,259.8,0.352
35.71,1,-0.037,0.014,0.063,-0.005,0.022,0.033,-1.602,0.005,0.374,34.63,87.4,40.505867,-3.361807,604.4,3,5,259.8,0.352
35.81,1,-0.028,0.037,0.007,-0.021,0.029,0.018,-1.604,0.005,0.375,35.65,89.6,40.505821,-3.362099,605.1,3,5,259.1,1.055
35.91,1,0.02,0.024,0.032,-0.008,0.019,0.047,-1.603,0.005,0.377,35.65,89.6,40.505821,-3.362099,605.1,3,5,259.1,1.055
36.01,1,-0.012,0.043,0.052,-0.007,0.034,0.038,-1.602,0.005,0.378,35.65,89.6,40.505821,-3.362099,605.1,3,5,259.1,1.055
36.12,1,0.057,0.073,0.042,0.011,0.051,0.024,-1.602,0.005,0.38,35.65,89.6,40.505821,-3.362099,605.1,3,5,259.1,1.055
36.23,1,-0.008,0.036,0.059,0.018,0.046,0.061,-1.603,0.006,0.381,35.65,89.6,40.505821,-3.362099,605.1,3,5,259.1,1.055
36.32,1,0.035,-0.002,0.079,0.024,0.037,0.057,-1.602,0.005,0.383,35.65,89.6,40.505821,-3.362099,605.1,3,5,259.1,1.055
36.42,1,-0.024,0.065,-0.027,0.014,0.03,0.03,-1.603,0.004,0.384,35.65,89.6,40.505821,-3.362099,605.1,3,5,259.1,1.055
36.52,1,-0.051,0.043,0.067,-0.029,0.038,0.044,-1.604,0.004,0.386,35.65,89.6,40.505821,-3.362099,605.1,3,5,259.1,1.055
36.62,1,-0.036,0.099,0.038,-0.035,0.074,0.031,-1.604,0.006,0.387,35.65,89.6,40.505821,-3.362099,605.1,3,5,259.1,1.055
36.72,1,0.065,-0.031,0.042,0.009,0.029,0.062,-1.603,0.008,0.388,35.65,89.6,40.505821,-3.362099,605.1,3,5,259.1,1.055
36.82,1,0.052,-0.006,0.01,0.04,0.01,0.011,-1.602,0.009,0.39,36.64,91.7,40.505772,-3.362388,606.3,3,5,257.7,2.109
36.92,1,-0.061,0.051,0.008,0.003,0.012,0.03,-1.603,0.009,0.392,36.64,91.7,40.505772,-3.362388,606.3,3,5,257.7,2.109
37.02,1,-0.017,0.031,0.058,-0.022,0.043,0.017,-1.604,0.01,0.395,36.64,91.7,40.505772,-3.362388,606.3,3,5,257.7,2.109
37.12,1,-0.0,-0.024,0.033,-0.015,-0.001,0.052,-1.603,0.011,0.397,36.64,91.7,40.505772,-3.362388,606.3,3,5,257.7,2.109
37.22,1,-0.007,-0.015,0.023,-0.008,-0.005,0.018,-1.604,0.011,0.4,36.64,91.7,40.505772,-3.362388,606.3,3,5,257.7,2.109
37.32,1,-0.003,-0.035,0.084,-0.008,-0.023,0.062,-1.604,0.01,0.403,36.64,91.7,40.505772,-3.362388,606.3,3,5,257.7,2.109
37.42,1,0.006,-0.001,-0.031,0.005,-0.012,0.024,-1.603,0.011,0.407,36.64,91.7,40.505772,-3.362388,606.3,3,5,257.7,2.109
37.52,1,-0.053,-0.029,0.044,-0.019,-0.015,0.014,-1.608,0.02,0.412,36.64,91.7,40.505772,-3.362388,606.3,3,5,257.7,2.109
37.62,1,0.0,-0.031,0.031,-0.021,-0.028,0.037,-1.613,0.029,0.415,36.64,91.7,40.505772,-3.362388,606.3,3,5,257.7,2.109
37.72,1,-0.005,0.0,-0.021,-0.012,-0.019,0.007,-1.613,0.025,0.419,36.64,91.7,40.505772,-3.362388,606.3,3,5,257.7,2.109
37.82,1,0.043,-0.045,0.056,0.013,-0.027,0.021,-1.611,0.026,0.422,37.64,93.6,40.505718,-3.362688,606.5,3,5,256.6,2.461
37.92,1,-0.026,-0.017,0.032,0.0,-0.029,0.036,-1.624,0.022,0.426,37.64,93.6,40.505718,-3.362688,606.5,3,5,256.6,2.461
38.02,1,0.007,-0.034,-0.051,0.002,-0.023,-0.005,-1.63,0.023,0.43,37.64,93.6,40.505718,-3.362688,606.5,3,5,256.6,2.461
38.12,1,-0.04,-0.029,0.012,-0.012,-0.029,-0.007,-1.63,0.022,0.435,37.64,93.6,40.505718,-3.362688,606.5,3,5,256.6,2.461
38.22,1,-0.054,-0.063,0.03,-0.034,-0.04,0.013,-1.634,0.029,0.441,37.64,93.6,40.505718,-3.362688,606.5,3,5,256.6,2.461
38.32,1,-0.079,-0.053,0.018,-0.06,-0.055,0.018,-1.639,0.042,0.447,37.64,93.6,40.505718,-3.362688,606.5,3,5,256.6,2.461
38.42,1,-0.002,-0.052,0.007,-0.046,-0.048,0.015,-1.639,0.048,0.452,37.64,93.6,40.505718,-3.362688,606.5,3,5,256.6,2.461
38.52,1,0.013,-0.012,-0.045,-0.019,-0.033,-0.01,-1.637,0.052,0.457,37.64,93.6,40.505718,-3.362688,606.5,3,5,256.6,2.461
38.62,1,-0.034,0.003,-0.008,-0.007,-0.018,-0.026,-1.636,0.049,0.46,37.64,93.6,40.505718,-3.362688,606.5,3,5,256.6,2.461
38.72,1,0.002,0.012,-0.013,-0.015,0.001,-0.014,-1.636,0.047,0.464,37.64,93.6,40.505718,-3.362688,606.5,3,5,256.6,2.461
38.82,1,0.003,0.011,0.028,0.003,0.003,0.005,-1.638,0.044,0.468,38.64,95.3,40.505657,-3.362982,607.4,3,5,254.2,3.516
38.92,1,-0.026,0.025,-0.001,-0.012,0.017,0.005,-1.64,0.036,0.471,38.64,95.3,40.505657,-3.362982,607.4,3,5,254.2,3.516
39.02,1,-0.016,-0.023,0.023,-0.022,0.003,0.015,-1.646,0.037,0.474,38.64,95.3,40.505657,-3.362982,607.4,3,5,254.2,3.516
39.12,1,-0.066,0.04,0.031,-0.035,0.006,0.024,-1.652,0.036,0.477,38.64,95.3,40.505657,-3.362982,607.4,3,5,254.2,3.516
39.22,1,0.023,0.048,0.012,-0.013,0.029,0.019,-1.657,0.027,0.479,38.64,95.3,40.505657,-3.362982,607.4,3,5,254.2,3.516
39.33,1,-0.003,0.062,0.016,-0.005,0.052,0.019,-1.66,0.022,0.481,38.64,95.3,40.505657,-3.362982,607.4,3,5,254.2,3.516
39.43,1,-0.017,0.05,-0.013,-0.006,0.054,0.009,-1.659,0.018,0.482,38.64,95.3,40.505657,-3.362982,607.4,3,5,254.2,3.516
39.53,1,-0.021,0.027,-0.0,-0.02,0.04,-0.007,-1.658,0.013,0.483,38.64,95.3,40.505657,-3.362982,607.4,3,5,254.2,3.516
39.63,1,-0.031,0.066,-0.052,-0.018,0.048,-0.02,-1.655,0.005,0.484,38.64,95.3,40.505657,-3.362982,607.4,3,5,254.2,3.516
39.73,1,-0.03,0.045,-0.028,-0.033,0.054,-0.029,-1.651,-0.001,0.485,38.64,95.3,40.505657,-3.362982,607.4,3,5,254.2,3.516
39.83,1,-0.031,0.041,-0.017,-0.027,0.044,-0.027,-1.647,-0.005,0.487,39.64,97.0,40.505589,-3.363291,606.9,3,5,250.7,5.977
39.93,1,-0.047,0.057,-0.019,-0.044,0.052,-0.023,-1.647,-0.007,0.489,39.64,97.0,40.505589,-3.363291,606.9,3,5,250.7,5.977
40.03,1,-0.002,0.005,0.008,-0.024,0.034,-0.01,-1.648,-0.01,0.49,39.64,97.0,40.505589,-3.363291,606.9,3,5,250.7,5.977
40.13,1,-0.007,0.011,0.01,-0.007,0.015,0.005,-1.648,-0.014,0.492,39.64,97.0,40.505589,-3.363291,606.9,3,5,250.7,5.977
40.23,1,-0.037,0.042,-0.02,-0.022,0.028,-0.005,-1.647,-0.017,0.494,39.64,97.0,40.505589,-3.363291,606.9,3,5,250.7,5.977
40.33,1,0.026,0.01,-0.015,-0.011,0.027,-0.014,-1.647,-0.017,0.495,39.64,97.0,40.505589,-3.363291,606.9,3,5,250.7,5.977
40.43,1,-0.015,0.017,0.011,0.001,0.015,-0.006,-1.649,-0.019,0.496,39.64,97.0,40.505589,-3.363291,606.9,3,5,250.7,5.977
40.53,1,0.026,0.028,-0.038,0.007,0.03,-0.011,-1.649,-0.022,0.498,39.64,97.0,40.505589,-3.363291,606.9,3,5,250.7,5.977
40.63,1,0.043,0.007,-0.016,0.029,0.008,-0.019,-1.645,-0.028,0.499,39.64,97.0,40.505589,-3.363291,606.9,3,5,250.7,5.977
40.73,1,-0.024,0.029,-0.023,0.013,0.019,-0.022,-1.644,-0.028,0.5,39.64,97.0,40.505589,-3.363291,606.9,3,5,250.7,5.977
40.83,1,-0.077,0.042,-0.03,-0.034,0.027,-0.024,-1.644,-0.031,0.501,40.65,100.2,40.505505,-3.363603,605.9,3,5,248.9,5.273
40.93,1,-0.044,0.061,-0.01,-0.042,0.048,-0.022,-1.641,-0.037,0.501,40.65,100.2,40.505505,-3.363603,605.9,3,5,248.9,5.273
41.03,1,-0.039,0.011,0.012,-0.052,0.037,-0.003,-1.642,-0.036,0.502,40.65,100.2,40.505505,-3.363603,605.9,3,5,248.9,5.273
41.13,1,-0.025,0.017,0.007,-0.034,0.019,0.0,-1.64,-0.037,0.502,40.65,100.2,40.505505,-3.363603,605.9,3,5,248.9,5.273
41.23,1,-0.001,0.044,-0.023,-0.017,0.032,-0.001,-1.641,-0.041,0.502,40.65,100.2,40.505505,-3.363603,605.9,3,5,248.9,5.273
41.34,1,0.005,0.059,0.006,-0.005,0.042,-0.011,-1.64,-0.046,0.501,40.65,100.2,40.505505,-3.363603,605.9,3,5,248.9,5.273
41.43,1,0.0,0.06,-0.034,-0.006,0.055,-0.012,-1.641,-0.046,0.502,40.65,100.2,40.505505,-3.363603,605.9,3,5,248.9,5.273
41.53,1,-0.062,0.021,0.002,-0.027,0.044,-0.014,-1.638,-0.046,0.502,40.65,100.2,40.505505,-3.363603,605.9,3,5,248.9,5.273
41.63,1,0.006,0.03,-0.02,-0.019,0.031,-0.009,-1.637,-0.049,0.502,40.65,100.2,40.505505,-3.363603,605.9,3,5,248.9,5.273
41.74,1,-0.021,0.056,0.003,-0.009,0.039,-0.003,-1.64,-0.055,0.501,40.65,100.2,40.505505,-3.363603,605.9,3,5,248.9,5.273
41.83,1,-0.041,0.092,-0.057,-0.032,0.061,-0.031,-1.64,-0.058,0.501,41.64,102.6,40.505409,-3.363918,606.1,3,5,247.9,2.812
41.94,1,-0.047,0.015,0.029,-0.038,0.054,-0.005,-1.64,-0.063,0.5,41.64,102.6,40.505409,-3.363918,606.1,3,5,247.9,2.812
42.04,1,0.056,0.001,-0.009,-0.003,0.021,0.001,-1.639,-0.062,0.5,41.64,102.6,40.505409,-3.363918,606.1,3,5,247.9,2.812
42.13,1,0.05,-0.001,-0.007,0.039,0.009,-0.007,-1.638,-0.06,0.502,41.64,102.6,40.505409,-3.363918,606.1,3,5,247.9,2.812
42.23,1,-0.02,-0.0,-0.031,0.019,-0.002,-0.019,-1.641,-0.057,0.503,41.64,102.6,40.505409,-3.363918,606.1,3,5,247.9,2.812
42.34,1,0.002,-0.045,0.025,-0.004,-0.013,-0.005,-1.641,-0.057,0.504,41.64,102.6,40.505409,-3.363918,606.1,3,5,247.9,2.812
42.43,1,0.063,-0.043,0.002,0.026,-0.032,0.002,-1.64,-0.055,0.505,41.64,102.6,40.505409,-3.363918,606.1,3,5,247.9,2.812
42.54,1,-0.023,0.009,-0.03,0.012,-0.021,-0.01,-1.638,-0.057,0.507,41.64,102.6,40.505409,-3.363918,606.1,3,5,247.9,2.812
42.63,1,-0.044,-0.017,-0.015,-0.016,-0.012,-0.012,-1.636,-0.056,0.509,41.64,102.6,40.505409,-3.363918,606.1,3,5,247.9,2.812
42.73,1,-0.021,-0.041,0.007,-0.029,-0.025,-0.003,-1.636,-0.053,0.51,41.64,102.6,40.505409,-3.363918,606.1,3,5,247.9,2.812
42.84,1,-0.019,-0.068,-0.026,-0.018,-0.046,-0.014,-1.638,-0.045,0.514,42.64,104.3,40.50531,-3.364235,608.3,3,5,247.9,1.055
42.94,1,-0.024,-0.064,0.003,-0.015,-0.056,-0.009,-1.64,-0.042,0.517,42.64,104.3,40.50531,-3.364235,608.3,3,5,247.9,1.055
43.04,1,-0.011,-0.065,-0.019,-0.02,-0.06,-0.015,-1.637,-0.038,0.521,42.64,104.3,40.50531,-3.364235,608.3,3,5,247.9,1.055
43.14,1,0.003,-0.086,-0.007,-0.007,-0.075,-0.012,-1.633,-0.035,0.524,42.64,104.3,40.50531,-3.364235,608.3,3,5,247.9,1.055
43.24,1,-0.031,-0.04,-0.017,-0.017,-0.065,-0.01,-1.634,-0.03,0.527,42.64,104.3,40.50531,-3.364235,608.3,3,5,247.9,1.055
43.34,1,-0.025,-0.032,-0.016,-0.018,-0.041,-0.009,-1.634,-0.028,0.53,42.64,104.3,40.50531,-3.364235,608.3,3,5,247.9,1.055
43.44,1,-0.07,-0.003,-0.013,-0.046,-0.029,-0.012,-1.633,-0.028,0.532,42.64,104.3,40.50531,-3.364235,608.3,3,5,247.9,1.055
43.54,1,-0.008,-0.041,-0.022,-0.035,-0.022,-0.024,-1.632,-0.028,0.534,42.64,104.3,40.50531,-3.364235,608.3,3,5,247.9,1.055
43.64,1,0.021,-0.04,0.028,-0.004,-0.043,0.005,-1.634,-0.024,0.535,42.64,104.3,40.50531,-3.364235,608.3,3,5,247.9,1.055
43.75,1,-0.0,0.001,0.018,0.005,-0.015,0.005,-1.631,-0.023,0.537,42.64,104.3,40.50531,-3.364235,608.3,3,5,247.9,1.055
43.84,1,0.005,0.021,-0.021,-0.001,-0.003,0.012,-1.631,-0.024,0.538,43.64,107.8,40.505207,-3.364564,610.1,3,5,247.9,0.0
43.94,1,-0.045,0.02,0.003,-0.011,0.018,-0.01,-1.631,-0.025,0.54,43.64,107.8,40.505207,-3.364564,610.1,3,5,247.9,0.0
44.04,1,0.029,-0.008,-0.011,-0.015,0.008,-0.003,-1.632,-0.024,0.541,43.64,107.8,40.505207,-3.364564,610.1,3,5,247.9,0.0
44.14,1,-0.101,0.024,-0.012,-0.049,0.014,-0.009,-1.632,-0.022,0.542,43.64,107.8,40.505207,-3.364564,610.1,3,5,247.9,0.0
44.24,1,0.033,-0.009,0.019,-0.017,-0.001,0.002,-1.633,-0.018,0.544,43.64,107.8,40.505207,-3.364564,610.1,3,5,247.9,0.0
44.35,1,0.078,0.008,-0.029,0.039,-0.004,-0.008,-1.633,-0.02,0.544,43.64,107.8,40.505207,-3.364564,610.1,3,5,247.9,0.0
44.45,1,-0.073,0.034,0.006,-0.008,0.019,-0.006,-1.633,-0.021,0.545,43.64,107.8,40.505207,-3.364564,610.1,3,5,247.9,0.0
44.54,1,-0.06,0.082,-0.027,-0.03,0.044,-0.009,-1.634,-0.021,0.546,43.64,107.8,40.505207,-3.364564,610.1,3,5,247.9,0.0
44.64,1,0.123,-0.04,0.042,0.013,0.02,0.007,-1.634,-0.021,0.547,43.64,107.8,40.505207,-3.364564,610.1,3,5,247.9,0.0
44.74,1,0.043,-0.01,-0.041,0.047,-0.001,-0.01,-1.632,-0.02,0.548,43.64,107.8,40.505207,-3.364564,610.1,3,5,247.9,0.0
44.84,1,-0.009,-0.004,0.007,0.035,-0.005,-0.007,-1.637,-0.019,0.55,44.63,109.3,40.505096,-3.364893,611.2,3,5,246.1,1.758
44.95,1,-0.078,0.006,-0.012,-0.036,0.003,-0.01,-1.641,-0.017,0.553,44.63,109.3,40.505096,-3.364893,611.2,3,5,246.1,1.758
45.05,1,0.071,-0.088,-0.026,0.01,-0.028,-0.011,-1.641,-0.016,0.556,44.63,109.3,40.505096,-3.364893,611.2,3,5,246.1,1.758
45.14,1,-0.054,-0.072,-0.024,0.012,-0.073,-0.017,-1.64,-0.016,0.559,44.63,109.3,40.505096,-3.364893,611.2,3,5,246.1,1.758
45.24,1,0.015,-0.007,-0.016,-0.015,-0.035,-0.022,-1.64,-0.017,0.562,44.63,109.3,40.505096,-3.364893,611.2,3,5,246.1,1.758
45.35,1,0.035,-0.068,-0.015,0.02,-0.049,-0.02,-1.64,-0.016,0.564,44.63,109.3,40.505096,-3.364893,611.2,3,5,246.1,1.758
45.44,1,-0.049,-0.002,-0.036,-0.009,-0.04,-0.023,-1.639,-0.017,0.567,44.63,109.3,40.505096,-3.364893,611.2,3,5,246.1,1.758
45.55,1,0.028,-0.094,0.016,-0.001,-0.043,-0.015,-1.639,-0.019,0.57,44.63,109.3,40.505096,-3.364893,611.2,3,5,246.1,1.758
45.65,1,-0.017,-0.015,-0.027,0.01,-0.055,-0.006,-1.638,-0.022,0.572,44.63,109.3,40.505096,-3.364893,611.2,3,5,246.1,1.758
45.74,1,-0.14,0.056,-0.036,-0.074,0.007,-0.031,-1.638,-0.023,0.575,44.63,109.3,40.505096,-3.364893,611.2,3,5,246.1,1.758
45.85,1,0.039,-0.075,-0.021,-0.043,-0.013,-0.026,-1.64,-0.022,0.578,45.64,112.7,40.504971,-3.36523,611.6,3,5,244.0,3.867
45.95,1,-0.051,-0.075,0.043,-0.039,-0.058,0.007,-1.641,-0.02,0.581,45.64,112.7,40.504971,-3.36523,611.6,3,5,244.0,3.867
46.05,1,0.017,-0.069,-0.018,-0.001,-0.054,0.005,-1.64,-0.019,0.584,45.64,112.7,40.504971,-3.36523,611.6,3,5,244.0,3.867
46.16,1,-0.082,-0.003,0.02,-0.026,-0.049,0.006,-1.641,-0.02,0.585,45.64,112.7,40.504971,-3.36523,611.6,3,5,244.0,3.867
46.25,1,0.01,0.008,0.012,-0.05,-0.001,0.011,-1.641,-0.019,0.588,45.64,112.7,40.504971,-3.36523,611.6,3,5,244.0,3.867
46.35,1,-0.022,-0.038,-0.037,0.005,-0.022,-0.006,-1.641,-0.017,0.59,45.64,112.7,40.504971,-3.36523,611.6,3,5,244.0,3.867
46.45,1,-0.104,0.036,-0.019,-0.061,-0.004,-0.021,-1.641,-0.013,0.593,45.64,112.7,40.504971,-3.36523,611.6,3,5,244.0,3.867
46.55,1,0.012,-0.083,0.014,-0.034,-0.025,-0.006,-1.641,-0.011,0.595,45.64,112.7,40.504971,-3.36523,611.6,3,5,244.0,3.867
46.65,1,-0.06,0.025,-0.046,-0.046,-0.027,-0.013,-1.641,-0.009,0.597,45.64,112.7,40.504971,-3.36523,611.6,3,5,244.0,3.867
46.76,1,-0.038,-0.003,-0.031,-0.032,0.004,-0.034,-1.641,-0.006,0.599,45.64,112.7,40.504971,-3.36523,611.6,3,5,244.0,3.867
46.86,1,-0.008,0.022,0.005,-0.041,0.005,-0.013,-1.642,-0.005,0.601,46.64,113.8,40.504841,-3.365564,609.2,3,5,242.2,3.867
46.95,1,0.016,-0.027,-0.024,0.009,-0.0,-0.014,-1.641,-0.004,0.602,46.64,113.8,40.504841,-3.365564,609.2,3,5,242.2,3.867
47.05,1,0.004,0.052,-0.03,-0.011,0.01,-0.029,-1.642,-0.003,0.603,46.64,113.8,40.504841,-3.365564,609.2,3,5,242.2,3.867
47.15,1,0.067,0.032,-0.002,0.037,0.033,-0.016,-1.643,0.001,0.605,46.64,113.8,40.504841,-3.365564,609.2,3,5,242.2,3.867
47.25,1,-0.008,0.027,-0.027,0.019,0.022,-0.012,-1.645,0.012,0.606,46.64,113.8,40.504841,-3.365564,609.2,3,5,242.2,3.867
47.35,1,-0.005,0.083,-0.047,-0.002,0.053,-0.033,-1.648,0.027,0.608,46.64,113.8,40.504841,-3.365564,609.2,3,5,242.2,3.867
47.45,1,0.032,0.031,0.007,0.029,0.055,-0.019,-1.649,0.036,0.608,46.64,113.8,40.504841,-3.365564,609.2,3,5,242.2,3.867
47.55,1,-0.036,0.05,-0.024,-0.005,0.04,-0.015,-1.649,0.039,0.609,46.64,113.8,40.504841,-3.365564,609.2,3,5,242.2,3.867
47.65,1,-0.012,0.041,-0.05,-0.003,0.046,-0.032,-1.648,0.041,0.611,46.64,113.8,40.504841,-3.365564,609.2,3,5,242.2,3.867
47.75,1,-0.028,0.051,-0.058,-0.034,0.045,-0.049,-1.638,0.038,0.611,46.64,113.8,40.504841,-3.365564,609.2,3,5,242.2,3.867
47.85,1,-0.05,0.007,-0.077,-0.032,0.029,-0.058,-1.626,0.024,0.612,47.67,116.0,40.504692,-3.3659,607.4,3,5,240.5,3.516
47.95,1,-0.03,0.039,-0.096,-0.056,0.035,-0.081,-1.618,0.017,0.613,47.67,116.0,40.504692,-3.3659,607.4,3,5,240.5,3.516
48.05,1,0.035,-0.064,-0.09,0.015,-0.011,-0.084,-1.613,0.018,0.614,47.67,116.0,40.504692,-3.3659,607.4,3,5,240.5,3.516
48.15,1,0.002,0.033,-0.117,0.002,0.003,-0.106,-1.606,0.021,0.615,47.67,116.0,40.504692,-3.3659,607.4,3,5,240.5,3.516
48.25,1,-0.052,-0.002,-0.102,-0.008,0.001,-0.103,-1.599,0.03,0.616,47.67,116.0,40.504692,-3.3659,607.4,3,5,240.5,3.516
48.35,1,-0.004,0.05,-0.073,-0.022,0.02,-0.094,-1.584,0.029,0.616,47.67,116.0,40.504692,-3.3659,607.4,3,5,240.5,3.516
48.46,1,0.068,0.006,-0.09,0.03,0.021,-0.076,-1.577,0.024,0.616,47.67,116.0,40.504692,-3.3659,607.4,3,5,240.5,3.516
48.55,1,0.008,0.016,-0.059,0.002,0.022,-0.084,-1.57,0.019,0.616,47.67,116.0,40.504692,-3.3659,607.4,3,5,240.5,3.516
48.66,1,-0.013,0.031,-0.066,0.015,0.018,-0.068,-1.563,0.01,0.615,47.67,116.0,40.504692,-3.3659,607.4,3,5,240.5,3.516
48.75,1,0.056,0.039,-0.019,0.017,0.033,-0.045,-1.56,0.007,0.615,47.67,116.0,40.504692,-3.3659,607.4,3,5,240.5,3.516
48.85,1,-0.106,0.016,-0.035,-0.016,0.023,-0.039,-1.559,0.014,0.614,48.64,118.3,40.504536,-3.366238,608.5,3,5,239.1,3.164
48.95,1,0.014,0.055,-0.048,-0.03,0.042,-0.042,-1.559,0.018,0.613,48.64,118.3,40.504536,-3.366238,608.5,3,5,239.1,3.164
49.06,1,-0.02,0.02,-0.055,-0.014,0.034,-0.043,-1.558,0.021,0.613,48.64,118.3,40.504536,-3.366238,608.5,3,5,239.1,3.164
49.15,1,-0.01,0.03,-0.014,-0.001,0.035,-0.046,-1.555,0.022,0.612,48.64,118.3,40.504536,-3.366238,608.5,3,5,239.1,3.164
49.26,1,0.001,0.029,-0.028,-0.012,0.025,-0.026,-1.549,0.023,0.611,48.64,118.3,40.504536,-3.366238,608.5,3,5,239.1,3.164
49.35,1,0.097,0.063,-0.058,0.038,0.045,-0.036,-1.544,0.027,0.611,48.64,118.3,40.504536,-3.366238,608.5,3,5,239.1,3.164
49.46,1,-0.025,0.013,-0.012,0.025,0.03,-0.034,-1.54,0.026,0.61,48.64,118.3,40.504536,-3.366238,608.5,3,5,239.1,3.164
49.56,1,0.043,0.01,-0.003,0.014,0.022,-0.015,-1.543,0.034,0.61,48.64,118.3,40.504536,-3.366238,608.5,3,5,239.1,3.164
49.66,1,-0.042,0.018,-0.031,0.001,0.006,-0.015,-1.545,0.035,0.61,48.64,118.3,40.504536,-3.366238,608.5,3,5,239.1,3.164
49.76,1,-0.078,0.101,-0.026,-0.042,0.057,-0.035,-1.545,0.039,0.61,48.64,118.3,40.504536,-3.366238,608.5,3,5,239.1,3.164
49.86,1,0.055,0.012,-0.011,-0.011,0.052,-0.016,-1.542,0.033,0.609,49.64,118.0,40.504379,-3.366569,609.0,3,5,238.0,2.461
49.97,1,0.013,0.022,0.002,0.017,0.016,-0.003,-1.543,0.037,0.608,49.64,118.0,40.504379,-3.366569,609.0,3,5,238.0,2.461
50.06,1,-0.05,0.065,-0.012,-0.019,0.052,-0.01,-1.542,0.038,0.607,49.64,118.0,40.504379,-3.366569,609.0,3,5,238.0,2.461
50.16,1,0.007,0.008,0.027,-0.008,0.033,0.006,-1.543,0.038,0.606,49.64,118.0,40.504379,-3.366569,609.0,3,5,238.0,2.461
50.26,1,-0.0,0.053,0.017,-0.007,0.037,0.012,-1.544,0.037,0.606,49.64,118.0,40.504379,-3.366569,609.0,3,5,238.0,2.461
50.36,1,0.013,0.009,0.06,0.007,0.028,0.036,-1.549,0.036,0.605,49.64,118.0,40.504379,-3.366569,609.0,3,5,238.0,2.461
50.46,1,-0.042,0.043,-0.002,-0.016,0.029,0.021,-1.552,0.032,0.604,49.64,118.0,40.504379,-3.366569,609.0,3,5,238.0,2.461
50.56,1,-0.007,0.029,0.045,-0.013,0.033,0.032,-1.557,0.025,0.603,49.64,118.0,40.504379,-3.366569,609.0,3,5,238.0,2.461
50.66,1,-0.073,0.047,0.013,-0.035,0.038,0.023,-1.558,0.022,0.602,49.64,118.0,40.504379,-3.366569,609.0,3,5,238.0,2.461
50.76,1,0.073,0.05,0.003,-0.0,0.039,0.013,-1.558,0.018,0.601,49.64,118.0,40.504379,-3.366569,609.0,3,5,238.0,2.461
50.87,1,-0.022,0.013,0.03,0.005,0.036,0.022,-1.558,0.015,0.599,50.64,117.0,40.504223,-3.366898,608.4,3,5,237.7,1.406
50.97,1,0.017,0.017,0.01,-0.005,0.02,0.011,-1.557,0.018,0.598,50.64,117.0,40.504223,-3.366898,608.4,3,5,237.7,1.406
51.07,1,-0.01,0.055,0.022,0.004,0.036,0.02,-1.558,0.019,0.596,50.64,117.0,40.504223,-3.366898,608.4,3,5,237.7,1.406
51.17,1,0.014,0.052,0.019,0.001,0.05,0.02,-1.557,0.02,0.595,50.64,117.0,40.504223,-3.366898,608.4,3,5,237.7,1.406
51.26,1,-0.003,0.027,0.019,0.012,0.037,0.018,-1.556,0.02,0.593,50.64,117.0,40.504223,-3.366898,608.4,3,5,237.7,1.406
51.36,1,0.004,0.025,0.013,0.001,0.036,0.015,-1.555,0.014,0.592,50.64,117.0,40.504223,-3.366898,608.4,3,5,237.7,1.406
51.46,1,0.025,0.024,0.025,0.005,0.02,0.022,-1.557,0.011,0.59,50.64,117.0,40.504223,-3.366898,608.4,3,5,237.7,1.406
51.56,1,-0.031,0.032,-0.021,0.012,0.028,0.005,-1.556,0.009,0.589,50.64,117.0,40.504223,-3.366898,608.4,3,5,237.7,1.406
51.67,1,-0.067,0.038,0.02,-0.041,0.035,0.002,-1.558,0.009,0.587,50.64,117.0,40.504223,-3.366898,608.4,3,5,237.7,1.406
51.76,1,0.029,0.007,0.032,-0.022,0.029,0.021,-1.563,0.009,0.586,50.64,117.0,40.504223,-3.366898,608.4,3,5,237.7,1.406
51.86,1,0.026,-0.022,-0.024,0.016,-0.006,0.002,-1.563,0.002,0.584,51.67,117.1,40.504059,-3.367221,608.6,3,5,237.3,0.703
51.96,1,0.017,0.042,0.002,0.021,0.019,-0.001,-1.562,-0.001,0.582,51.67,117.1,40.504059,-3.367221,608.6,3,5,237.3,0.703
52.07,1,0.037,0.034,-0.0,0.015,0.024,0.001,-1.561,-0.002,0.581,51.67,117.1,40.504059,-3.367221,608.6,3,5,237.3,0.703
52.16,1,-0.025,0.04,-0.019,0.024,0.037,-0.011,-1.561,0.0,0.579,51.67,117.1,40.504059,-3.367221,608.6,3,5,237.3,0.703
52.27,1,-0.012,0.035,0.005,-0.019,0.04,-0.007,-1.56,0.001,0.577,51.67,117.1,40.504059,-3.367221,608.6,3,5,237.3,0.703
52.37,1,0.05,0.056,0.031,0.013,0.043,0.014,-1.559,0.001,0.576,51.67,117.1,40.504059,-3.367221,608.6,3,5,237.3,0.703
52.46,1,-0.014,-0.013,0.026,0.024,0.02,0.023,-1.56,0.001,0.574,51.67,117.1,40.504059,-3.367221,608.6,3,5,237.3,0.703
52.57,1,-0.008,0.05,-0.048,-0.011,0.029,-0.006,-1.563,0.001,0.572,51.67,117.1,40.504059,-3.367221,608.6,3,5,237.3,0.703
52.67,1,0.001,0.007,0.043,-0.017,0.019,0.009,-1.568,-0.001,0.57,51.67,117.1,40.504059,-3.367221,608.6,3,5,237.3,0.703
52.77,1,-0.081,0.043,-0.002,-0.036,0.02,0.006,-1.566,-0.0,0.569,51.67,117.1,40.504059,-3.367221,608.6,3,5,237.3,0.703
52.87,1,-0.013,-0.018,0.045,-0.028,0.014,0.02,-1.569,-0.003,0.568,52.68,117.9,40.503895,-3.367544,607.8,3,5,237.0,0.703
52.97,1,0.026,0.001,-0.017,-0.009,0.007,0.007,-1.573,-0.003,0.567,52.68,117.9,40.503895,-3.367544,607.8,3,5,237.0,0.703
53.07,1,-0.04,0.002,0.012,0.004,0.002,0.01,-1.572,-0.0,0.566,52.68,117.9,40.503895,-3.367544,607.8,3,5,237.0,0.703
53.17,1,0.018,-0.025,-0.004,-0.013,-0.005,0.004,-1.573,0.001,0.565,52.68,117.9,40.503895,-3.367544,607.8,3,5,237.0,0.703
53.27,1,-0.002,-0.011,0.018,0.002,-0.025,0.01,-1.575,0.002,0.563,52.68,117.9,40.503895,-3.367544,607.8,3,5,237.0,0.703
53.37,1,-0.014,0.014,0.003,-0.018,0.009,0.007,-1.576,-0.006,0.562,52.68,117.9,40.503895,-3.367544,607.8,3,5,237.0,0.703
53.48,1,-0.049,-0.0,0.008,-0.024,0.0,0.006,-1.577,-0.006,0.561,52.68,117.9,40.503895,-3.367544,607.8,3,5,237.0,0.703
53.57,1,0.049,0.0,0.017,0.006,-0.001,0.013,-1.579,-0.007,0.56,52.68,117.9,40.503895,-3.367544,607.8,3,5,237.0,0.703
53.67,1,-0.043,0.021,-0.029,0.001,0.001,-0.002,-1.577,-0.01,0.559,52.68,117.9,40.503895,-3.367544,607.8,3,5,237.0,0.703
53.77,1,-0.001,-0.045,0.012,-0.006,-0.002,-0.003,-1.577,-0.009,0.558,52.68,117.9,40.503895,-3.367544,607.8,3,5,237.0,0.703
53.87,1,-0.022,0.017,-0.007,-0.021,-0.007,-0.003,-1.579,-0.013,0.557,53.63,118.7,40.503735,-3.36787,607.4,3,5,237.3,0.352
53.97,1,0.008,0.016,0.006,-0.016,0.006,0.002,-1.581,-0.015,0.555,53.63,118.7,40.503735,-3.36787,607.4,3,5,237.3,0.352
54.07,1,0.042,-0.014,0.027,0.017,0.009,0.012,-1.583,-0.014,0.554,53.63,118.7,40.503735,-3.36787,607.4,3,5,237.3,0.352
54.17,1,0.062,0.032,0.015,0.023,0.007,0.013,-1.582,-0.013,0.553,53.63,118.7,40.503735,-3.36787,607.4,3,5,237.3,0.352
54.27,1,0.123,-0.054,-0.01,0.095,-0.009,0.008,-1.578,-0.014,0.552,53.63,118.7,40.503735,-3.36787,607.4,3,5,237.3,0.352
54.37,1,0.016,-0.008,-0.034,0.063,-0.024,-0.015,-1.578,-0.012,0.55,53.63,118.7,40.503735,-3.36787,607.4,3,5,237.3,0.352
54.47,1,-0.114,0.04,-0.01,-0.011,0.002,-0.016,-1.581,-0.017,0.548,53.63,118.7,40.503735,-3.36787,607.4,3,5,237.3,0.352
54.57,1,-0.067,0.023,0.007,-0.066,0.026,-0.009,-1.584,-0.02,0.547,53.63,118.7,40.503735,-3.36787,607.4,3,5,237.3,0.352
54.67,1,-0.132,-0.016,-0.017,-0.089,0.0,-0.005,-1.585,-0.021,0.546,53.63,118.7,40.503735,-3.36787,607.4,3,5,237.3,0.352
54.77,1,-0.055,-0.018,-0.023,-0.094,-0.003,-0.016,-1.584,-0.016,0.545,53.63,118.7,40.503735,-3.36787,607.4,3,5,237.3,0.352
54.87,1,-0.005,-0.059,0.024,-0.036,-0.031,-0.002,-1.587,-0.016,0.544,54.65,119.2,40.503567,-3.368198,607.3,3,5,236.6,0.703
54.97,1,-0.002,0.021,-0.007,-0.031,-0.015,-0.001,-1.586,-0.021,0.542,54.65,119.2,40.503567,-3.368198,607.3,3,5,236.6,0.703
55.07,1,0.019,0.0,-0.021,0.01,-0.006,-0.003,-1.584,-0.027,0.541,54.65,119.2,40.503567,-3.368198,607.3,3,5,236.6,0.703
55.18,1,-0.05,-0.027,-0.011,-0.018,-0.005,-0.016,-1.583,-0.027,0.54,54.65,119.2,40.503567,-3.368198,607.3,3,5,236.6,0.703
55.27,1,-0.1,-0.022,-0.005,-0.046,-0.024,-0.013,-1.585,-0.029,0.539,54.65,119.2,40.503567,-3.368198,607.3,3,5,236.6,0.703
55.37,1,-0.088,0.03,-0.019,-0.099,-0.001,-0.01,-1.586,-0.031,0.537,54.65,119.2,40.503567,-3.368198,607.3,3,5,236.6,0.703
55.47,1,0.011,-0.037,-0.002,-0.038,-0.001,-0.008,-1.588,-0.03,0.536,54.65,119.2,40.503567,-3.368198,607.3,3,5,236.6,0.703
55.57,1,-0.04,-0.017,-0.023,-0.031,-0.02,-0.005,-1.588,-0.027,0.534,54.65,119.2,40.503567,-3.368198,607.3,3,5,236.6,0.703
55.67,1,-0.018,0.009,-0.009,-0.028,-0.006,-0.016,-1.586,-0.029,0.533,54.65,119.2,40.503567,-3.368198,607.3,3,5,236.6,0.703
55.78,1,-0.025,-0.028,-0.011,-0.017,-0.017,-0.016,-1.588,-0.03,0.531,54.65,119.2,40.503567,-3.368198,607.3,3,5,236.6,0.703
55.87,1,-0.064,0.01,-0.024,-0.048,-0.008,-0.015,-1.59,-0.032,0.53,55.63,120.2,40.503403,-3.368531,606.7,3,5,237.3,0.703
55.99,1,-0.028,-0.001,-0.03,-0.036,0.001,-0.025,-1.588,-0.031,0.528,55.63,120.2,40.503403,-3.368531,606.7,3,5,237.3,0.703
56.08,1,0.002,0.003,-0.026,-0.024,0.001,-0.022,-1.589,-0.035,0.527,55.63,120.2,40.503403,-3.368531,606.7,3,5,237.3,0.703
56.18,1,-0.047,-0.007,-0.037,-0.028,-0.005,-0.036,-1.587,-0.036,0.525,55.63,120.2,40.503403,-3.368531,606.7,3,5,237.3,0.703
56.28,1,-0.053,-0.003,-0.024,-0.032,-0.003,-0.028,-1.589,-0.033,0.524,55.63,120.2,40.503403,-3.368531,606.7,3,5,237.3,0.703
56.38,1,0.006,-0.047,0.004,-0.027,-0.022,-0.012,-1.59,-0.03,0.522,55.63,120.2,40.503403,-3.368531,606.7,3,5,237.3,0.703
56.48,1,0.017,-0.05,-0.022,0.003,-0.036,-0.012,-1.588,-0.03,0.521,55.63,120.2,40.503403,-3.368531,606.7,3,5,237.3,0.703
56.59,1,0.009,0.005,-0.048,0.012,-0.023,-0.038,-1.587,-0.033,0.519,55.63,120.2,40.503403,-3.368531,606.7,3,5,237.3,0.703
56.68,1,-0.025,-0.01,-0.039,-0.008,-0.007,-0.035,-1.587,-0.033,0.518,55.63,120.2,40.503403,-3.368531,606.7,3,5,237.3,0.703
56.78,1,-0.043,-0.045,-0.012,-0.035,-0.028,-0.027,-1.585,-0.033,0.518,55.63,120.2,40.503403,-3.368531,606.7,3,5,237.3,0.703
56.88,1,-0.042,-0.011,-0.028,-0.036,-0.025,-0.024,-1.582,-0.031,0.517,56.72,122.5,40.503235,-3.368874,606.3,3,5,237.5,0.904
56.98,1,0.03,-0.032,-0.017,-0.014,-0.024,-0.024,-1.577,-0.028,0.516,56.72,122.5,40.503235,-3.368874,606.3,3,5,237.5,0.904
57.08,1,-0.043,0.04,-0.028,-0.009,-0.007,-0.024,-1.576,-0.03,0.514,56.72,122.5,40.503235,-3.368874,606.3,3,5,237.5,0.904
57.18,1,-0.003,0.059,-0.015,-0.022,0.039,-0.015,-1.576,-0.032,0.512,56.72,122.5,40.503235,-3.368874,606.3,3,5,237.5,0.904
57.28,1,0.038,0.015,-0.005,0.005,0.025,-0.011,-1.573,-0.034,0.51,56.72,122.5,40.503235,-3.368874,606.3,3,5,237.5,0.904
57.38,1,-0.041,0.059,-0.006,0.01,0.036,-0.012,-1.57,-0.039,0.507,56.72,122.5,40.503235,-3.368874,606.3,3,5,237.5,0.904
57.48,1,0.079,0.067,-0.009,0.018,0.062,-0.015,-1.57,-0.045,0.502,56.72,122.5,40.503235,-3.368874,606.3,3,5,237.5,0.904
57.59,1,-0.017,0.125,-0.012,0.016,0.085,-0.011,-1.569,-0.053,0.497,56.72,122.5,40.503235,-3.368874,606.3,3,5,237.5,0.904
57.68,1,-0.008,0.118,0.025,-0.001,0.11,0.012,-1.567,-0.066,0.492,56.72,122.5,40.503235,-3.368874,606.3,3,5,237.5,0.904
57.78,1,-0.049,0.117,-0.03,-0.019,0.114,-0.009,-1.567,-0.071,0.486,56.72,122.5,40.503235,-3.368874,606.3,3,5,237.5,0.904
57.88,1,-0.008,0.113,-0.004,-0.031,0.12,-0.011,-1.57,-0.081,0.481,57.66,122.9,40.503067,-3.369216,607.4,3,5,237.5,0.201
57.98,1,-0.007,0.076,-0.001,-0.004,0.093,-0.006,-1.57,-0.085,0.476,57.66,122.9,40.503067,-3.369216,607.4,3,5,237.5,0.201
58.08,1,-0.014,0.089,-0.012,-0.014,0.089,-0.006,-1.569,-0.089,0.472,57.66,122.9,40.503067,-3.369216,607.4,3,5,237.5,0.201
58.18,1,-0.025,0.101,-0.003,-0.013,0.093,-0.003,-1.569,-0.095,0.466,57.66,122.9,40.503067,-3.369216,607.4,3,5,237.5,0.201
58.28,1,-0.01,0.059,0.02,-0.024,0.086,0.0,-1.569,-0.102,0.46,57.66,122.9,40.503067,-3.369216,607.4,3,5,237.5,0.201
58.38,1,-0.015,0.067,-0.013,-0.01,0.068,0.004,-1.571,-0.112,0.454,57.66,122.9,40.503067,-3.369216,607.4,3,5,237.5,0.201
58.49,1,-0.031,0.062,-0.01,-0.024,0.069,-0.009,-1.57,-0.116,0.451,57.66,122.9,40.503067,-3.369216,607.4,3,5,237.5,0.201
58.59,1,0.013,-0.025,0.042,-0.015,0.03,0.009,-1.571,-0.116,0.448,57.66,122.9,40.503067,-3.369216,607.4,3,5,237.5,0.201
58.69,1,-0.043,-0.036,-0.017,-0.016,-0.008,0.011,-1.57,-0.112,0.447,57.66,122.9,40.503067,-3.369216,607.4,3,5,237.5,0.201
58.79,1,-0.036,-0.12,0.004,-0.03,-0.062,0.002,-1.571,-0.109,0.447,57.66,122.9,40.503067,-3.369216,607.4,3,5,237.5,0.201
58.89,1,-0.025,-0.115,0.011,-0.032,-0.101,0.006,-1.572,-0.109,0.446,58.63,123.6,40.502907,-3.369552,606.0,3,5,236.7,0.765
59.0,1,-0.023,-0.088,0.005,-0.028,-0.099,0.005,-1.573,-0.108,0.445,58.63,123.6,40.502907,-3.369552,606.0,3,5,236.7,0.765
59.09,1,0.024,-0.139,-0.001,-0.001,-0.112,0.005,-1.576,-0.096,0.444,58.63,123.6,40.502907,-3.369552,606.0,3,5,236.7,0.765
59.18,1,0.034,-0.136,0.021,0.018,-0.128,0.01,-1.579,-0.09,0.444,58.63,123.6,40.502907,-3.369552,606.0,3,5,236.7,0.765
59.29,1,-0.036,-0.092,-0.022,-0.007,-0.109,-0.005,-1.578,-0.073,0.446,58.63,123.6,40.502907,-3.369552,606.0,3,5,236.7,0.765
59.39,1,-0.046,-0.178,0.01,-0.016,-0.138,0.003,-1.578,-0.057,0.449,58.63,123.6,40.502907,-3.369552,606.0,3,5,236.7,0.765
59.49,1,-0.007,-0.179,0.017,-0.028,-0.163,0.004,-1.575,-0.034,0.453,58.63,123.6,40.502907,-3.369552,606.0,3,5,236.7,0.765
59.59,1,0.027,-0.168,0.023,-0.001,-0.171,0.016,-1.578,-0.014,0.456,58.63,123.6,40.502907,-3.369552,606.0,3,5,236.7,0.765
59.79,1,-0.001,-0.063,0.001,0.022,-0.107,-0.008,-1.583,0.003,0.458,58.63,123.6,40.502907,-3.369552,606.0,3,5,236.7,0.765
59.89,1,0.013,-0.034,0.008,0.014,-0.06,0.0,-1.583,0.009,0.458,58.63,123.6,40.502907,-3.369552,606.0,3,5,236.7,0.765
59.99,1,0.052,-0.099,0.054,0.028,-0.07,0.023,-1.582,0.009,0.46,59.65,123.7,40.50275,-3.369901,606.2,3,5,237.0,0.496
60.1,1,-0.118,-0.034,-0.032,-0.029,-0.063,0.003,-1.58,0.015,0.462,59.65,123.7,40.50275,-3.369901,606.2,3,5,237.0,0.496
60.2,1,-0.019,-0.103,0.008,-0.045,-0.072,0.006,-1.581,0.017,0.464,59.65,123.7,40.50275,-3.369901,606.2,3,5,237.0,0.496
60.29,1,-0.022,-0.091,-0.036,-0.02,-0.094,-0.011,-1.581,0.016,0.465,59.65,123.7,40.50275,-3.369901,606.2,3,5,237.0,0.496
60.39,1,-0.054,-0.076,0.014,-0.042,-0.085,-0.01,-1.582,0.02,0.467,59.65,123.7,40.50275,-3.369901,606.2,3,5,237.0,0.496
60.49,1,-0.053,-0.053,-0.029,-0.046,-0.068,-0.016,-1.578,0.027,0.469,59.65,123.7,40.50275,-3.369901,606.2,3,5,237.0,0.496
60.59,1,0.016,-0.066,0.003,-0.028,-0.065,-0.005,-1.579,0.034,0.47,59.65,123.7,40.50275,-3.369901,606.2,3,5,237.0,0.496
60.69,1,0.016,-0.037,-0.009,0.002,-0.051,-0.008,-1.576,0.037,0.472,59.65,123.7,40.50275,-3.369901,606.2,3,5,237.0,0.496
60.8,1,0.044,-0.006,0.003,0.03,-0.034,0.0,-1.575,0.039,0.472,59.65,123.7,40.50275,-3.369901,606.2,3,5,237.0,0.496
60.89,1,-0.035,0.019,0.002,-0.004,-0.004,-0.004,-1.576,0.039,0.473,59.65,123.7,40.50275,-3.369901,606.2,3,5,237.0,0.496
60.99,1,0.016,-0.004,0.007,-0.002,0.001,0.008,-1.578,0.039,0.473,60.71,124.7,40.502594,-3.37025,607.6,3,5,237.0,0.27
61.09,1,-0.07,0.027,-0.005,-0.023,0.01,-0.002,-1.578,0.036,0.473,60.71,124.7,40.502594,-3.37025,607.6,3,5,237.0,0.27
61.19,1,0.01,0.03,-0.004,-0.021,0.027,-0.002,-1.582,0.032,0.472,60.71,124.7,40.502594,-3.37025,607.6,3,5,237.0,0.27
61.3,1,-0.01,0.023,-0.026,-0.007,0.021,-0.007,-1.582,0.03,0.472,60.71,124.7,40.502594,-3.37025,607.6,3,5,237.0,0.27
61.39,1,0.025,0.024,-0.001,-0.005,0.023,-0.014,-1.584,0.027,0.471,60.71,124.7,40.502594,-3.37025,607.6,3,5,237.0,0.27
61.5,1,-0.069,0.023,-0.047,-0.016,0.021,-0.026,-1.585,0.024,0.471,60.71,124.7,40.502594,-3.37025,607.6,3,5,237.0,0.27
61.59,1,-0.021,0.023,0.008,-0.03,0.025,-0.015,-1.586,0.019,0.469,60.71,124.7,40.502594,-3.37025,607.6,3,5,237.0,0.27
61.69,1,-0.003,0.031,-0.041,-0.016,0.026,-0.021,-1.583,0.015,0.468,60.71,124.7,40.502594,-3.37025,607.6,3,5,237.0,0.27
61.79,1,-0.043,0.043,-0.032,-0.019,0.037,-0.029,-1.583,0.015,0.467,60.71,124.7,40.502594,-3.37025,607.6,3,5,237.0,0.27
61.9,1,-0.004,0.027,-0.027,-0.023,0.035,-0.03,-1.581,0.016,0.466,60.71,124.7,40.502594,-3.37025,607.6,3,5,237.0,0.27
61.99,1,0.005,0.04,-0.01,-0.001,0.028,-0.022,-1.581,0.016,0.465,61.7,125.8,40.502419,-3.370627,606.8,3,5,237.4,0.365
62.09,1,0.013,0.034,-0.008,0.004,0.04,-0.016,-1.58,0.013,0.464,61.7,125.8,40.502419,-3.370627,606.8,3,5,237.4,0.365
62.19,1,0.0,0.02,-0.008,0.002,0.027,-0.005,-1.576,0.011,0.463,61.7,125.8,40.502419,-3.370627,606.8,3,5,237.4,0.365
62.29,1,-0.033,0.041,-0.005,-0.014,0.036,-0.012,-1.575,0.008,0.462,61.7,125.8,40.502419,-3.370627,606.8,3,5,237.4,0.365
62.39,1,-0.003,0.006,-0.019,-0.011,0.02,-0.002,-1.575,0.003,0.461,61.7,125.8,40.502419,-3.370627,606.8,3,5,237.4,0.365
62.5,1,-0.038,0.031,-0.015,-0.026,0.022,-0.021,-1.577,0.003,0.46,61.7,125.8,40.502419,-3.370627,606.8,3,5,237.4,0.365
62.6,1,0.018,-0.011,-0.009,-0.004,0.014,-0.016,-1.578,0.003,0.46,61.7,125.8,40.502419,-3.370627,606.8,3,5,237.4,0.365
62.7,1,-0.031,-0.017,-0.025,-0.012,-0.006,-0.016,-1.579,0.004,0.459,61.7,125.8,40.502419,-3.370627,606.8,3,5,237.4,0.365
62.8,1,-0.039,0.021,-0.037,-0.028,0.007,-0.029,-1.578,0.006,0.458,61.7,125.8,40.502419,-3.370627,606.8,3,5,237.4,0.365
62.9,1,-0.1,0.047,-0.036,-0.059,0.024,-0.022,-1.578,0.008,0.457,61.7,125.8,40.502419,-3.370627,606.8,3,5,237.4,0.365
63.0,1,0.02,0.046,-0.004,-0.028,0.033,-0.022,-1.577,0.009,0.457,62.66,126.4,40.502262,-3.370972,605.0,3,5,241.4,4.414
63.11,1,0.092,-0.019,-0.027,0.029,0.02,-0.021,-1.577,0.011,0.456,62.66,126.4,40.502262,-3.370972,605.0,3,5,241.4,4.414
63.2,1,-0.033,0.023,-0.075,0.005,0.016,-0.05,-1.575,0.012,0.456,62.66,126.4,40.502262,-3.370972,605.0,3,5,241.4,4.414
63.3,1,0.023,0.028,-0.051,0.005,0.016,-0.044,-1.57,0.007,0.454,62.66,126.4,40.502262,-3.370972,605.0,3,5,241.4,4.414
63.4,1,0.049,0.008,-0.072,0.015,0.018,-0.067,-1.569,0.004,0.454,62.66,126.4,40.502262,-3.370972,605.0,3,5,241.4,4.414
63.5,1,-0.053,0.005,-0.093,0.007,0.007,-0.073,-1.568,0.006,0.454,62.66,126.4,40.502262,-3.370972,605.0,3,5,241.4,4.414
63.6,1,-0.051,-0.023,-0.076,-0.036,-0.001,-0.083,-1.563,0.006,0.455,62.66,126.4,40.502262,-3.370972,605.0,3,5,241.4,4.414
63.7,1,0.006,-0.057,-0.058,-0.013,-0.033,-0.064,-1.56,0.005,0.454,62.66,126.4,40.502262,-3.370972,605.0,3,5,241.4,4.414
63.8,1,-0.046,0.024,-0.083,-0.022,-0.011,-0.077,-1.56,0.003,0.454,62.66,126.4,40.502262,-3.370972,605.0,3,5,241.4,4.414
63.91,1,-0.005,-0.025,-0.061,-0.022,-0.008,-0.075,-1.559,0.003,0.454,62.66,126.4,40.502262,-3.370972,605.0,3,5,241.4,4.414
64.0,1,0.036,-0.034,-0.054,0.01,-0.027,-0.054,-1.557,0.005,0.454,63.66,126.8,40.502083,-3.371308,605.3,3,5,237.3,4.12
64.1,1,-0.032,0.017,-0.06,-0.004,-0.011,-0.064,-1.546,0.004,0.454,63.66,126.8,40.502083,-3.371308,605.3,3,5,237.3,4.12
64.2,1,0.022,-0.014,-0.036,0.002,-0.002,-0.05,-1.542,-0.0,0.454,63.66,126.8,40.502083,-3.371308,605.3,3,5,237.3,4.12
64.31,1,-0.061,0.01,-0.064,-0.017,0.0,-0.057,-1.54,0.0,0.453,63.66,126.8,40.502083,-3.371308,605.3,3,5,237.3,4.12
64.4,1,0.015,0.003,-0.039,-0.021,0.005,-0.042,-1.538,0.001,0.453,63.66,126.8,40.502083,-3.371308,605.3,3,5,237.3,4.12
64.5,1,0.033,0.014,-0.039,0.017,0.0,-0.039,-1.535,-0.0,0.453,63.66,126.8,40.502083,-3.371308,605.3,3,5,237.3,4.12
64.6,1,-0.056,0.001,-0.04,-0.006,0.002,-0.049,-1.534,-0.001,0.452,63.66,126.8,40.502083,-3.371308,605.3,3,5,237.3,4.12
64.7,1,-0.029,-0.005,-0.027,-0.027,0.008,-0.036,-1.533,0.001,0.452,63.66,126.8,40.502083,-3.371308,605.3,3,5,237.3,4.12
64.8,1,-0.011,0.021,-0.007,-0.02,0.011,-0.024,-1.533,0.002,0.451,63.66,126.8,40.502083,-3.371308,605.3,3,5,237.3,4.12
64.91,1,0.049,0.015,-0.004,-0.002,0.013,-0.01,-1.531,-0.001,0.451,63.66,126.8,40.502083,-3.371308,605.3,3,5,237.3,4.12
65.0,1,0.01,0.022,-0.029,0.027,0.006,-0.013,-1.529,-0.006,0.449,64.63,126.3,40.501911,-3.371656,604.4,3,5,237.3,4.12
65.11,1,0.016,0.029,-0.005,0.011,0.029,-0.014,-1.524,-0.003,0.448,64.63,126.3,40.501911,-3.371656,604.4,3,5,237.3,4.12
65.2,1,0.014,0.04,-0.017,0.01,0.034,-0.023,-1.519,-0.005,0.447,64.63,126.3,40.501911,-3.371656,604.4,3,5,237.3,4.12
65.3,1,-0.032,0.038,-0.008,0.002,0.033,-0.008,-1.519,-0.005,0.446,64.63,126.3,40.501911,-3.371656,604.4,3,5,237.3,4.12
65.4,1,0.039,0.006,-0.024,0.012,0.031,-0.016,-1.516,-0.007,0.446,64.63,126.3,40.501911,-3.371656,604.4,3,5,237.3,4.12
65.5,1,-0.024,0.002,0.0,-0.001,0.008,-0.006,-1.515,-0.008,0.445,64.63,126.3,40.501911,-3.371656,604.4,3,5,237.3,4.12
65.61,1,-0.08,0.018,0.016,-0.044,0.009,0.002,-1.516,-0.012,0.443,64.63,126.3,40.501911,-3.371656,604.4,3,5,237.3,4.12
65.72,1,-0.0,0.035,0.009,-0.038,0.025,0.011,-1.52,-0.015,0.443,64.63,126.3,40.501911,-3.371656,604.4,3,5,237.3,4.12
65.82,1,-0.019,0.006,-0.004,-0.012,0.019,-0.002,-1.521,-0.019,0.442,64.63,126.3,40.501911,-3.371656,604.4,3,5,237.3,4.12
65.91,1,0.034,0.004,-0.007,0.003,0.012,-0.002,-1.523,-0.021,0.441,64.63,126.3,40.501911,-3.371656,604.4,3,5,237.3,4.12
66.01,1,-0.047,-0.019,-0.009,-0.017,-0.001,-0.009,-1.524,-0.021,0.441,65.65,124.5,40.501743,-3.371997,604.0,3,5,237.0,0.352
66.11,1,-0.008,0.037,-0.021,-0.01,0.006,-0.011,-1.522,-0.022,0.44,65.65,124.5,40.501743,-3.371997,604.0,3,5,237.0,0.352
66.21,1,-0.015,-0.005,0.008,-0.02,0.008,-0.006,-1.522,-0.021,0.439,65.65,124.5,40.501743,-3.371997,604.0,3,5,237.0,0.352
66.31,1,0.03,-0.039,-0.009,0.008,-0.013,-0.006,-1.521,-0.02,0.438,65.65,124.5,40.501743,-3.371997,604.0,3,5,237.0,0.352
66.41,1,-0.004,0.017,-0.002,0.005,-0.002,-0.001,-1.52,-0.021,0.438,65.65,124.5,40.501743,-3.371997,604.0,3,5,237.0,0.352
66.51,1,-0.011,-0.005,0.003,-0.006,-0.003,-0.004,-1.519,-0.022,0.438,65.65,124.5,40.501743,-3.371997,604.0,3,5,237.0,0.352
66.61,1,-0.029,-0.005,0.015,-0.008,-0.003,0.004,-1.522,-0.023,0.437,65.65,124.5,40.501743,-3.371997,604.0,3,5,237.0,0.352
66.71,1,0.009,0.007,0.01,-0.022,0.002,0.016,-1.521,-0.022,0.437,65.65,124.5,40.501743,-3.371997,604.0,3,5,237.0,0.352
66.81,1,0.012,-0.025,-0.0,0.018,-0.012,0.005,-1.519,-0.021,0.436,65.65,124.5,40.501743,-3.371997,604.0,3,5,237.0,0.352
66.91,1,0.003,0.018,0.001,0.003,-0.003,-0.001,-1.519,-0.022,0.436,65.65,124.5,40.501743,-3.371997,604.0,3,5,237.0,0.352
67.02,1,-0.019,-0.015,0.001,-0.008,-0.004,-0.002,-1.52,-0.025,0.435,66.65,122.9,40.501579,-3.372339,603.3,3,5,237.3,0.352
67.11,1,-0.003,-0.018,0.005,-0.011,-0.01,0.008,-1.521,-0.026,0.435,66.65,122.9,40.501579,-3.372339,603.3,3,5,237.3,0.352
67.21,1,-0.015,-0.005,-0.007,-0.006,-0.013,0.003,-1.517,-0.026,0.435,66.65,122.9,40.501579,-3.372339,603.3,3,5,237.3,0.352
67.31,1,-0.021,-0.018,-0.003,-0.012,-0.009,-0.009,-1.516,-0.023,0.435,66.65,122.9,40.501579,-3.372339,603.3,3,5,237.3,0.352
67.41,1,-0.018,0.021,0.023,-0.022,0.002,0.012,-1.516,-0.025,0.433,66.65,122.9,40.501579,-3.372339,603.3,3,5,237.3,0.352
67.53,1,-0.052,0.022,0.002,-0.026,0.01,0.009,-1.519,-0.028,0.432,66.65,122.9,40.501579,-3.372339,603.3,3,5,237.3,0.352
67.61,1,-0.006,-0.014,0.021,-0.026,0.011,0.011,-1.521,-0.028,0.432,66.65,122.9,40.501579,-3.372339,603.3,3,5,237.3,0.352
67.71,1,-0.047,-0.012,0.027,-0.035,-0.018,0.02,-1.521,-0.025,0.431,66.65,122.9,40.501579,-3.372339,603.3,3,5,237.3,0.352
67.81,1,-0.011,-0.053,0.025,-0.023,-0.024,0.026,-1.524,-0.022,0.43,66.65,122.9,40.501579,-3.372339,603.3,3,5,237.3,0.352
67.91,1,0.012,-0.009,0.023,-0.013,-0.027,0.022,-1.524,-0.021,0.43,66.65,122.9,40.501579,-3.372339,603.3,3,5,237.3,0.352
68.02,1,-0.019,-0.04,0.016,-0.007,-0.025,0.02,-1.525,-0.021,0.429,67.64,121.7,40.501411,-3.372673,602.8,3,5,237.3,0.352
68.12,1,-0.033,0.003,0.017,-0.015,-0.016,0.013,-1.527,-0.021,0.429,67.64,121.7,40.501411,-3.372673,602.8,3,5,237.3,0.352
68.22,1,-0.006,0.006,0.024,-0.031,-0.005,0.025,-1.528,-0.02,0.429,67.64,121.7,40.501411,-3.372673,602.8,3,5,237.3,0.352
68.31,1,0.047,-0.066,0.038,0.014,-0.024,0.03,-1.527,-0.019,0.429,67.64,121.7,40.501411,-3.372673,602.8,3,5,237.3,0.352
68.41,1,0.013,-0.034,0.021,0.027,-0.044,0.03,-1.528,-0.018,0.429,67.64,121.7,40.501411,-3.372673,602.8,3,5,237.3,0.352
68.52,1,-0.049,0.022,0.012,-0.013,-0.011,0.012,-1.529,-0.019,0.429,67.64,121.7,40.501411,-3.372673,602.8,3,5,237.3,0.352
68.62,1,-0.087,-0.02,0.052,-0.049,-0.009,0.037,-1.532,-0.018,0.429,67.64,121.7,40.501411,-3.372673,602.8,3,5,237.3,0.352
68.71,1,-0.098,0.043,0.023,-0.07,0.011,0.033,-1.53,-0.014,0.429,67.64,121.7,40.501411,-3.372673,602.8,3,5,237.3,0.352
68.81,1,0.059,-0.022,0.021,-0.026,0.007,0.023,-1.532,-0.011,0.43,67.64,121.7,40.501411,-3.372673,602.8,3,5,237.3,0.352
68.91,1,0.095,-0.058,0.026,0.043,-0.031,0.024,-1.533,-0.011,0.429,67.64,121.7,40.501411,-3.372673,602.8,3,5,237.3,0.352
69.02,1,-0.037,0.057,0.007,0.006,0.006,0.012,-1.534,-0.011,0.429,68.64,120.7,40.501251,-3.373007,602.7,3,5,237.3,0.0
69.12,1,0.037,0.029,0.041,0.028,0.027,0.028,-1.536,-0.011,0.429,68.64,120.7,40.501251,-3.373007,602.7,3,5,237.3,0.0
69.22,1,-0.018,-0.021,0.056,-0.011,-0.005,0.043,-1.536,-0.008,0.428,68.64,120.7,40.501251,-3.373007,602.7,3,5,237.3,0.0
69.32,1,-0.036,-0.018,0.026,-0.003,-0.002,0.037,-1.534,-0.01,0.429,68.64,120.7,40.501251,-3.373007,602.7,3,5,237.3,0.0
69.42,1,0.048,0.003,0.048,0.007,-0.003,0.038,-1.534,-0.013,0.428,68.64,120.7,40.501251,-3.373007,602.7,3,5,237.3,0.0
69.52,1,0.026,0.028,0.011,0.023,0.005,0.035,-1.534,-0.012,0.428,68.64,120.7,40.501251,-3.373007,602.7,3,5,237.3,0.0
69.62,1,0.038,-0.024,0.03,0.036,-0.0,0.029,-1.536,-0.008,0.428,68.64,120.7,40.501251,-3.373007,602.7,3,5,237.3,0.0
69.82,1,0.012,0.009,0.021,0.021,0.011,0.022,-1.539,-0.004,0.428,68.64,120.7,40.501251,-3.373007,602.7,3,5,237.3,0.0
69.92,1,-0.033,0.008,0.001,-0.015,0.007,0.013,-1.544,-0.002,0.428,68.64,120.7,40.501251,-3.373007,602.7,3,5,237.3,0.0
70.02,1,-0.081,0.004,-0.002,-0.046,0.006,0.001,-1.549,-0.001,0.428,68.64,120.7,40.501251,-3.373007,602.7,3,5,237.3,0.0
70.12,1,-0.024,0.023,0.025,-0.038,0.015,0.014,-1.547,-0.0,0.427,69.68,120.3,40.501087,-3.373336,602.2,3,5,237.3,0.0
70.22,1,0.009,0.036,0.019,-0.03,0.024,0.014,-1.542,-0.002,0.427,69.68,120.3,40.501087,-3.373336,602.2,3,5,237.3,0.0
70.32,1,0.028,-0.048,0.036,0.028,-0.004,0.034,-1.542,-0.003,0.427,69.68,120.3,40.501087,-3.373336,602.2,3,5,237.3,0.0
70.42,1,-0.003,0.016,0.024,-0.012,-0.001,0.021,-1.542,-0.006,0.427,69.68,120.3,40.501087,-3.373336,602.2,3,5,237.3,0.0
70.52,1,-0.01,0.0,0.004,0.0,-0.003,0.016,-1.541,-0.002,0.427,69.68,120.3,40.501087,-3.373336,602.2,3,5,237.3,0.0
70.63,1,-0.006,0.022,0.047,-0.002,0.012,0.024,-1.543,-0.002,0.426,69.68,120.3,40.501087,-3.373336,602.2,3,5,237.3,0.0
70.72,1,-0.034,0.022,0.01,-0.016,0.014,0.03,-1.546,-0.005,0.426,69.68,120.3,40.501087,-3.373336,602.2,3,5,237.3,0.0
70.82,1,0.009,-0.051,0.083,-0.007,-0.001,0.037,-1.544,-0.009,0.426,69.68,120.3,40.501087,-3.373336,602.2,3,5,237.3,0.0
70.92,1,0.037,-0.02,0.01,0.012,-0.025,0.039,-1.544,-0.004,0.426,69.68,120.3,40.501087,-3.373336,602.2,3,5,237.3,0.0
71.03,1,-0.144,0.046,0.006,-0.045,0.002,0.018,-1.545,-0.005,0.425,69.68,120.3,40.501087,-3.373336,602.2,3,5,237.3,0.0
71.12,1,0.003,0.023,0.028,-0.065,0.027,0.019,-1.546,-0.005,0.425,70.67,120.6,40.500923,-3.373674,601.7,3,5,237.3,0.0
71.23,1,-0.023,0.002,0.0,-0.016,0.014,0.016,-1.546,-0.006,0.424,70.67,120.6,40.500923,-3.373674,601.7,3,5,237.3,0.0
71.33,1,0.024,0.021,0.004,-0.01,0.011,0.012,-1.546,-0.008,0.424,70.67,120.6,40.500923,-3.373674,601.7,3,5,237.3,0.0
71.42,1,0.023,0.004,0.034,0.025,0.013,0.019,-1.545,-0.015,0.423,70.67,120.6,40.500923,-3.373674,601.7,3,5,237.3,0.0
71.53,1,-0.021,-0.001,0.013,-0.014,0.001,0.015,-1.546,-0.018,0.423,70.67,120.6,40.500923,-3.373674,601.7,3,5,237.3,0.0
71.62,1,-0.092,0.026,-0.005,-0.036,0.006,0.014,-1.545,-0.02,0.422,70.67,120.6,40.500923,-3.373674,601.7,3,5,237.3,0.0
71.72,1,-0.015,0.017,-0.009,-0.039,0.028,-0.004,-1.545,-0.021,0.422,70.67,120.6,40.500923,-3.373674,601.7,3,5,237.3,0.0
71.83,1,-0.014,-0.044,0.013,-0.028,-0.011,0.003,-1.546,-0.02,0.422,70.67,120.6,40.500923,-3.373674,601.7,3,5,237.3,0.0
71.93,1,-0.012,0.002,0.0,-0.009,-0.014,0.005,-1.547,-0.023,0.422,70.67,120.6,40.500923,-3.373674,601.7,3,5,237.3,0.0
72.03,1,0.009,0.008,0.012,-0.002,0.0,0.006,-1.547,-0.023,0.421,70.67,120.6,40.500923,-3.373674,601.7,3,5,237.3,0.0
72.12,1,-0.013,-0.01,0.019,-0.001,0.002,0.012,-1.55,-0.023,0.421,71.65,120.7,40.500759,-3.374008,601.8,3,5,237.3,0.0
72.23,1,0.024,-0.004,-0.02,0.004,-0.002,-0.003,-1.553,-0.023,0.422,71.65,120.7,40.500759,-3.374008,601.8,3,5,237.3,0.0
72.33,1,-0.049,-0.046,-0.008,-0.017,-0.025,-0.005,-1.554,-0.02,0.422,71.65,120.7,40.500759,-3.374008,601.8,3,5,237.3,0.0
72.44,1,0.021,-0.01,0.014,-0.014,-0.024,0.001,-1.555,-0.018,0.423,71.65,120.7,40.500759,-3.374008,601.8,3,5,237.3,0.0
72.54,1,0.02,-0.002,-0.018,0.019,-0.021,0.001,-1.555,-0.018,0.422,71.65,120.7,40.500759,-3.374008,601.8,3,5,237.3,0.0
72.63,1,-0.026,-0.037,0.022,-0.004,-0.006,-0.005,-1.555,-0.017,0.423,71.65,120.7,40.500759,-3.374008,601.8,3,5,237.3,0.0
72.73,1,-0.006,-0.031,0.003,-0.002,-0.03,0.007,-1.552,-0.018,0.423,71.65,120.7,40.500759,-3.374008,601.8,3,5,237.3,0.0
72.83,1,-0.054,0.027,-0.005,-0.033,-0.011,0.006,-1.553,-0.017,0.423,71.65,120.7,40.500759,-3.374008,601.8,3,5,237.3,0.0
72.93,1,-0.018,-0.005,0.023,-0.036,0.01,0.008,-1.552,-0.016,0.423,71.65,120.7,40.500759,-3.374008,601.8,3,5,237.3,0.0
73.04,1,0.001,-0.017,0.024,-0.007,-0.012,0.018,-1.552,-0.018,0.423,71.65,120.7,40.500759,-3.374008,601.8,3,5,237.3,0.0
73.13,1,-0.049,0.005,0.031,-0.026,-0.008,0.021,-1.553,-0.018,0.423,72.71,120.9,40.500595,-3.37434,601.3,3,5,237.3,0.0
73.23,1,0.031,-0.002,0.046,-0.015,0.004,0.036,-1.556,-0.019,0.423,72.71,120.9,40.500595,-3.37434,601.3,3,5,237.3,0.0
73.33,1,-0.001,-0.006,0.028,0.006,-0.009,0.037,-1.56,-0.018,0.422,72.71,120.9,40.500595,-3.37434,601.3,3,5,237.3,0.0
73.43,1,-0.026,-0.024,0.015,0.003,-0.006,0.024,-1.562,-0.016,0.423,72.71,120.9,40.500595,-3.37434,601.3,3,5,237.3,0.0
73.53,1,-0.047,-0.026,-0.025,-0.039,-0.022,-0.0,-1.56,-0.018,0.423,72.71,120.9,40.500595,-3.37434,601.3,3,5,237.3,0.0
73.64,1,-0.015,0.002,-0.015,-0.021,-0.016,-0.001,-1.557,-0.019,0.423,72.71,120.9,40.500595,-3.37434,601.3,3,5,237.3,0.0
73.74,1,-0.004,-0.031,0.024,-0.026,-0.013,-0.007,-1.555,-0.016,0.423,72.71,120.9,40.500595,-3.37434,601.3,3,5,237.3,0.0
73.83,1,0.02,-0.057,-0.011,0.007,-0.037,-0.001,-1.556,-0.013,0.424,72.71,120.9,40.500595,-3.37434,601.3,3,5,237.3,0.0
73.93,1,0.011,0.0,-0.002,0.004,-0.028,0.003,-1.557,-0.01,0.425,72.71,120.9,40.500595,-3.37434,601.3,3,5,237.3,0.0
74.03,1,-0.045,0.005,-0.029,-0.003,-0.011,-0.009,-1.558,-0.01,0.425,72.71,120.9,40.500595,-3.37434,601.3,3,5,237.3,0.0
74.13,1,0.04,-0.038,0.021,-0.004,-0.015,-0.008,-1.556,-0.011,0.426,73.63,121.1,40.500431,-3.374671,601.3,3,5,237.3,0.0
74.23,1,0.006,-0.065,-0.025,0.014,-0.041,-0.008,-1.557,-0.012,0.427,73.63,121.1,40.500431,-3.374671,601.3,3,5,237.3,0.0
74.33,1,0.005,-0.032,-0.004,0.023,-0.041,-0.001,-1.558,-0.012,0.427,73.63,121.1,40.500431,-3.374671,601.3,3,5,237.3,0.0
74.43,1,-0.046,-0.012,-0.015,-0.032,-0.03,-0.02,-1.556,-0.012,0.428,73.63,121.1,40.500431,-3.374671,601.3,3,5,237.3,0.0
74.53,1,-0.016,-0.043,0.015,-0.016,-0.035,0.001,-1.558,-0.008,0.428,73.63,121.1,40.500431,-3.374671,601.3,3,5,237.3,0.0
74.63,1,0.017,0.007,0.009,-0.009,-0.012,0.012,-1.556,-0.007,0.429,73.63,121.1,40.500431,-3.374671,601.3,3,5,237.3,0.0
74.73,1,-0.023,-0.013,0.002,-0.013,-0.011,0.001,-1.555,-0.008,0.429,73.63,121.1,40.500431,-3.374671,601.3,3,5,237.3,0.0
74.83,1,0.081,-0.001,0.005,0.024,-0.008,0.005,-1.558,-0.007,0.429,73.63,121.1,40.500431,-3.374671,601.3,3,5,237.3,0.0
74.94,1,-0.045,0.027,0.007,0.005,0.007,-0.001,-1.558,-0.01,0.428,73.63,121.1,40.500431,-3.374671,601.3,3,5,237.3,0.0
75.03,1,-0.066,0.02,-0.026,-0.023,0.02,-0.008,-1.557,-0.013,0.428,73.63,121.1,40.500431,-3.374671,601.3,3,5,237.3,0.0
75.14,1,-0.01,0.007,0.004,-0.031,0.015,-0.005,-1.558,-0.016,0.428,74.64,121.5,40.500267,-3.375007,600.8,3,5,237.0,0.352
75.23,1,-0.085,0.055,-0.02,-0.055,0.022,-0.001,-1.559,-0.017,0.427,74.64,121.5,40.500267,-3.375007,600.8,3,5,237.0,0.352
75.34,1,-0.002,-0.003,0.003,-0.024,0.022,-0.007,-1.558,-0.015,0.427,74.64,121.5,40.500267,-3.375007,600.8,3,5,237.0,0.352
75.43,1,-0.005,-0.005,0.006,-0.025,0.013,-0.003,-1.556,-0.019,0.426,74.64,121.5,40.500267,-3.375007,600.8,3,5,237.0,0.352
75.53,1,-0.067,0.029,-0.034,-0.035,0.012,-0.014,-1.555,-0.016,0.426,74.64,121.5,40.500267,-3.375007,600.8,3,5,237.0,0.352
75.63,1,0.027,-0.007,-0.007,-0.005,0.012,-0.013,-1.555,-0.019,0.425,74.64,121.5,40.500267,-3.375007,600.8,3,5,237.0,0.352
75.74,1,-0.005,0.03,0.0,-0.016,0.003,-0.012,-1.553,-0.018,0.425,74.64,121.5,40.500267,-3.375007,600.8,3,5,237.0,0.352
75.83,1,-0.056,0.003,-0.031,-0.021,0.012,-0.012,-1.55,-0.017,0.425,74.64,121.5,40.500267,-3.375007,600.8,3,5,237.0,0.352
75.94,1,-0.028,-0.002,0.003,-0.03,0.008,-0.009,-1.551,-0.019,0.425,74.64,121.5,40.500267,-3.375007,600.8,3,5,237.0,0.352
76.04,1,-0.01,0.003,-0.007,-0.026,-0.003,-0.002,-1.55,-0.02,0.424,74.64,121.5,40.500267,-3.375007,600.8,3,5,237.0,0.352
76.14,1,-0.013,0.025,-0.026,-0.015,0.017,-0.022,-1.545,-0.021,0.424,75.64,121.8,40.500099,-3.375342,600.7,3,5,236.6,0.703
76.24,1,-0.01,0.011,-0.013,-0.011,0.016,-0.012,-1.542,-0.021,0.424,75.64,121.8,40.500099,-3.375342,600.7,3,5,236.6,0.703
76.34,1,0.014,0.022,-0.012,-0.005,0.02,-0.018,-1.54,-0.021,0.423,75.64,121.8,40.500099,-3.375342,600.7,3,5,236.6,0.703
76.44,1,0.012,-0.005,0.023,0.017,0.009,-0.0,-1.539,-0.018,0.423,75.64,121.8,40.500099,-3.375342,600.7,3,5,236.6,0.703
76.54,1,0.035,0.027,0.004,0.015,0.012,0.002,-1.539,-0.014,0.423,75.64,121.8,40.500099,-3.375342,600.7,3,5,236.6,0.703
76.64,1,0.011,-0.011,-0.02,0.015,0.008,0.005,-1.538,-0.014,0.423,75.64,121.8,40.500099,-3.375342,600.7,3,5,236.6,0.703
76.74,1,-0.077,0.036,-0.001,-0.021,0.009,-0.013,-1.538,-0.016,0.423,75.64,121.8,40.500099,-3.375342,600.7,3,5,236.6,0.703
76.84,1,-0.038,0.026,-0.002,-0.05,0.023,0.001,-1.539,-0.015,0.423,75.64,121.8,40.500099,-3.375342,600.7,3,5,236.6,0.703
76.94,1,0.002,-0.012,-0.002,-0.023,0.012,-0.004,-1.539,-0.014,0.423,75.64,121.8,40.500099,-3.375342,600.7,3,5,236.6,0.703
77.04,1,0.034,-0.019,-0.01,0.021,-0.006,-0.01,-1.54,-0.013,0.423,75.64,121.8,40.500099,-3.375342,600.7,3,5,236.6,0.703
77.15,1,0.009,0.033,-0.021,0.006,0.007,-0.009,-1.537,-0.018,0.423,76.63,121.9,40.499928,-3.375675,600.5,3,5,236.6,0.352
77.24,1,-0.014,-0.008,-0.012,0.004,0.008,-0.015,-1.535,-0.02,0.422,76.63,121.9,40.499928,-3.375675,600.5,3,5,236.6,0.352
77.34,1,-0.014,0.014,0.008,-0.009,0.004,-0.0,-1.537,-0.02,0.422,76.63,121.9,40.499928,-3.375675,600.5,3,5,236.6,0.352
77.44,1,-0.024,0.022,-0.018,-0.013,0.013,-0.006,-1.538,-0.024,0.421,76.63,121.9,40.499928,-3.375675,600.5,3,5,236.6,0.352
77.54,1,-0.016,0.004,-0.003,-0.016,0.016,-0.013,-1.537,-0.028,0.421,76.63,121.9,40.499928,-3.375675,600.5,3,5,236.6,0.352
77.64,1,-0.012,0.008,0.018,-0.032,0.002,-0.0,-1.539,-0.024,0.421,76.63,121.9,40.499928,-3.375675,600.5,3,5,236.6,0.352
77.74,1,0.032,-0.024,0.002,0.001,-0.0,0.012,-1.54,-0.019,0.422,76.63,121.9,40.499928,-3.375675,600.5,3,5,236.6,0.352
77.85,1,-0.002,-0.02,0.0,0.011,-0.015,0.005,-1.538,-0.016,0.423,76.63,121.9,40.499928,-3.375675,600.5,3,5,236.6,0.352
77.95,1,-0.024,-0.048,-0.021,0.0,-0.033,-0.013,-1.541,-0.018,0.423,76.63,121.9,40.499928,-3.375675,600.5,3,5,236.6,0.352
78.04,1,0.012,-0.03,-0.015,-0.002,-0.029,-0.015,-1.542,-0.016,0.424,76.63,121.9,40.499928,-3.375675,600.5,3,5,236.6,0.352
78.14,1,-0.029,-0.02,0.007,-0.005,-0.031,-0.009,-1.543,-0.015,0.425,77.64,121.5,40.499763,-3.376009,600.9,3,5,236.6,0.0
78.24,1,0.011,-0.04,0.024,-0.01,-0.028,0.014,-1.545,-0.016,0.426,77.64,121.5,40.499763,-3.376009,600.9,3,5,236.6,0.0
78.34,1,-0.034,0.018,-0.011,-0.016,-0.019,0.006,-1.544,-0.016,0.426,77.64,121.5,40.499763,-3.376009,600.9,3,5,236.6,0.0
78.44,1,0.05,-0.039,-0.022,0.013,-0.016,-0.01,-1.54,-0.016,0.427,77.64,121.5,40.499763,-3.376009,600.9,3,5,236.6,0.0
78.55,1,0.013,-0.006,-0.002,0.019,-0.012,-0.012,-1.539,-0.017,0.428,77.64,121.5,40.499763,-3.376009,600.9,3,5,236.6,0.0
78.64,1,0.031,-0.006,0.003,0.024,-0.014,-0.002,-1.54,-0.013,0.429,77.64,121.5,40.499763,-3.376009,600.9,3,5,236.6,0.0
78.74,1,0.018,-0.04,0.02,0.024,-0.019,0.005,-1.542,-0.013,0.43,77.64,121.5,40.499763,-3.376009,600.9,3,5,236.6,0.0
78.85,1,-0.057,0.002,-0.017,-0.014,-0.015,0.004,-1.543,-0.011,0.431,77.64,121.5,40.499763,-3.376009,600.9,3,5,236.6,0.0
78.94,1,-0.034,-0.028,0.018,-0.03,-0.017,0.004,-1.546,-0.005,0.431,77.64,121.5,40.499763,-3.376009,600.9,3,5,236.6,0.0
79.06,1,-0.065,0.01,0.018,-0.057,-0.009,0.01,-1.548,-0.007,0.432,77.64,121.5,40.499763,-3.376009,600.9,3,5,236.6,0.0
79.14,1,-0.003,-0.023,0.038,-0.02,-0.013,0.028,-1.55,-0.01,0.432,78.63,120.9,40.499596,-3.376344,599.4,3,5,237.0,0.352
79.25,1,0.033,-0.017,0.045,0.0,-0.011,0.035,-1.55,-0.01,0.433,78.63,120.9,40.499596,-3.376344,599.4,3,5,237.0,0.352
79.35,1,0.05,-0.017,0.02,0.023,-0.021,0.033,-1.549,-0.012,0.434,78.63,120.9,40.499596,-3.376344,599.4,3,5,237.0,0.352
79.45,1,0.023,0.003,0.02,0.034,-0.0,0.018,-1.55,-0.011,0.434,78.63,120.9,40.499596,-3.376344,599.4,3,5,237.0,0.352
79.55,1,-0.035,-0.032,0.039,0.005,-0.02,0.038,-1.552,-0.009,0.435,78.63,120.9,40.499596,-3.376344,599.4,3,5,237.0,0.352
79.65,1,0.096,-0.019,0.009,0.024,-0.024,0.025,-1.555,-0.01,0.435,78.63,120.9,40.499596,-3.376344,599.4,3,5,237.0,0.352
79.75,1,-0.011,-0.022,0.031,0.039,-0.018,0.016,-1.553,-0.009,0.435,78.63,120.9,40.499596,-3.376344,599.4,3,5,237.0,0.352
79.85,1,-0.014,0.011,0.014,-0.014,-0.01,0.019,-1.554,-0.007,0.436,78.63,120.9,40.499596,-3.376344,599.4,3,5,237.0,0.352
79.95,1,0.066,-0.006,0.008,0.034,-0.005,0.016,-1.554,-0.011,0.436,78.63,120.9,40.499596,-3.376344,599.4,3,5,237.0,0.352
80.05,1,0.035,0.039,0.036,0.038,0.015,0.026,-1.552,-0.015,0.436,78.63,120.9,40.499596,-3.376344,599.4,3,5,237.0,0.352
80.15,1,0.005,0.034,-0.001,0.022,0.025,0.007,-1.551,-0.016,0.435,79.63,120.5,40.499428,-3.37667,599.2,3,5,236.2,0.703
80.26,1,-0.031,0.029,0.021,0.01,0.021,0.023,-1.553,-0.014,0.434,79.63,120.5,40.499428,-3.37667,599.2,3,5,236.2,0.703
80.35,1,0.014,0.038,0.01,-0.011,0.047,0.002,-1.557,-0.011,0.434,79.63,120.5,40.499428,-3.37667,599.2,3,5,236.2,0.703
80.46,1,-0.008,-0.005,0.047,-0.008,0.008,0.039,-1.559,-0.012,0.433,79.63,120.5,40.499428,-3.37667,599.2,3,5,236.2,0.703
80.55,1,0.041,0.052,0.003,0.021,0.027,0.017,-1.559,-0.015,0.431,79.63,120.5,40.499428,-3.37667,599.2,3,5,236.2,0.703
80.65,1,-0.107,0.073,0.01,-0.039,0.058,0.01,-1.561,-0.018,0.43,79.63,120.5,40.499428,-3.37667,599.2,3,5,236.2,0.703
80.75,1,-0.024,0.024,0.024,-0.048,0.045,0.013,-1.561,-0.021,0.429,79.63,120.5,40.499428,-3.37667,599.2,3,5,236.2,0.703
80.86,1,-0.015,0.013,0.021,-0.026,0.028,0.027,-1.564,-0.021,0.429,79.63,120.5,40.499428,-3.37667,599.2,3,5,236.2,0.703
80.95,1,-0.03,0.044,0.016,-0.025,0.027,0.021,-1.567,-0.02,0.428,79.63,120.5,40.499428,-3.37667,599.2,3,5,236.2,0.703
81.05,1,0.029,0.024,0.025,0.006,0.033,0.023,-1.569,-0.021,0.427,79.63,120.5,40.499428,-3.37667,599.2,3,5,236.2,0.703
81.15,1,-0.049,0.02,-0.003,-0.016,0.027,0.009,-1.57,-0.021,0.426,80.64,120.8,40.49926,-3.376999,599.3,3,5,235.9,1.055
81.25,1,0.028,-0.068,0.032,-0.015,-0.011,0.009,-1.571,-0.017,0.427,80.64,120.8,40.49926,-3.376999,599.3,3,5,235.9,1.055
81.35,1,-0.017,-0.206,0.001,0.003,-0.1,0.015,-1.571,-0.009,0.433,80.64,120.8,40.49926,-3.376999,599.3,3,5,235.9,1.055
81.45,1,-0.114,-0.32,0.004,-0.058,-0.213,0.008,-1.571,0.002,0.445,80.64,120.8,40.49926,-3.376999,599.3,3,5,235.9,1.055
81.55,1,-0.008,-0.331,0.001,-0.019,-0.297,0.009,-1.57,0.004,0.455,80.64,120.8,40.49926,-3.376999,599.3,3,5,235.9,1.055
81.66,1,-0.028,-0.266,0.017,-0.051,-0.285,0.004,-1.57,0.002,0.461,80.64,120.8,40.49926,-3.376999,599.3,3,5,235.9,1.055
81.75,1,0.007,-0.228,0.002,-0.014,-0.264,0.009,-1.569,0.008,0.465,80.64,120.8,40.49926,-3.376999,599.3,3,5,235.9,1.055
81.85,1,0.002,-0.07,0.02,-0.0,-0.176,0.015,-1.569,0.015,0.466,80.64,120.8,40.49926,-3.376999,599.3,3,5,235.9,1.055
81.95,1,0.083,-0.036,0.013,0.039,-0.09,0.014,-1.567,0.009,0.467,80.64,120.8,40.49926,-3.376999,599.3,3,5,235.9,1.055
82.06,1,0.038,-0.001,-0.016,0.044,-0.041,0.001,-1.565,0.004,0.469,80.64,120.8,40.49926,-3.376999,599.3,3,5,235.9,1.055
82.15,1,-0.028,-0.048,-0.047,0.02,-0.033,-0.022,-1.566,0.004,0.47,81.66,121.4,40.499084,-3.377332,599.1,3,5,235.9,0.352
82.26,1,-0.09,0.056,0.011,-0.05,-0.011,-0.016,-1.568,0.002,0.47,81.66,121.4,40.499084,-3.377332,599.1,3,5,235.9,0.352
82.36,1,-0.025,0.079,-0.028,-0.033,0.046,-0.012,-1.568,0.002,0.468,81.66,121.4,40.499084,-3.377332,599.1,3,5,235.9,0.352
82.45,1,-0.112,0.029,-0.016,-0.072,0.046,-0.019,-1.569,0.002,0.467,81.66,121.4,40.499084,-3.377332,599.1,3,5,235.9,0.352
82.56,1,0.081,0.04,0.013,-0.019,0.041,-0.004,-1.571,-0.004,0.466,81.66,121.4,40.499084,-3.377332,599.1,3,5,235.9,0.352
82.66,1,0.015,0.083,-0.005,0.011,0.054,-0.004,-1.567,-0.015,0.463,81.66,121.4,40.499084,-3.377332,599.1,3,5,235.9,0.352
82.76,1,0.06,0.068,-0.009,0.028,0.067,-0.006,-1.569,-0.028,0.462,81.66,121.4,40.499084,-3.377332,599.1,3,5,235.9,0.352
82.86,1,0.071,0.018,-0.001,0.06,0.048,-0.001,-1.568,-0.025,0.46,81.66,121.4,40.499084,-3.377332,599.1,3,5,235.9,0.352
82.96,1,0.007,0.033,-0.023,0.052,0.035,-0.012,-1.567,-0.023,0.459,81.66,121.4,40.499084,-3.377332,599.1,3,5,235.9,0.352
83.06,1,-0.046,0.037,-0.013,0.002,0.041,-0.011,-1.566,-0.031,0.457,81.66,121.4,40.499084,-3.377332,599.1,3,5,235.9,0.352
83.16,1,-0.086,0.04,0.012,-0.054,0.041,-0.009,-1.569,-0.04,0.454,82.63,122.1,40.498909,-3.377664,599.2,3,5,235.2,0.703
83.26,1,-0.063,0.044,0.005,-0.071,0.039,0.009,-1.568,-0.046,0.452,82.63,122.1,40.498909,-3.377664,599.2,3,5,235.2,0.703
83.36,1,0.058,0.018,0.02,-0.014,0.033,0.007,-1.565,-0.046,0.451,82.63,122.1,40.498909,-3.377664,599.2,3,5,235.2,0.703
83.47,1,0.039,0.032,-0.001,0.028,0.027,0.009,-1.565,-0.05,0.449,82.63,122.1,40.498909,-3.377664,599.2,3,5,235.2,0.703
83.57,1,-0.002,0.023,-0.013,0.017,0.026,-0.001,-1.565,-0.052,0.447,82.63,122.1,40.498909,-3.377664,599.2,3,5,235.2,0.703
83.66,1,-0.023,0.032,0.012,0.0,0.029,-0.001,-1.568,-0.058,0.444,82.63,122.1,40.498909,-3.377664,599.2,3,5,235.2,0.703
83.76,1,-0.06,0.067,-0.024,-0.033,0.047,-0.011,-1.567,-0.07,0.44,82.63,122.1,40.498909,-3.377664,599.2,3,5,235.2,0.703
83.86,1,-0.082,0.079,0.013,-0.057,0.063,-0.003,-1.566,-0.073,0.438,82.63,122.1,40.498909,-3.377664,599.2,3,5,235.2,0.703
83.96,1,-0.049,0.061,0.019,-0.057,0.062,0.015,-1.57,-0.074,0.435,82.63,122.1,40.498909,-3.377664,599.2,3,5,235.2,0.703
84.07,1,0.017,0.058,0.02,-0.039,0.067,0.016,-1.571,-0.075,0.432,82.63,122.1,40.498909,-3.377664,599.2,3,5,235.2,0.703
84.16,1,0.058,0.023,0.014,0.018,0.045,0.016,-1.572,-0.079,0.429,83.63,122.7,40.49873,-3.377985,599.4,3,5,233.8,2.109
84.26,1,-0.038,0.054,-0.018,0.018,0.04,0.001,-1.572,-0.084,0.425,83.63,122.7,40.49873,-3.377985,599.4,3,5,233.8,2.109
84.36,1,0.035,0.02,-0.01,-0.001,0.045,-0.012,-1.572,-0.086,0.422,83.63,122.7,40.49873,-3.377985,599.4,3,5,233.8,2.109
84.46,1,-0.071,0.034,0.005,-0.021,0.027,-0.003,-1.572,-0.091,0.42,83.63,122.7,40.49873,-3.377985,599.4,3,5,233.8,2.109
84.57,1,0.007,0.01,-0.015,-0.012,0.026,-0.004,-1.572,-0.095,0.418,83.63,122.7,40.49873,-3.377985,599.4,3,5,233.8,2.109
84.67,1,0.034,-0.03,-0.002,0.009,-0.005,-0.003,-1.572,-0.096,0.416,83.63,122.7,40.49873,-3.377985,599.4,3,5,233.8,2.109
84.77,1,-0.051,-0.024,-0.023,-0.019,-0.016,-0.021,-1.57,-0.091,0.415,83.63,122.7,40.49873,-3.377985,599.4,3,5,233.8,2.109
84.86,1,-0.047,-0.032,-0.01,-0.031,-0.029,-0.015,-1.572,-0.091,0.413,83.63,122.7,40.49873,-3.377985,599.4,3,5,233.8,2.109
84.96,1,-0.01,-0.041,0.016,-0.034,-0.029,0.005,-1.572,-0.088,0.411,83.63,122.7,40.49873,-3.377985,599.4,3,5,233.8,2.109
85.06,1,0.034,-0.062,0.002,0.004,-0.043,0.002,-1.57,-0.085,0.411,83.63,122.7,40.49873,-3.377985,599.4,3,5,233.8,2.109
85.16,1,-0.01,-0.044,-0.016,0.01,-0.05,-0.004,-1.568,-0.077,0.411,84.63,126.1,40.498535,-3.378316,599.6,3,5,233.1,2.109
85.27,1,-0.037,-0.059,0.001,-0.026,-0.051,-0.009,-1.569,-0.074,0.41,84.63,126.1,40.498535,-3.378316,599.6,3,5,233.1,2.109
85.37,1,-0.021,-0.035,0.004,-0.013,-0.053,0.006,-1.567,-0.072,0.408,84.63,126.1,40.498535,-3.378316,599.6,3,5,233.1,2.109
85.46,1,0.015,-0.037,-0.023,-0.012,-0.039,-0.006,-1.569,-0.07,0.407,84.63,126.1,40.498535,-3.378316,599.6,3,5,233.1,2.109
85.57,1,-0.066,-0.046,-0.009,-0.036,-0.041,-0.014,-1.568,-0.069,0.407,84.63,126.1,40.498535,-3.378316,599.6,3,5,233.1,2.109
85.66,1,-0.029,-0.096,-0.013,-0.019,-0.065,-0.007,-1.568,-0.068,0.407,84.63,126.1,40.498535,-3.378316,599.6,3,5,233.1,2.109
85.78,1,-0.065,-0.066,-0.027,-0.051,-0.073,-0.02,-1.566,-0.064,0.408,84.63,126.1,40.498535,-3.378316,599.6,3,5,233.1,2.109
85.86,1,-0.07,-0.03,0.0,-0.074,-0.055,-0.017,-1.565,-0.061,0.409,84.63,126.1,40.498535,-3.378316,599.6,3,5,233.1,2.109
85.98,1,-0.013,-0.062,-0.015,-0.03,-0.053,-0.01,-1.566,-0.051,0.409,84.63,126.1,40.498535,-3.378316,599.6,3,5,233.1,2.109
86.07,1,-0.051,-0.032,-0.004,-0.038,-0.043,-0.015,-1.564,-0.04,0.41,84.63,126.1,40.498535,-3.378316,599.6,3,5,233.1,2.109
86.17,1,0.06,-0.059,-0.011,-0.015,-0.044,-0.01,-1.563,-0.034,0.411,85.63,124.9,40.498367,-3.378658,599.2,3,5,235.5,2.461
86.27,1,-0.025,-0.008,-0.012,0.017,-0.041,-0.007,-1.561,-0.037,0.41,85.63,124.9,40.498367,-3.378658,599.2,3,5,235.5,2.461
86.37,1,0.016,-0.021,-0.05,0.017,-0.019,-0.024,-1.559,-0.033,0.411,85.63,124.9,40.498367,-3.378658,599.2,3,5,235.5,2.461
86.47,1,-0.039,-0.052,0.03,-0.025,-0.036,-0.013,-1.563,-0.026,0.412,85.63,124.9,40.498367,-3.378658,599.2,3,5,235.5,2.461
86.57,1,-0.005,-0.039,-0.028,-0.031,-0.037,-0.009,-1.561,-0.026,0.412,85.63,124.9,40.498367,-3.378658,599.2,3,5,235.5,2.461
86.67,1,0.068,-0.027,-0.024,0.037,-0.041,-0.011,-1.56,-0.029,0.412,85.63,124.9,40.498367,-3.378658,599.2,3,5,235.5,2.461
86.77,1,0.068,-0.038,0.006,0.062,-0.032,-0.006,-1.557,-0.028,0.413,85.63,124.9,40.498367,-3.378658,599.2,3,5,235.5,2.461
86.87,1,-0.034,-0.025,-0.026,0.005,-0.025,-0.025,-1.555,-0.026,0.413,85.63,124.9,40.498367,-3.378658,599.2,3,5,235.5,2.461
86.97,1,-0.067,-0.037,0.0,-0.034,-0.037,-0.009,-1.555,-0.027,0.413,85.63,124.9,40.498367,-3.378658,599.2,3,5,235.5,2.461
87.07,1,-0.041,0.015,-0.021,-0.039,-0.018,-0.007,-1.556,-0.028,0.413,85.63,124.9,40.498367,-3.378658,599.2,3,5,235.5,2.461
87.18,1,0.014,0.001,-0.014,-0.018,-0.003,-0.017,-1.553,-0.028,0.413,86.64,124.2,40.498196,-3.378997,599.8,3,5,236.6,3.516
87.27,1,0.035,0.01,-0.004,0.01,0.006,-0.012,-1.553,-0.031,0.412,86.64,124.2,40.498196,-3.378997,599.8,3,5,236.6,3.516
87.37,1,0.005,0.041,-0.006,0.008,0.024,-0.016,-1.547,-0.037,0.411,86.64,124.2,40.498196,-3.378997,599.8,3,5,236.6,3.516
87.47,1,-0.063,0.061,-0.008,-0.017,0.038,-0.001,-1.546,-0.04,0.409,86.64,124.2,40.498196,-3.378997,599.8,3,5,236.6,3.516
87.58,1,-0.022,0.036,0.0,-0.025,0.045,-0.002,-1.546,-0.045,0.407,86.64,124.2,40.498196,-3.378997,599.8,3,5,236.6,3.516
87.67,1,0.006,0.008,0.004,-0.017,0.03,-0.0,-1.549,-0.05,0.404,86.64,124.2,40.498196,-3.378997,599.8,3,5,236.6,3.516
87.77,1,-0.007,0.061,0.002,0.002,0.036,0.004,-1.551,-0.05,0.401,86.64,124.2,40.498196,-3.378997,599.8,3,5,236.6,3.516
87.87,1,-0.033,0.054,-0.006,-0.029,0.048,-0.006,-1.551,-0.047,0.399,86.64,124.2,40.498196,-3.378997,599.8,3,5,236.6,3.516
87.97,1,0.042,0.005,-0.011,0.003,0.027,-0.005,-1.551,-0.055,0.397,86.64,124.2,40.498196,-3.378997,599.8,3,5,236.6,3.516
88.07,1,0.032,0.019,0.007,0.034,0.021,-0.002,-1.55,-0.063,0.395,86.64,124.2,40.498196,-3.378997,599.8,3,5,236.6,3.516
88.18,1,0.016,0.05,-0.033,0.016,0.035,-0.014,-1.547,-0.07,0.393,87.65,124.4,40.49802,-3.379335,599.0,3,5,236.2,0.703
88.27,1,-0.015,0.054,-0.011,0.006,0.049,-0.019,-1.545,-0.074,0.391,87.65,124.4,40.49802,-3.379335,599.0,3,5,236.2,0.703
88.38,1,-0.048,0.017,0.004,-0.013,0.034,-0.003,-1.547,-0.075,0.388,87.65,124.4,40.49802,-3.379335,599.0,3,5,236.2,0.703
88.47,1,-0.032,0.034,-0.017,-0.042,0.031,-0.012,-1.547,-0.077,0.387,87.65,124.4,40.49802,-3.379335,599.0,3,5,236.2,0.703
88.57,1,-0.061,-0.017,0.004,-0.042,0.012,-0.002,-1.548,-0.076,0.385,87.65,124.4,40.49802,-3.379335,599.0,3,5,236.2,0.703
88.68,1,-0.057,-0.016,-0.011,-0.047,-0.001,-0.004,-1.547,-0.07,0.384,87.65,124.4,40.49802,-3.379335,599.0,3,5,236.2,0.703
88.77,1,0.018,-0.012,-0.027,-0.019,-0.014,-0.013,-1.548,-0.072,0.383,87.65,124.4,40.49802,-3.379335,599.0,3,5,236.2,0.703
88.87,1,-0.022,-0.048,-0.006,-0.015,-0.024,-0.018,-1.547,-0.072,0.383,87.65,124.4,40.49802,-3.379335,599.0,3,5,236.2,0.703
88.98,1,0.012,-0.032,-0.017,-0.003,-0.031,-0.014,-1.546,-0.07,0.383,87.65,124.4,40.49802,-3.379335,599.0,3,5,236.2,0.703
89.08,1,0.004,-0.051,0.005,0.01,-0.04,-0.008,-1.545,-0.069,0.383,87.65,124.4,40.49802,-3.379335,599.0,3,5,236.2,0.703
89.18,1,0.015,-0.061,-0.005,-0.011,-0.054,-0.002,-1.544,-0.065,0.383,88.63,124.3,40.497852,-3.379671,598.8,3,5,236.2,0.352
89.28,1,-0.08,-0.064,-0.018,-0.018,-0.064,-0.01,-1.546,-0.06,0.382,88.63,124.3,40.497852,-3.379671,598.8,3,5,236.2,0.352
89.39,1,-0.011,-0.05,0.003,-0.033,-0.054,-0.005,-1.546,-0.06,0.383,88.63,124.3,40.497852,-3.379671,598.8,3,5,236.2,0.352
89.48,1,-0.05,-0.111,0.011,-0.048,-0.072,0.0,-1.546,-0.054,0.384,88.63,124.3,40.497852,-3.379671,598.8,3,5,236.2,0.352
89.58,1,-0.065,-0.049,-0.001,-0.05,-0.075,-0.001,-1.546,-0.051,0.385,88.63,124.3,40.497852,-3.379671,598.8,3,5,236.2,0.352
89.78,1,-0.026,-0.097,-0.023,-0.017,-0.075,-0.021,-1.546,-0.049,0.386,88.63,124.3,40.497852,-3.379671,598.8,3,5,236.2,0.352
89.88,1,-0.095,-0.04,-0.021,-0.055,-0.062,-0.021,-1.547,-0.043,0.387,88.63,124.3,40.497852,-3.379671,598.8,3,5,236.2,0.352
89.99,1,-0.023,-0.047,0.007,-0.043,-0.051,-0.007,-1.548,-0.041,0.387,88.63,124.3,40.497852,-3.379671,598.8,3,5,236.2,0.352
90.08,1,-0.06,-0.054,-0.034,-0.052,-0.055,-0.011,-1.548,-0.039,0.388,88.63,124.3,40.497852,-3.379671,598.8,3,5,236.2,0.352
90.19,1,0.03,-0.051,0.006,-0.016,-0.051,-0.016,-1.546,-0.037,0.389,88.63,124.3,40.497852,-3.379671,598.8,3,5,236.2,0.352
90.28,1,0.044,-0.021,-0.014,0.019,-0.039,-0.01,-1.545,-0.036,0.39,89.63,123.9,40.497684,-3.380013,598.8,3,5,237.3,1.055
90.38,1,-0.008,-0.046,0.011,0.015,-0.037,0.002,-1.546,-0.034,0.39,89.63,123.9,40.497684,-3.380013,598.8,3,5,237.3,1.055
90.48,1,0.01,-0.026,-0.011,0.004,-0.039,-0.002,-1.544,-0.032,0.39,89.63,123.9,40.497684,-3.380013,598.8,3,5,237.3,1.055
90.58,1,-0.02,0.026,-0.016,-0.012,-0.008,-0.01,-1.545,-0.036,0.39,89.63,123.9,40.497684,-3.380013,598.8,3,5,237.3,1.055
90.68,1,0.094,-0.072,0.038,0.029,-0.018,0.006,-1.545,-0.035,0.39,89.63,123.9,40.497684,-3.380013,598.8,3,5,237.3,1.055
90.79,1,0.001,-0.024,-0.033,0.043,-0.037,0.0,-1.543,-0.036,0.391,89.63,123.9,40.497684,-3.380013,598.8,3,5,237.3,1.055
90.88,1,-0.086,-0.036,-0.023,-0.026,-0.04,-0.014,-1.541,-0.034,0.391,89.63,123.9,40.497684,-3.380013,598.8,3,5,237.3,1.055
90.98,1,0.066,-0.052,0.016,0.016,-0.04,-0.009,-1.54,-0.035,0.391,89.63,123.9,40.497684,-3.380013,598.8,3,5,237.3,1.055
91.08,1,-0.006,-0.058,-0.008,-0.001,-0.049,-0.011,-1.539,-0.035,0.392,89.63,123.9,40.497684,-3.380013,598.8,3,5,237.3,1.055
91.18,1,0.049,-0.062,-0.007,0.032,-0.053,0.0,-1.543,-0.032,0.393,89.63,123.9,40.497684,-3.380013,598.8,3,5,237.3,1.055
91.28,1,-0.005,-0.04,-0.007,0.024,-0.057,-0.004,-1.544,-0.021,0.395,90.64,123.6,40.497517,-3.380355,598.7,3,5,237.7,1.406
91.39,1,0.001,-0.027,-0.014,0.002,-0.04,-0.004,-1.548,-0.012,0.396,90.64,123.6,40.497517,-3.380355,598.7,3,5,237.7,1.406
91.49,1,-0.01,-0.035,0.02,-0.006,-0.035,-0.002,-1.549,-0.008,0.396,90.64,123.6,40.497517,-3.380355,598.7,3,5,237.7,1.406
91.58,1,0.003,-0.031,0.005,-0.008,-0.034,0.006,-1.552,-0.006,0.397,90.64,123.6,40.497517,-3.380355,598.7,3,5,237.7,1.406
91.68,1,0.004,-0.001,-0.045,-0.01,-0.016,-0.014,-1.55,-0.007,0.398,90.64,123.6,40.497517,-3.380355,598.7,3,5,237.7,1.406
91.78,1,-0.03,-0.032,-0.006,-0.001,-0.028,-0.013,-1.549,-0.012,0.399,90.64,123.6,40.497517,-3.380355,598.7,3,5,237.7,1.406
91.88,1,-0.015,-0.033,0.001,-0.011,-0.015,-0.007,-1.55,-0.009,0.4,90.64,123.6,40.497517,-3.380355,598.7,3,5,237.7,1.406
91.99,1,0.016,-0.051,-0.009,-0.001,-0.033,-0.016,-1.546,-0.01,0.401,90.64,123.6,40.497517,-3.380355,598.7,3,5,237.7,1.406
92.08,1,-0.008,0.017,-0.015,0.018,-0.029,-0.001,-1.544,-0.011,0.401,90.64,123.6,40.497517,-3.380355,598.7,3,5,237.7,1.406
92.18,1,0.005,-0.001,-0.013,-0.026,-0.001,-0.012,-1.541,-0.014,0.402,90.64,123.6,40.497517,-3.380355,598.7,3,5,237.7,1.406
92.28,1,-0.061,-0.048,-0.011,-0.023,-0.028,-0.015,-1.54,-0.014,0.403,91.7,123.1,40.497353,-3.380696,598.3,3,5,237.3,0.352
92.39,1,-0.047,0.029,-0.002,-0.036,-0.003,-0.008,-1.541,-0.013,0.404,91.7,123.1,40.497353,-3.380696,598.3,3,5,237.3,0.352
92.49,1,0.005,-0.052,-0.001,-0.018,-0.017,-0.004,-1.54,-0.012,0.405,91.7,123.1,40.497353,-3.380696,598.3,3,5,237.3,0.352
92.59,1,-0.026,-0.015,-0.008,-0.03,-0.027,-0.004,-1.539,-0.013,0.405,91.7,123.1,40.497353,-3.380696,598.3,3,5,237.3,0.352
92.69,1,0.011,-0.006,-0.009,-0.004,-0.011,-0.006,-1.538,-0.015,0.406,91.7,123.1,40.497353,-3.380696,598.3,3,5,237.3,0.352
92.79,1,-0.033,-0.012,-0.011,-0.011,-0.007,-0.007,-1.537,-0.019,0.407,91.7,123.1,40.497353,-3.380696,598.3,3,5,237.3,0.352
92.89,1,0.013,-0.046,0.018,-0.003,-0.027,0.001,-1.536,-0.016,0.408,91.7,123.1,40.497353,-3.380696,598.3,3,5,237.3,0.352
92.99,1,-0.092,-0.044,-0.007,-0.037,-0.042,-0.0,-1.534,-0.014,0.409,91.7,123.1,40.497353,-3.380696,598.3,3,5,237.3,0.352
93.09,1,0.001,-0.007,0.006,-0.043,-0.021,-0.002,-1.535,-0.012,0.41,91.7,123.1,40.497353,-3.380696,598.3,3,5,237.3,0.352
93.19,1,-0.045,-0.03,0.007,-0.042,-0.029,0.006,-1.537,-0.014,0.41,91.7,123.1,40.497353,-3.380696,598.3,3,5,237.3,0.352
93.29,1,0.05,-0.034,0.014,0.005,-0.031,0.013,-1.536,-0.012,0.411,92.63,123.0,40.497185,-3.381034,598.2,3,5,236.6,1.055
93.39,1,0.048,0.009,-0.003,0.022,-0.011,-0.001,-1.535,-0.011,0.412,92.63,123.0,40.497185,-3.381034,598.2,3,5,236.6,1.055
93.49,1,-0.065,-0.016,-0.02,0.026,-0.01,-0.001,-1.537,-0.008,0.412,92.63,123.0,40.497185,-3.381034,598.2,3,5,236.6,1.055
93.59,1,-0.047,0.022,0.011,-0.042,0.009,-0.013,-1.538,-0.007,0.412,92.63,123.0,40.497185,-3.381034,598.2,3,5,236.6,1.055
93.69,1,-0.023,-0.019,0.004,-0.029,-0.02,0.013,-1.538,-0.009,0.412,92.63,123.0,40.497185,-3.381034,598.2,3,5,236.6,1.055
93.79,1,0.072,0.021,-0.001,-0.004,0.011,-0.001,-1.536,-0.016,0.412,92.63,123.0,40.497185,-3.381034,598.2,3,5,236.6,1.055
93.9,1,0.031,-0.004,-0.023,0.024,0.004,-0.01,-1.534,-0.016,0.411,92.63,123.0,40.497185,-3.381034,598.2,3,5,236.6,1.055
93.99,1,-0.145,-0.013,0.01,-0.05,-0.001,-0.001,-1.533,-0.017,0.411,92.63,123.0,40.497185,-3.381034,598.2,3,5,236.6,1.055
94.09,1,-0.023,0.012,0.01,-0.06,0.006,-0.003,-1.533,-0.017,0.412,92.63,123.0,40.497185,-3.381034,598.2,3,5,236.6,1.055
94.2,1,-0.061,-0.015,-0.015,-0.016,-0.012,-0.001,-1.533,-0.018,0.412,92.63,123.0,40.497185,-3.381034,598.2,3,5,236.6,1.055
94.29,1,0.062,-0.008,-0.022,-0.004,-0.001,-0.004,-1.533,-0.021,0.412,93.65,121.7,40.497017,-3.381367,598.3,3,5,236.6,0.703
94.39,1,-0.087,-0.034,-0.002,-0.035,-0.03,-0.015,-1.532,-0.028,0.412,93.65,121.7,40.497017,-3.381367,598.3,3,5,236.6,0.703
94.49,1,-0.108,0.013,-0.038,-0.08,-0.002,-0.022,-1.537,-0.032,0.412,93.65,121.7,40.497017,-3.381367,598.3,3,5,236.6,0.703
94.59,1,0.058,-0.02,-0.004,-0.038,-0.006,-0.018,-1.538,-0.03,0.412,93.65,121.7,40.497017,-3.381367,598.3,3,5,236.6,0.703
94.69,1,-0.081,-0.003,-0.048,-0.019,-0.014,-0.028,-1.538,-0.03,0.412,93.65,121.7,40.497017,-3.381367,598.3,3,5,236.6,0.703
94.79,1,0.006,-0.021,0.019,-0.029,-0.01,-0.009,-1.54,-0.026,0.412,93.65,121.7,40.497017,-3.381367,598.3,3,5,236.6,0.703
94.9,1,-0.034,-0.007,-0.022,-0.028,-0.012,-0.015,-1.54,-0.022,0.412,93.65,121.7,40.497017,-3.381367,598.3,3,5,236.6,0.703
94.99,1,-0.019,-0.03,-0.013,0.002,-0.023,-0.005,-1.54,-0.017,0.412,93.65,121.7,40.497017,-3.381367,598.3,3,5,236.6,0.703
95.1,1,0.016,0.002,-0.01,-0.018,-0.01,-0.013,-1.54,-0.013,0.412,93.65,121.7,40.497017,-3.381367,598.3,3,5,236.6,0.703
95.19,1,-0.074,-0.016,-0.03,-0.017,-0.017,-0.015,-1.542,-0.01,0.412,93.65,121.7,40.497017,-3.381367,598.3,3,5,236.6,0.703
95.29,1,0.137,-0.042,0.045,0.026,-0.015,0.003,-1.543,-0.012,0.413,94.63,121.3,40.496849,-3.381699,598.0,3,5,236.2,0.352
95.39,1,0.038,-0.067,0.02,0.062,-0.047,0.021,-1.543,-0.013,0.412,94.63,121.3,40.496849,-3.381699,598.0,3,5,236.2,0.352
95.5,1,-0.098,0.025,-0.031,-0.036,-0.011,-0.014,-1.542,-0.014,0.413,94.63,121.3,40.496849,-3.381699,598.0,3,5,236.2,0.352
95.6,1,0.046,-0.005,-0.024,-0.002,-0.015,-0.011,-1.542,-0.014,0.414,94.63,121.3,40.496849,-3.381699,598.0,3,5,236.2,0.352
95.7,1,-0.028,-0.002,-0.014,-0.017,-0.011,-0.017,-1.539,-0.015,0.415,94.63,121.3,40.496849,-3.381699,598.0,3,5,236.2,0.352
95.8,1,-0.009,-0.048,-0.001,0.015,-0.015,-0.009,-1.539,-0.013,0.415,94.63,121.3,40.496849,-3.381699,598.0,3,5,236.2,0.352
95.9,1,-0.089,0.015,-0.016,-0.055,-0.004,-0.017,-1.539,-0.008,0.415,94.63,121.3,40.496849,-3.381699,598.0,3,5,236.2,0.352
96.0,1,0.006,-0.05,-0.0,-0.019,-0.03,0.002,-1.54,-0.004,0.416,94.63,121.3,40.496849,-3.381699,598.0,3,5,236.2,0.352
96.11,1,-0.049,-0.02,-0.019,-0.043,-0.033,-0.013,-1.538,-0.006,0.417,94.63,121.3,40.496849,-3.381699,598.0,3,5,236.2,0.352
96.2,1,-0.055,-0.068,0.012,-0.035,-0.038,-0.004,-1.536,-0.006,0.418,94.63,121.3,40.496849,-3.381699,598.0,3,5,236.2,0.352
96.31,1,0.028,0.001,-0.004,-0.029,-0.022,-0.005,-1.534,0.001,0.42,95.64,120.5,40.496681,-3.382029,598.1,3,5,236.2,0.352
96.4,1,-0.058,-0.027,-0.011,-0.007,-0.031,0.001,-1.533,0.008,0.421,95.64,120.5,40.496681,-3.382029,598.1,3,5,236.2,0.352
96.5,1,0.037,-0.037,0.012,-0.028,-0.02,-0.004,-1.534,0.015,0.422,95.64,120.5,40.496681,-3.382029,598.1,3,5,236.2,0.352
96.6,1,-0.043,-0.032,-0.01,0.007,-0.037,-0.001,-1.536,0.023,0.424,95.64,120.5,40.496681,-3.382029,598.1,3,5,236.2,0.352
96.71,1,0.097,-0.011,0.041,0.013,-0.02,0.015,-1.533,0.014,0.425,95.64,120.5,40.496681,-3.382029,598.1,3,5,236.2,0.352
96.81,1,0.005,-0.016,-0.014,0.043,-0.03,0.012,-1.531,0.007,0.425,95.64,120.5,40.496681,-3.382029,598.1,3,5,236.2,0.352
96.91,1,0.024,0.027,-0.009,0.021,0.006,-0.008,-1.527,0.006,0.425,95.64,120.5,40.496681,-3.382029,598.1,3,5,236.2,0.352
97.0,1,-0.019,0.029,0.0,0.003,0.015,0.003,-1.526,-0.002,0.426,95.64,120.5,40.496681,-3.382029,598.1,3,5,236.2,0.352
97.1,1,0.017,-0.026,0.02,0.01,0.003,0.004,-1.523,-0.003,0.427,95.64,120.5,40.496681,-3.382029,598.1,3,5,236.2,0.352
97.2,1,-0.076,0.023,0.002,-0.031,0.004,0.007,-1.524,-0.003,0.427,95.64,120.5,40.496681,-3.382029,598.1,3,5,236.2,0.352
97.31,1,0.024,-0.041,0.022,-0.016,-0.003,0.008,-1.528,-0.005,0.427,96.64,119.6,40.496517,-3.382355,598.1,3,5,236.2,0.0
97.4,1,0.003,0.03,0.011,-0.003,-0.011,0.02,-1.531,0.001,0.428,96.64,119.6,40.496517,-3.382355,598.1,3,5,236.2,0.0
97.5,1,0.008,0.017,0.014,0.006,0.025,0.011,-1.532,-0.001,0.429,96.64,119.6,40.496517,-3.382355,598.1,3,5,236.2,0.0
97.6,1,-0.032,0.015,0.003,-0.008,0.005,0.009,-1.532,0.001,0.429,96.64,119.6,40.496517,-3.382355,598.1,3,5,236.2,0.0
97.7,1,-0.118,0.026,-0.013,-0.051,0.022,-0.001,-1.532,0.002,0.43,96.64,119.6,40.496517,-3.382355,598.1,3,5,236.2,0.0
97.8,1,0.043,-0.04,-0.024,-0.031,-0.001,-0.015,-1.531,0.002,0.431,96.64,119.6,40.496517,-3.382355,598.1,3,5,236.2,0.0
97.91,1,-0.091,0.036,-0.001,-0.038,0.009,-0.016,-1.533,0.006,0.431,96.64,119.6,40.496517,-3.382355,598.1,3,5,236.2,0.0
98.0,1,-0.045,0.026,-0.01,-0.06,0.014,0.001,-1.536,0.007,0.432,96.64,119.6,40.496517,-3.382355,598.1,3,5,236.2,0.0
98.11,1,0.021,-0.008,0.009,-0.026,0.017,-0.005,-1.533,0.009,0.433,96.64,119.6,40.496517,-3.382355,598.1,3,5,236.2,0.0
98.2,1,0.035,-0.02,-0.033,0.023,-0.016,-0.008,-1.533,0.009,0.434,96.64,119.6,40.496517,-3.382355,598.1,3,5,236.2,0.0
98.3,1,-0.042,-0.007,-0.001,-0.009,-0.008,-0.012,-1.535,0.012,0.435,97.64,118.8,40.496349,-3.382685,598.1,3,5,235.9,0.352
98.4,1,-0.041,0.003,-0.003,-0.037,0.003,-0.014,-1.54,0.016,0.436,97.64,118.8,40.496349,-3.382685,598.1,3,5,235.9,0.352
98.51,1,-0.025,0.005,0.012,-0.031,-0.001,0.009,-1.54,0.018,0.437,97.64,118.8,40.496349,-3.382685,598.1,3,5,235.9,0.352
98.6,1,0.064,0.002,-0.011,0.008,0.004,-0.003,-1.54,0.024,0.438,97.64,118.8,40.496349,-3.382685,598.1,3,5,235.9,0.352
98.71,1,-0.078,0.013,-0.02,-0.007,-0.003,-0.01,-1.537,0.02,0.439,97.64,118.8,40.496349,-3.382685,598.1,3,5,235.9,0.352
98.81,1,-0.013,0.0,-0.018,-0.038,0.01,-0.018,-1.536,0.013,0.441,97.64,118.8,40.496349,-3.382685,598.1,3,5,235.9,0.352
98.91,1,-0.016,-0.061,-0.004,-0.005,-0.029,-0.009,-1.536,0.012,0.441,97.64,118.8,40.496349,-3.382685,598.1,3,5,235.9,0.352
99.01,1,-0.019,0.032,-0.003,-0.024,-0.009,-0.007,-1.536,0.01,0.443,97.64,118.8,40.496349,-3.382685,598.1,3,5,235.9,0.352
99.11,1,0.002,-0.031,0.014,-0.008,-0.01,0.002,-1.536,0.009,0.444,97.64,118.8,40.496349,-3.382685,598.1,3,5,235.9,0.352
99.22,1,-0.004,0.014,0.005,-0.008,0.0,0.007,-1.536,0.008,0.445,97.64,118.8,40.496349,-3.382685,598.1,3,5,235.9,0.352
99.31,1,-0.048,-0.03,0.008,-0.015,-0.012,0.007,-1.536,0.007,0.446,98.67,117.9,40.496185,-3.383001,598.3,3,5,235.5,0.703
99.41,1,-0.059,0.023,-0.023,-0.056,-0.001,-0.008,-1.536,0.008,0.447,98.67,117.9,40.496185,-3.383001,598.3,3,5,235.5,0.703
99.51,1,0.02,-0.013,0.005,-0.025,0.012,-0.006,-1.537,0.013,0.448,98.67,117.9,40.496185,-3.383001,598.3,3,5,235.5,0.703
99.61,1,-0.024,0.047,0.01,-0.014,0.012,0.008,-1.534,0.019,0.449,98.67,117.9,40.496185,-3.383001,598.3,3,5,235.5,0.703
99.81,1,-0.042,0.079,-0.024,0.01,0.022,-0.006,-1.535,0.025,0.45,98.67,117.9,40.496185,-3.383001,598.3,3,5,235.5,0.703
99.91,1,0.042,-0.005,0.04,0.016,0.036,0.004,-1.533,0.022,0.45,98.67,117.9,40.496185,-3.383001,598.3,3,5,235.5,0.703
100.01,1,0.041,0.043,0.021,0.037,0.019,0.021,-1.532,0.023,0.451,98.67,117.9,40.496185,-3.383001,598.3,3,5,235.5,0.703
100.11,1,0.044,0.045,0.002,0.034,0.047,0.012,-1.531,0.022,0.451,98.67,117.9,40.496185,-3.383001,598.3,3,5,235.5,0.703
100.21,1,-0.046,0.03,0.025,0.012,0.036,0.016,-1.531,0.022,0.451,98.67,117.9,40.496185,-3.383001,598.3,3,5,235.5,0.703
100.31,1,-0.005,0.107,0.051,-0.026,0.069,0.03,-1.531,0.022,0.451,98.67,117.9,40.496185,-3.383001,598.3,3,5,235.5,0.703
100.42,1,-0.061,-0.005,0.058,-0.018,0.035,0.055,-1.532,0.023,0.451,99.67,117.0,40.496017,-3.383315,598.4,3,5,235.2,0.703
100.52,1,-0.023,0.062,0.032,-0.035,0.049,0.035,-1.532,0.023,0.451,99.67,117.0,40.496017,-3.383315,598.4,3,5,235.2,0.703
100.62,1,-0.032,0.003,0.027,-0.018,0.021,0.041,-1.535,0.023,0.451,99.67,117.0,40.496017,-3.383315,598.4,3,5,235.2,0.703
100.71,1,-0.114,0.039,0.073,-0.068,0.034,0.042,-1.534,0.024,0.451,99.67,117.0,40.496017,-3.383315,598.4,3,5,235.2,0.703
100.81,1,0.03,0.087,-0.008,-0.052,0.059,0.034,-1.534,0.024,0.451,99.67,117.0,40.496017,-3.383315,598.4,3,5,235.2,0.703
100.91,1,0.015,-0.032,0.056,0.01,0.026,0.033,-1.533,0.026,0.451,99.67,117.0,40.496017,-3.383315,598.4,3,5,235.2,0.703
101.01,1,-0.075,0.014,0.008,-0.02,-0.006,0.027,-1.534,0.027,0.452,99.67,117.0,40.496017,-3.383315,598.4,3,5,235.2,0.703
101.13,1,0.023,0.062,0.067,-0.031,0.048,0.032,-1.534,0.028,0.454,99.67,117.0,40.496017,-3.383315,598.4,3,5,235.2,0.703
101.21,1,0.029,-0.015,0.016,0.025,0.001,0.047,-1.533,0.029,0.454,99.67,117.0,40.496017,-3.383315,598.4,3,5,235.2,0.703
101.31,1,0.02,0.051,0.035,0.008,0.03,0.024,-1.533,0.028,0.454,99.67,117.0,40.496017,-3.383315,598.4,3,5,235.2,0.703
101.41,1,0.008,0.008,0.064,0.024,0.025,0.047,-1.535,0.029,0.454,100.64,116.1,40.49585,-3.383628,598.5,3,5,234.5,1.055
101.51,1,-0.016,0.033,0.039,-0.013,0.023,0.052,-1.547,0.04,0.455,100.64,116.1,40.49585,-3.383628,598.5,3,5,234.5,1.055
101.62,1,-0.017,0.043,0.043,-0.012,0.048,0.037,-1.548,0.045,0.455,100.64,116.1,40.49585,-3.383628,598.5,3,5,234.5,1.055
101.71,1,-0.008,0.039,0.031,-0.005,0.031,0.04,-1.557,0.047,0.456,100.64,116.1,40.49585,-3.383628,598.5,3,5,234.5,1.055
101.82,1,-0.035,0.024,0.02,-0.014,0.031,0.034,-1.564,0.039,0.457,100.64,116.1,40.49585,-3.383628,598.5,3,5,234.5,1.055
101.92,1,-0.06,0.038,-0.005,-0.038,0.028,0.013,-1.568,0.042,0.459,100.64,116.1,40.49585,-3.383628,598.5,3,5,234.5,1.055
102.01,1,0.048,0.035,0.01,-0.025,0.041,-0.001,-1.568,0.043,0.46,100.64,116.1,40.49585,-3.383628,598.5,3,5,234.5,1.055
102.11,1,-0.03,0.019,0.027,0.008,0.028,0.021,-1.571,0.047,0.459,100.64,116.1,40.49585,-3.383628,598.5,3,5,234.5,1.055
102.22,1,-0.013,0.083,0.008,-0.022,0.049,0.018,-1.573,0.051,0.46,100.64,116.1,40.49585,-3.383628,598.5,3,5,234.5,1.055
102.32,1,-0.003,0.064,0.001,0.003,0.059,0.008,-1.573,0.054,0.461,100.64,116.1,40.49585,-3.383628,598.5,3,5,234.5,1.055
102.42,1,0.026,0.089,0.021,-0.002,0.079,0.011,-1.572,0.055,0.461,101.64,115.7,40.495678,-3.383937,598.9,3,5,234.1,1.055
102.52,1,-0.029,0.037,0.003,0.002,0.055,0.011,-1.57,0.053,0.461,101.64,115.7,40.495678,-3.383937,598.9,3,5,234.1,1.055
102.62,1,0.108,0.057,0.015,0.03,0.06,0.012,-1.568,0.044,0.461,101.64,115.7,40.495678,-3.383937,598.9,3,5,234.1,1.055
102.72,1,-0.035,0.061,0.022,0.035,0.05,0.017,-1.568,0.04,0.461,101.64,115.7,40.495678,-3.383937,598.9,3,5,234.1,1.055
102.83,1,0.019,0.081,0.001,-0.001,0.077,0.005,-1.565,0.033,0.462,101.64,115.7,40.495678,-3.383937,598.9,3,5,234.1,1.055
102.92,1,-0.014,0.02,0.006,0.004,0.048,0.011,-1.565,0.031,0.463,101.64,115.7,40.495678,-3.383937,598.9,3,5,234.1,1.055
103.02,1,0.025,0.012,0.069,0.005,0.028,0.034,-1.566,0.03,0.464,101.64,115.7,40.495678,-3.383937,598.9,3,5,234.1,1.055
103.12,1,-0.021,0.024,0.013,0.002,0.015,0.03,-1.568,0.031,0.464,101.64,115.7,40.495678,-3.383937,598.9,3,5,234.1,1.055
103.22,1,0.04,0.017,0.012,0.009,0.031,0.018,-1.571,0.029,0.465,101.64,115.7,40.495678,-3.383937,598.9,3,5,234.1,1.055
103.32,1,-0.055,0.046,0.021,-0.003,0.024,0.022,-1.572,0.023,0.464,101.64,115.7,40.495678,-3.383937,598.9,3,5,234.1,1.055
103.42,1,-0.021,0.046,-0.006,-0.04,0.047,0.007,-1.569,0.02,0.465,102.66,116.1,40.495506,-3.384246,598.8,3,5,233.8,0.703
103.52,1,0.036,0.052,0.014,0.008,0.048,0.006,-1.568,0.012,0.465,102.66,116.1,40.495506,-3.384246,598.8,3,5,233.8,0.703
103.62,1,-0.037,0.005,-0.002,-0.003,0.028,0.005,-1.571,0.009,0.465,102.66,116.1,40.495506,-3.384246,598.8,3,5,233.8,0.703
103.72,1,-0.035,-0.005,0.027,-0.027,0.006,0.014,-1.571,0.009,0.466,102.66,116.1,40.495506,-3.384246,598.8,3,5,233.8,0.703
103.82,1,-0.058,-0.007,0.006,-0.038,0.006,0.016,-1.571,0.009,0.466,102.66,116.1,40.495506,-3.384246,598.8,3,5,233.8,0.703
103.92,1,-0.007,0.009,0.017,-0.038,-0.002,0.014,-1.573,0.008,0.467,102.66,116.1,40.495506,-3.384246,598.8,3,5,233.8,0.703
104.02,1,-0.011,0.008,0.006,-0.01,0.005,0.005,-1.574,0.009,0.468,102.66,116.1,40.495506,-3.384246,598.8,3,5,233.8,0.703
104.13,1,-0.002,0.007,0.006,-0.002,0.013,0.005,-1.574,0.008,0.468,102.66,116.1,40.495506,-3.384246,598.8,3,5,233.8,0.703
104.23,1,-0.033,0.005,0.024,-0.027,0.006,0.02,-1.575,0.004,0.469,102.66,116.1,40.495506,-3.384246,598.8,3,5,233.8,0.703
104.32,1,0.008,0.01,0.023,-0.024,0.008,0.015,-1.576,0.0,0.47,102.66,116.1,40.495506,-3.384246,598.8,3,5,233.8,0.703
104.42,1,-0.03,-0.029,0.001,0.001,-0.015,0.022,-1.576,-0.004,0.47,103.66,118.4,40.495331,-3.384555,598.9,3,5,233.8,0.352
104.53,1,-0.007,-0.004,0.025,-0.022,-0.006,0.01,-1.572,-0.005,0.471,103.66,118.4,40.495331,-3.384555,598.9,3,5,233.8,0.352
104.63,1,-0.054,0.016,0.008,-0.026,-0.002,0.014,-1.573,-0.003,0.472,103.66,118.4,40.495331,-3.384555,598.9,3,5,233.8,0.352
104.73,1,0.027,-0.014,0.038,-0.022,0.007,0.023,-1.575,0.005,0.473,103.66,118.4,40.495331,-3.384555,598.9,3,5,233.8,0.352
104.82,1,0.004,-0.026,0.004,0.014,-0.021,0.017,-1.575,0.011,0.474,103.66,118.4,40.495331,-3.384555,598.9,3,5,233.8,0.352
104.93,1,-0.024,0.002,0.006,-0.004,-0.002,0.012,-1.576,0.009,0.475,103.66,118.4,40.495331,-3.384555,598.9,3,5,233.8,0.352
105.02,1,-0.014,-0.013,0.015,-0.011,-0.01,0.012,-1.578,0.008,0.476,103.66,118.4,40.495331,-3.384555,598.9,3,5,233.8,0.352
105.12,1,-0.002,-0.043,0.02,-0.019,-0.018,0.007,-1.578,0.007,0.477,103.66,118.4,40.495331,-3.384555,598.9,3,5,233.8,0.352
105.23,1,0.012,0.001,0.067,0.001,-0.017,0.039,-1.576,0.005,0.478,103.66,118.4,40.495331,-3.384555,598.9,3,5,233.8,0.352
105.32,1,-0.004,0.015,0.008,0.002,-0.009,0.037,-1.573,0.003,0.479,103.66,118.4,40.495331,-3.384555,598.9,3,5,233.8,0.352
105.44,1,-0.021,-0.009,0.016,-0.006,-0.004,0.023,-1.573,0.0,0.48,104.64,118.7,40.495144,-3.384865,598.8,3,5,233.1,0.703
105.53,1,-0.112,0.037,0.024,-0.051,0.015,0.016,-1.571,-0.006,0.48,104.64,118.7,40.495144,-3.384865,598.8,3,5,233.1,0.703
105.63,1,-0.012,-0.007,0.041,-0.065,0.013,0.032,-1.572,-0.003,0.481,104.64,118.7,40.495144,-3.384865,598.8,3,5,233.1,0.703
105.73,1,-0.112,0.014,-0.011,-0.063,0.002,0.015,-1.575,0.011,0.482,104.64,118.7,40.495144,-3.384865,598.8,3,5,233.1,0.703
105.83,1,-0.028,-0.021,0.046,-0.048,-0.001,0.028,-1.576,0.015,0.483,104.64,118.7,40.495144,-3.384865,598.8,3,5,233.1,0.703
105.93,1,-0.026,-0.029,0.055,-0.04,-0.014,0.039,-1.576,0.014,0.483,104.64,118.7,40.495144,-3.384865,598.8,3,5,233.1,0.703
106.04,1,-0.008,-0.021,0.02,-0.017,-0.023,0.035,-1.578,0.01,0.484,104.64,118.7,40.495144,-3.384865,598.8,3,5,233.1,0.703
106.14,1,-0.054,0.005,0.017,-0.038,-0.013,0.019,-1.58,0.009,0.484,104.64,118.7,40.495144,-3.384865,598.8,3,5,233.1,0.703
106.23,1,-0.039,0.036,0.016,-0.038,0.015,0.02,-1.582,0.007,0.484,104.64,118.7,40.495144,-3.384865,598.8,3,5,233.1,0.703
106.33,1,0.012,0.001,0.018,-0.027,0.013,0.017,-1.583,0.008,0.485,104.64,118.7,40.495144,-3.384865,598.8,3,5,233.1,0.703
106.43,1,0.029,0.014,0.013,0.016,0.004,0.02,-1.585,0.007,0.484,105.64,118.8,40.494957,-3.38518,598.8,3,5,232.4,1.406
106.53,1,0.009,0.051,0.035,0.004,0.034,0.019,-1.582,0.01,0.484,105.64,118.8,40.494957,-3.38518,598.8,3,5,232.4,1.406
106.63,1,0.008,0.007,0.029,0.017,0.023,0.029,-1.583,0.009,0.483,105.64,118.8,40.494957,-3.38518,598.8,3,5,232.4,1.406
106.73,1,0.04,0.061,0.029,0.024,0.036,0.035,-1.584,0.003,0.483,105.64,118.8,40.494957,-3.38518,598.8,3,5,232.4,1.406
106.83,1,0.042,0.026,0.025,0.021,0.039,0.023,-1.584,0.001,0.483,105.64,118.8,40.494957,-3.38518,598.8,3,5,232.4,1.406
106.94,1,0.017,-0.028,0.024,0.041,0.009,0.016,-1.586,0.005,0.483,105.64,118.8,40.494957,-3.38518,598.8,3,5,232.4,1.406
107.03,1,-0.034,0.034,0.025,-0.004,0.01,0.033,-1.587,0.008,0.484,105.64,118.8,40.494957,-3.38518,598.8,3,5,232.4,1.406
107.13,1,-0.019,0.01,0.001,-0.024,0.015,0.02,-1.587,0.009,0.484,105.64,118.8,40.494957,-3.38518,598.8,3,5,232.4,1.406
107.23,1,-0.033,-0.005,-0.015,-0.02,0.004,-0.002,-1.589,0.005,0.484,105.64,118.8,40.494957,-3.38518,598.8,3,5,232.4,1.406
107.33,1,-0.015,-0.014,0.026,-0.028,0.001,0.005,-1.589,0.004,0.485,105.64,118.8,40.494957,-3.38518,598.8,3,5,232.4,1.406
107.44,1,-0.005,-0.01,-0.004,-0.006,-0.008,0.002,-1.587,0.005,0.486,106.7,120.8,40.49477,-3.385483,598.8,3,5,232.0,1.055
107.53,1,0.023,-0.003,0.035,0.019,-0.009,0.027,-1.586,0.005,0.486,106.7,120.8,40.49477,-3.385483,598.8,3,5,232.0,1.055
107.63,1,-0.03,0.02,0.025,-0.013,0.004,0.017,-1.586,0.002,0.485,106.7,120.8,40.49477,-3.385483,598.8,3,5,232.0,1.055
107.74,1,-0.002,-0.005,0.015,-0.014,0.002,0.02,-1.586,0.0,0.485,106.7,120.8,40.49477,-3.385483,598.8,3,5,232.0,1.055
107.84,1,-0.061,0.028,-0.001,-0.028,0.015,0.007,-1.589,-0.003,0.485,106.7,120.8,40.49477,-3.385483,598.8,3,5,232.0,1.055
107.93,1,-0.014,-0.01,0.029,-0.028,0.006,0.02,-1.591,-0.001,0.485,106.7,120.8,40.49477,-3.385483,598.8,3,5,232.0,1.055
108.03,1,0.006,0.005,0.023,-0.022,0.002,0.02,-1.59,-0.002,0.485,106.7,120.8,40.49477,-3.385483,598.8,3,5,232.0,1.055
108.13,1,-0.008,-0.001,0.008,-0.005,0.005,0.015,-1.59,-0.003,0.485,106.7,120.8,40.49477,-3.385483,598.8,3,5,232.0,1.055
108.23,1,-0.015,-0.021,0.012,0.002,-0.01,0.021,-1.59,-0.003,0.485,106.7,120.8,40.49477,-3.385483,598.8,3,5,232.0,1.055
108.34,1,-0.0,0.025,0.036,-0.016,0.003,0.015,-1.59,-0.005,0.485,106.7,120.8,40.49477,-3.385483,598.8,3,5,232.0,1.055
108.45,1,-0.064,0.035,-0.015,-0.027,0.024,0.012,-1.594,-0.005,0.485,107.68,122.3,40.494595,-3.38579,598.9,3,5,232.0,0.352
108.55,1,0.076,-0.015,0.026,0.004,0.007,0.015,-1.593,-0.003,0.486,107.68,122.3,40.494595,-3.38579,598.9,3,5,232.0,0.352
108.64,1,0.008,-0.083,0.017,0.031,-0.029,0.01,-1.592,-0.002,0.487,107.68,122.3,40.494595,-3.38579,598.9,3,5,232.0,0.352
108.74,1,-0.013,0.007,0.014,0.013,-0.03,0.018,-1.592,-0.003,0.487,107.68,122.3,40.494595,-3.38579,598.9,3,5,232.0,0.352
108.84,1,-0.064,0.023,0.007,-0.039,0.001,0.013,-1.592,-0.001,0.488,107.68,122.3,40.494595,-3.38579,598.9,3,5,232.0,0.352
108.94,1,0.112,-0.066,0.033,0.013,-0.035,0.024,-1.594,0.001,0.488,107.68,122.3,40.494595,-3.38579,598.9,3,5,232.0,0.352
109.05,1,-0.018,-0.034,0.002,0.035,-0.032,0.01,-1.593,0.001,0.489,107.68,122.3,40.494595,-3.38579,598.9,3,5,232.0,0.352
109.14,1,0.007,0.014,0.001,-0.001,-0.012,0.013,-1.593,0.0,0.489,107.68,122.3,40.494595,-3.38579,598.9,3,5,232.0,0.352
109.24,1,0.081,-0.054,0.013,0.037,-0.018,-0.003,-1.592,0.001,0.49,107.68,122.3,40.494595,-3.38579,598.9,3,5,232.0,0.352
109.34,1,-0.005,0.003,-0.016,0.033,-0.028,0.01,-1.592,0.005,0.49,107.68,122.3,40.494595,-3.38579,598.9,3,5,232.0,0.352
109.44,1,-0.007,-0.005,0.032,0.006,-0.01,0.012,-1.592,0.005,0.491,108.65,123.5,40.4944,-3.386095,599.8,3,5,231.7,0.352
109.54,1,-0.006,-0.026,0.017,0.0,-0.014,0.011,-1.592,0.006,0.492,108.65,123.5,40.4944,-3.386095,599.8,3,5,231.7,0.352
109.64,1,-0.003,-0.013,0.016,-0.002,-0.013,0.019,-1.593,0.008,0.493,108.65,123.5,40.4944,-3.386095,599.8,3,5,231.7,0.352
109.84,1,0.017,-0.017,0.022,-0.006,-0.011,0.026,-1.591,0.008,0.493,108.65,123.5,40.4944,-3.386095,599.8,3,5,231.7,0.352
109.94,1,-0.022,-0.001,0.019,-0.004,-0.01,0.016,-1.592,0.007,0.494,108.65,123.5,40.4944,-3.386095,599.8,3,5,231.7,0.352
110.04,1,-0.017,0.005,-0.004,-0.01,-0.0,0.013,-1.593,0.006,0.495,108.65,123.5,40.4944,-3.386095,599.8,3,5,231.7,0.352
110.15,1,-0.033,-0.029,0.017,-0.024,-0.013,0.006,-1.596,0.012,0.496,108.65,123.5,40.4944,-3.386095,599.8,3,5,231.7,0.352
110.25,1,-0.017,-0.033,0.014,-0.028,-0.024,0.009,-1.596,0.015,0.497,108.65,123.5,40.4944,-3.386095,599.8,3,5,231.7,0.352
110.34,1,-0.006,-0.004,0.007,-0.014,-0.021,0.018,-1.595,0.016,0.498,108.65,123.5,40.4944,-3.386095,599.8,3,5,231.7,0.352
110.44,1,0.025,0.009,0.014,0.001,-0.002,0.01,-1.591,0.014,0.498,108.65,123.5,40.4944,-3.386095,599.8,3,5,231.7,0.352
110.54,1,0.071,-0.031,0.006,0.04,-0.012,0.01,-1.592,0.016,0.499,109.65,125.4,40.494213,-3.386412,599.9,3,5,231.3,0.703
110.64,1,-0.06,0.054,-0.044,0.008,0.008,-0.013,-1.593,0.021,0.5,109.65,125.4,40.494213,-3.386412,599.9,3,5,231.3,0.703
110.75,1,0.022,0.068,0.034,-0.015,0.047,0.001,-1.593,0.027,0.5,109.65,125.4,40.494213,-3.386412,599.9,3,5,231.3,0.703
110.84,1,-0.024,0.045,-0.002,-0.001,0.05,0.002,-1.593,0.027,0.499,109.65,125.4,40.494213,-3.386412,599.9,3,5,231.3,0.703
110.95,1,0.007,0.045,0.003,-0.003,0.051,0.0,-1.592,0.028,0.499,109.65,125.4,40.494213,-3.386412,599.9,3,5,231.3,0.703
111.04,1,0.062,0.022,0.001,0.029,0.036,0.005,-1.588,0.029,0.5,109.65,125.4,40.494213,-3.386412,599.9,3,5,231.3,0.703
111.14,1,-0.028,0.031,0.001,0.016,0.027,0.006,-1.586,0.026,0.499,109.65,125.4,40.494213,-3.386412,599.9,3,5,231.3,0.703
111.24,1,0.002,0.046,-0.033,-0.003,0.034,-0.015,-1.583,0.021,0.499,109.65,125.4,40.494213,-3.386412,599.9,3,5,231.3,0.703
111.35,1,-0.032,-0.019,0.052,-0.031,0.023,0.008,-1.58,0.018,0.499,109.65,125.4,40.494213,-3.386412,599.9,3,5,231.3,0.703
111.44,1,-0.021,0.031,-0.015,-0.021,0.009,-0.002,-1.585,0.018,0.5,109.65,125.4,40.494213,-3.386412,599.9,3,5,231.3,0.703
111.55,1,-0.065,-0.03,0.005,-0.032,0.002,0.011,-1.588,0.02,0.501,110.67,127.9,40.494022,-3.386732,600.1,3,5,230.6,1.055
111.64,1,0.033,0.04,-0.016,-0.01,0.007,-0.011,-1.587,0.019,0.502,110.67,127.9,40.494022,-3.386732,600.1,3,5,230.6,1.055
111.74,1,0.015,0.021,-0.021,0.013,0.023,-0.004,-1.587,0.018,0.501,110.67,127.9,40.494022,-3.386732,600.1,3,5,230.6,1.055
111.85,1,-0.063,0.026,0.007,-0.018,0.024,-0.01,-1.587,0.018,0.501,110.67,127.9,40.494022,-3.386732,600.1,3,5,230.6,1.055
111.95,1,-0.003,-0.004,0.013,-0.029,0.017,0.001,-1.587,0.018,0.502,110.67,127.9,40.494022,-3.386732,600.1,3,5,230.6,1.055
