Timestamp_Accel,SystemActivated,accelerometerXAxis,accelerometerYAxis,accelerometerZAxis,AccelX_KF,AccelY_KF,AccelZ_KF,gyroscopeXAxis,gyroscopeYAxis,gyroscopeZAxis,Timestamp_GPS,Speed,latitude,longitude,Altitude,VerticalAccuracy,HorizontalAccuracy,Course,Difcourse
7.19,0,-0.064,0.058,-0.009,-0.045,0.023,0.028,-1.611,0.054,2.599,7.23,0.0,40.505894,-3.360942,609.9,34,175,-1.0,-1.0
7.3,0,0.08,0.036,0.061,0.014,0.032,0.038,-1.611,0.056,2.6,7.23,0.0,40.505894,-3.360942,609.9,34,175,-1.0,-1.0
7.39,0,0.036,-0.01,0.043,0.035,0.018,0.039,-1.609,0.057,2.6,7.23,0.0,40.505894,-3.360942,609.9,34,175,-1.0,-1.0
7.5,0,-0.018,0.011,0.012,0.015,0.005,0.026,-1.607,0.057,2.601,7.23,0.0,40.505894,-3.360942,609.9,34,175,-1.0,-1.0
7.6,0,0.014,0.02,0.074,0.025,0.01,0.049,-1.609,0.059,2.6,7.23,0.0,40.505894,-3.360942,609.9,34,175,-1.0,-1.0
7.7,1,-0.043,0.048,0.086,-0.023,0.032,0.063,-1.611,0.061,2.6,7.23,0.0,40.505894,-3.360942,609.9,34,175,-1.0,-1.0
7.8,1,0.017,0.05,0.08,-0.016,0.041,0.078,-1.621,0.06,2.601,7.23,0.0,40.505894,-3.360942,609.9,34,175,-1.0,-1.0
7.9,1,-0.069,0.036,0.025,-0.018,0.046,0.063,-1.627,0.054,2.601,7.23,0.0,40.505894,-3.360942,609.9,34,175,-1.0,-1.0
8.0,1,-0.082,0.022,-0.023,-0.07,0.029,0.007,-1.628,0.053,2.601,7.23,0.0,40.505894,-3.360942,609.9,34,175,-1.0,-1.0
8.1,1,0.057,-0.009,0.085,-0.016,0.015,0.039,-1.629,0.051,2.6,7.23,0.0,40.505894,-3.360942,609.9,34,175,-1.0,-1.0
8.2,1,0.032,0.036,0.047,0.017,0.013,0.05,-1.629,0.049,2.598,8.26,68.7,40.505917,-3.356682,603.4,48,50,273.5,86.484
8.3,1,-0.046,0.088,0.043,-0.0,0.059,0.058,-1.627,0.048,2.598,8.26,68.7,40.505917,-3.356682,603.4,48,50,273.5,86.484
8.4,1,-0.004,0.008,0.02,-0.021,0.043,0.023,-1.626,0.048,2.598,8.26,68.7,40.505917,-3.356682,603.4,48,50,273.5,86.484
8.5,1,0.011,-0.016,0.027,0.001,0.012,0.033,-1.627,0.048,2.598,8.26,68.7,40.505917,-3.356682,603.4,48,50,273.5,86.484
8.6,1,0.004,0.029,0.051,0.013,-0.0,0.034,-1.628,0.048,2.598,8.26,68.7,40.505917,-3.356682,603.4,48,50,273.5,86.484
8.7,1,-0.072,0.102,0.032,-0.032,0.053,0.038,-1.628,0.047,2.597,8.26,68.7,40.505917,-3.356682,603.4,48,50,273.5,86.484
8.8,1,-0.18,0.072,-0.012,-0.089,0.072,0.016,-1.628,0.046,2.596,8.26,68.7,40.505917,-3.356682,603.4,48,50,273.5,86.484
8.9,1,0.015,0.007,0.049,-0.083,0.044,0.02,-1.629,0.045,2.594,8.26,68.7,40.505917,-3.356682,603.4,48,50,273.5,86.484
9.01,1,0.11,0.039,0.055,0.024,0.032,0.046,-1.628,0.042,2.591,8.26,68.7,40.505917,-3.356682,603.4,48,50,273.5,86.484
9.1,1,-0.001,0.084,0.017,0.032,0.064,0.039,-1.626,0.043,2.59,8.26,68.7,40.505917,-3.356682,603.4,48,50,273.5,86.484
9.2,1,-0.052,0.094,0.013,-0.013,0.078,0.017,-1.626,0.045,2.589,9.29,71.4,40.505707,-3.356798,594.4,3,5,273.5,0.0
9.3,1,-0.018,0.024,0.056,-0.025,0.062,0.036,-1.628,0.048,2.588,9.29,71.4,40.505707,-3.356798,594.4,3,5,273.5,0.0
9.4,1,0.001,0.015,0.04,-0.014,0.03,0.037,-1.629,0.049,2.588,9.29,71.4,40.505707,-3.356798,594.4,3,5,273.5,0.0
9.5,1,-0.057,0.104,0.045,-0.022,0.063,0.047,-1.629,0.05,2.585,9.29,71.4,40.505707,-3.356798,594.4,3,5,273.5,0.0
9.6,1,-0.057,0.029,-0.01,-0.049,0.054,0.024,-1.63,0.05,2.584,9.29,71.4,40.505707,-3.356798,594.4,3,5,273.5,0.0
9.7,1,0.077,0.028,0.088,-0.003,0.025,0.035,-1.63,0.049,2.583,9.29,71.4,40.505707,-3.356798,594.4,3,5,273.5,0.0
9.8,1,-0.054,0.074,-0.007,0.001,0.064,0.043,-1.629,0.049,2.581,9.29,71.4,40.505707,-3.356798,594.4,3,5,273.5,0.0
9.9,1,-0.012,0.06,0.014,-0.018,0.057,0.007,-1.628,0.049,2.58,9.29,71.4,40.505707,-3.356798,594.4,3,5,273.5,0.0
10.0,1,-0.035,0.036,-0.001,-0.028,0.05,0.011,-1.629,0.048,2.579,9.29,71.4,40.505707,-3.356798,594.4,3,5,273.5,0.0
10.1,1,0.012,-0.004,0.005,0.001,0.027,0.012,-1.629,0.046,2.578,9.29,71.4,40.505707,-3.356798,594.4,3,5,273.5,0.0
10.2,1,-0.042,0.102,0.016,-0.017,0.041,0.001,-1.629,0.044,2.577,10.22,75.0,40.505749,-3.357033,596.0,3,5,273.9,0.352
10.3,1,0.041,0.071,0.054,-0.004,0.076,0.028,-1.629,0.042,2.575,10.22,75.0,40.505749,-3.357033,596.0,3,5,273.9,0.352
10.4,1,0.031,-0.003,-0.009,0.012,0.039,0.016,-1.628,0.043,2.574,10.22,75.0,40.505749,-3.357033,596.0,3,5,273.9,0.352
10.5,1,-0.015,0.075,0.008,0.019,0.041,0.015,-1.627,0.045,2.573,10.22,75.0,40.505749,-3.357033,596.0,3,5,273.9,0.352
10.6,1,0.035,0.084,0.043,0.009,0.077,0.02,-1.628,0.048,2.572,10.22,75.0,40.505749,-3.357033,596.0,3,5,273.9,0.352
10.71,1,0.001,-0.018,0.061,0.017,0.04,0.047,-1.628,0.051,2.571,10.22,75.0,40.505749,-3.357033,596.0,3,5,273.9,0.352
10.8,1,-0.039,-0.047,-0.038,-0.008,-0.02,0.016,-1.627,0.053,2.57,10.22,75.0,40.505749,-3.357033,596.0,3,5,273.9,0.352
10.91,1,0.025,0.074,0.051,-0.008,0.02,0.015,-1.628,0.052,2.57,10.22,75.0,40.505749,-3.357033,596.0,3,5,273.9,0.352
11.0,1,-0.015,0.099,0.041,0.003,0.05,0.033,-1.629,0.052,2.569,10.22,75.0,40.505749,-3.357033,596.0,3,5,273.9,0.352
11.1,1,-0.029,0.075,0.015,-0.022,0.092,0.029,-1.627,0.051,2.568,10.22,75.0,40.505749,-3.357033,596.0,3,5,273.9,0.352
11.2,1,-0.071,0.052,0.0,-0.042,0.079,0.009,-1.627,0.053,2.568,11.26,79.1,40.505764,-3.357294,593.7,3,5,274.9,1.406
11.31,1,-0.096,0.006,-0.007,-0.063,0.025,0.011,-1.629,0.054,2.567,11.26,79.1,40.505764,-3.357294,593.7,3,5,274.9,1.406
11.4,1,-0.028,0.061,0.011,-0.066,0.044,-0.002,-1.63,0.054,2.567,11.26,79.1,40.505764,-3.357294,593.7,3,5,274.9,1.406
11.5,1,0.008,0.052,-0.01,-0.028,0.044,0.002,-1.628,0.052,2.566,11.26,79.1,40.505764,-3.357294,593.7,3,5,274.9,1.406
11.6,1,0.006,0.022,-0.01,0.002,0.042,-0.003,-1.626,0.049,2.565,11.26,79.1,40.505764,-3.357294,593.7,3,5,274.9,1.406
11.7,1,-0.052,0.066,-0.021,-0.017,0.045,-0.013,-1.628,0.047,2.564,11.26,79.1,40.505764,-3.357294,593.7,3,5,274.9,1.406
11.8,1,-0.018,-0.013,0.012,-0.041,0.026,-0.011,-1.629,0.049,2.565,11.26,79.1,40.505764,-3.357294,593.7,3,5,274.9,1.406
11.91,1,0.0,-0.028,-0.001,-0.002,-0.008,0.006,-1.629,0.05,2.565,11.26,79.1,40.505764,-3.357294,593.7,3,5,274.9,1.406
12.0,1,-0.004,0.032,-0.007,-0.015,0.001,-0.008,-1.629,0.05,2.564,11.26,79.1,40.505764,-3.357294,593.7,3,5,274.9,1.406
12.1,1,-0.048,0.078,-0.029,-0.022,0.043,-0.012,-1.629,0.056,2.564,11.26,79.1,40.505764,-3.357294,593.7,3,5,274.9,1.406
12.2,1,0.04,-0.001,0.03,0.001,0.034,-0.0,-1.63,0.055,2.564,12.22,82.8,40.505791,-3.357562,592.4,3,5,276.0,2.109
12.3,1,-0.047,0.03,-0.044,-0.01,0.025,-0.006,-1.63,0.054,2.564,12.22,82.8,40.505791,-3.357562,592.4,3,5,276.0,2.109
12.4,1,-0.016,0.024,-0.004,-0.026,0.028,-0.025,-1.634,0.051,2.564,12.22,82.8,40.505791,-3.357562,592.4,3,5,276.0,2.109
12.5,1,0.055,0.038,0.063,0.013,0.033,0.028,-1.635,0.049,2.565,12.22,82.8,40.505791,-3.357562,592.4,3,5,276.0,2.109
12.6,1,-0.08,-0.049,-0.091,-0.02,0.001,-0.014,-1.632,0.051,2.566,12.22,82.8,40.505791,-3.357562,592.4,3,5,276.0,2.109
12.7,1,0.018,-0.017,0.045,-0.014,-0.021,-0.015,-1.634,0.055,2.568,12.22,82.8,40.505791,-3.357562,592.4,3,5,276.0,2.109
12.8,1,-0.017,-0.032,-0.01,-0.007,-0.024,0.011,-1.631,0.058,2.57,12.22,82.8,40.505791,-3.357562,592.4,3,5,276.0,2.109
12.9,1,-0.046,-0.064,-0.064,-0.02,-0.046,-0.033,-1.63,0.057,2.571,12.22,82.8,40.505791,-3.357562,592.4,3,5,276.0,2.109
13.0,1,-0.058,-0.064,-0.012,-0.048,-0.06,-0.032,-1.634,0.056,2.573,12.22,82.8,40.505791,-3.357562,592.4,3,5,276.0,2.109
13.12,1,-0.002,-0.063,0.059,-0.035,-0.06,0.006,-1.636,0.055,2.574,12.22,82.8,40.505791,-3.357562,592.4,3,5,276.0,2.109
13.2,1,-0.047,-0.018,-0.026,-0.029,-0.034,0.017,-1.632,0.052,2.575,13.22,86.0,40.505806,-3.357844,591.7,3,5,276.3,1.406
13.31,1,0.018,0.021,-0.034,-0.013,-0.015,-0.018,-1.628,0.051,2.576,13.22,86.0,40.505806,-3.357844,591.7,3,5,276.3,1.406
13.41,1,0.002,0.019,-0.049,0.011,0.002,-0.034,-1.628,0.05,2.578,13.22,86.0,40.505806,-3.357844,591.7,3,5,276.3,1.406
13.5,1,-0.102,0.046,-0.026,-0.04,0.033,-0.039,-1.631,0.049,2.579,13.22,86.0,40.505806,-3.357844,591.7,3,5,276.3,1.406
13.6,1,-0.093,-0.013,-0.003,-0.081,0.01,-0.017,-1.634,0.048,2.58,13.22,86.0,40.505806,-3.357844,591.7,3,5,276.3,1.406
13.7,1,-0.07,0.024,-0.019,-0.093,0.001,-0.008,-1.634,0.05,2.582,13.22,86.0,40.505806,-3.357844,591.7,3,5,276.3,1.406
13.81,1,-0.066,-0.002,-0.021,-0.064,0.018,-0.029,-1.632,0.051,2.583,13.22,86.0,40.505806,-3.357844,591.7,3,5,276.3,1.406
13.9,1,-0.008,0.01,0.024,-0.043,0.005,-0.0,-1.641,0.049,2.585,13.22,86.0,40.505806,-3.357844,591.7,3,5,276.3,1.406
14.01,1,-0.158,0.032,-0.049,-0.079,0.024,-0.014,-1.636,0.055,2.585,13.22,86.0,40.505806,-3.357844,591.7,3,5,276.3,1.406
14.11,1,-0.041,0.02,0.043,-0.096,0.021,-0.006,-1.636,0.054,2.585,13.22,86.0,40.505806,-3.357844,591.7,3,5,276.3,1.406
14.21,1,-0.05,0.042,-0.048,-0.063,0.029,0.001,-1.637,0.045,2.585,14.23,89.0,40.505833,-3.358136,591.0,3,5,276.3,0.352
14.31,1,-0.05,-0.013,-0.029,-0.052,0.011,-0.033,-1.629,0.04,2.585,14.23,89.0,40.505833,-3.358136,591.0,3,5,276.3,0.352
14.41,1,-0.058,0.038,0.003,-0.045,0.014,-0.013,-1.632,0.039,2.586,14.23,89.0,40.505833,-3.358136,591.0,3,5,276.3,0.352
14.52,1,0.066,0.011,-0.03,-0.008,0.026,-0.013,-1.631,0.037,2.587,14.23,89.0,40.505833,-3.358136,591.0,3,5,276.3,0.352
14.62,1,-0.074,0.016,-0.023,-0.013,0.022,-0.033,-1.631,0.038,2.588,14.23,89.0,40.505833,-3.358136,591.0,3,5,276.3,0.352
14.71,1,0.066,-0.004,-0.011,0.013,0.008,-0.005,-1.627,0.039,2.588,14.23,89.0,40.505833,-3.358136,591.0,3,5,276.3,0.352
14.81,1,0.026,0.058,-0.05,0.023,0.022,-0.036,-1.622,0.04,2.588,14.23,89.0,40.505833,-3.358136,591.0,3,5,276.3,0.352
14.91,1,0.013,0.034,-0.019,0.022,0.04,-0.029,-1.617,0.046,2.588,14.23,89.0,40.505833,-3.358136,591.0,3,5,276.3,0.352
15.01,1,0.012,0.014,-0.038,0.022,0.028,-0.027,-1.615,0.053,2.589,14.23,89.0,40.505833,-3.358136,591.0,3,5,276.3,0.352
15.11,1,-0.056,-0.007,-0.027,-0.014,0.007,-0.033,-1.611,0.048,2.59,14.23,89.0,40.505833,-3.358136,591.0,3,5,276.3,0.352
15.21,1,-0.137,0.021,-0.014,-0.079,0.008,-0.024,-1.608,0.056,2.591,15.22,91.5,40.505859,-3.358434,590.1,3,5,276.0,0.352
15.31,1,-0.1,-0.001,-0.047,-0.098,0.012,-0.027,-1.607,0.056,2.593,15.22,91.5,40.505859,-3.358434,590.1,3,5,276.0,0.352
15.41,1,-0.063,0.034,-0.026,-0.091,0.009,-0.039,-1.6,0.055,2.594,15.22,91.5,40.505859,-3.358434,590.1,3,5,276.0,0.352
15.52,1,-0.009,0.071,-0.065,-0.046,0.042,-0.04,-1.603,0.056,2.597,15.22,91.5,40.505859,-3.358434,590.1,3,5,276.0,0.352
15.61,1,0.1,-0.018,-0.041,0.01,0.03,-0.055,-1.597,0.055,2.599,15.22,91.5,40.505859,-3.358434,590.1,3,5,276.0,0.352
15.72,1,0.04,-0.046,-0.052,0.06,-0.017,-0.039,-1.598,0.056,2.601,15.22,91.5,40.505859,-3.358434,590.1,3,5,276.0,0.352
15.81,1,-0.016,-0.043,-0.044,0.008,-0.034,-0.064,-1.59,0.058,2.602,15.22,91.5,40.505859,-3.358434,590.1,3,5,276.0,0.352
15.91,1,-0.031,-0.034,-0.046,0.012,-0.038,-0.024,-1.585,0.058,2.605,15.22,91.5,40.505859,-3.358434,590.1,3,5,276.0,0.352
16.01,1,-0.075,0.001,-0.097,-0.054,-0.008,-0.08,-1.586,0.057,2.608,15.22,91.5,40.505859,-3.358434,590.1,3,5,276.0,0.352
16.11,1,0.016,0.039,-0.017,-0.024,-0.001,-0.048,-1.589,0.056,2.611,15.22,91.5,40.505859,-3.358434,590.1,3,5,276.0,0.352
16.21,1,-0.115,0.04,-0.095,-0.051,0.027,-0.067,-1.589,0.056,2.613,16.23,93.2,40.50589,-3.358737,591.2,3,5,275.3,1.055
16.81,1,0.031,-0.01,-0.042,0.009,-0.028,-0.052,-1.593,0.062,2.631,16.23,93.2,40.50589,-3.358737,591.2,3,5,275.3,1.055
16.92,1,0.018,0.022,-0.072,0.017,0.004,-0.062,-1.592,0.062,2.634,16.23,93.2,40.50589,-3.358737,591.2,3,5,275.3,1.055
17.02,1,0.041,-0.008,-0.034,0.023,-0.006,-0.057,-1.592,0.061,2.637,16.23,93.2,40.50589,-3.358737,591.2,3,5,275.3,1.055
17.11,1,0.001,0.035,-0.103,0.026,0.018,-0.067,-1.591,0.059,2.641,16.23,93.2,40.50589,-3.358737,591.2,3,5,275.3,1.055
17.22,1,0.058,-0.001,-0.058,0.043,0.017,-0.072,-1.591,0.058,2.644,16.23,93.2,40.50589,-3.358737,591.2,3,5,275.3,1.055
17.32,1,-0.032,0.021,-0.107,0.003,0.013,-0.091,-1.575,0.046,2.646,16.23,93.2,40.50589,-3.358737,591.2,3,5,275.3,1.055
17.42,1,0.036,-0.046,-0.012,0.015,-0.008,-0.056,-1.573,0.042,2.648,16.23,93.2,40.50589,-3.358737,591.2,3,5,275.3,1.055
17.53,1,-0.084,-0.043,-0.063,-0.02,-0.035,-0.048,-1.572,0.04,2.651,16.23,93.2,40.50589,-3.358737,591.2,3,5,275.3,1.055
17.62,1,-0.125,-0.012,-0.066,-0.092,-0.032,-0.065,-1.571,0.044,2.654,16.23,93.2,40.50589,-3.358737,591.2,3,5,275.3,1.055
17.72,1,-0.073,-0.034,-0.04,-0.082,-0.02,-0.046,-1.574,0.048,2.658,17.23,93.7,40.505909,-3.359043,591.7,3,5,274.2,1.758
17.82,1,-0.068,-0.01,-0.055,-0.062,-0.013,-0.051,-1.57,0.051,2.66,17.23,93.7,40.505909,-3.359043,591.7,3,5,274.2,1.758
17.92,1,-0.057,0.011,-0.036,-0.074,-0.008,-0.05,-1.569,0.055,2.663,17.23,93.7,40.505909,-3.359043,591.7,3,5,274.2,1.758
18.02,1,-0.09,0.006,-0.048,-0.091,0.004,-0.043,-1.568,0.055,2.666,17.23,93.7,40.505909,-3.359043,591.7,3,5,274.2,1.758
18.13,1,0.012,0.001,-0.039,-0.037,0.003,-0.041,-1.565,0.055,2.668,17.23,93.7,40.505909,-3.359043,591.7,3,5,274.2,1.758
18.23,1,0.106,0.037,-0.026,0.022,0.008,-0.042,-1.564,0.058,2.671,17.23,93.7,40.505909,-3.359043,591.7,3,5,274.2,1.758
18.32,1,0.059,0.051,-0.033,0.069,0.033,-0.028,-1.564,0.062,2.674,17.23,93.7,40.505909,-3.359043,591.7,3,5,274.2,1.758
18.42,1,0.044,0.045,-0.08,0.044,0.046,-0.056,-1.562,0.07,2.676,17.23,93.7,40.505909,-3.359043,591.7,3,5,274.2,1.758
18.52,1,0.098,0.006,0.038,0.071,0.028,-0.023,-1.564,0.071,2.679,17.23,93.7,40.505909,-3.359043,591.7,3,5,274.2,1.758
18.62,1,0.017,0.02,-0.097,0.062,0.017,-0.031,-1.561,0.069,2.681,17.23,93.7,40.505909,-3.359043,591.7,3,5,274.2,1.758
18.72,1,0.011,0.052,-0.04,0.032,0.03,-0.059,-1.552,0.063,2.683,18.23,92.8,40.505924,-3.35935,592.9,3,5,273.2,2.109
18.82,1,0.057,-0.03,-0.081,0.035,0.021,-0.057,-1.546,0.055,2.686,18.23,92.8,40.505924,-3.35935,592.9,3,5,273.2,2.109
18.92,1,0.025,-0.027,-0.03,0.035,-0.02,-0.062,-1.544,0.058,2.689,18.23,92.8,40.505924,-3.35935,592.9,3,5,273.2,2.109
19.02,1,0.013,-0.053,-0.042,0.027,-0.019,-0.038,-1.544,0.054,2.693,18.23,92.8,40.505924,-3.35935,592.9,3,5,273.2,2.109
19.13,1,0.019,-0.034,-0.028,0.022,-0.04,-0.043,-1.538,0.059,2.697,18.23,92.8,40.505924,-3.35935,592.9,3,5,273.2,2.109
19.23,1,-0.048,-0.03,-0.061,-0.012,-0.037,-0.042,-1.538,0.062,2.701,18.23,92.8,40.505924,-3.35935,592.9,3,5,273.2,2.109
19.32,1,-0.024,-0.042,0.048,-0.029,-0.031,-0.014,-1.538,0.066,2.704,18.23,92.8,40.505924,-3.35935,592.9,3,5,273.2,2.109
19.42,1,-0.062,-0.044,-0.049,-0.026,-0.047,0.003,-1.538,0.063,2.707,18.23,92.8,40.505924,-3.35935,592.9,3,5,273.2,2.109
19.52,1,-0.024,0.005,-0.03,-0.046,-0.017,-0.041,-1.539,0.06,2.71,18.23,92.8,40.505924,-3.35935,592.9,3,5,273.2,2.109
19.62,1,0.029,0.013,0.023,-0.014,-0.016,-0.005,-1.54,0.059,2.713,18.23,92.8,40.505924,-3.35935,592.9,3,5,273.2,2.109
19.72,1,-0.088,0.062,-0.058,-0.031,0.034,-0.021,-1.54,0.06,2.717,19.22,92.8,40.505939,-3.35965,593.9,3,5,273.2,1.055
19.82,1,0.059,-0.038,-0.003,-0.005,0.012,-0.021,-1.542,0.061,2.72,19.22,92.8,40.505939,-3.35965,593.9,3,5,273.2,1.055
19.93,1,-0.004,-0.055,-0.04,0.014,-0.028,-0.024,-1.541,0.062,2.723,19.22,92.8,40.505939,-3.35965,593.9,3,5,273.2,1.055
20.03,1,-0.068,-0.008,-0.061,-0.034,-0.027,-0.041,-1.54,0.062,2.728,19.22,92.8,40.505939,-3.35965,593.9,3,5,273.2,1.055
20.12,1,-0.015,-0.073,-0.025,-0.032,-0.035,-0.049,-1.542,0.062,2.73,19.22,92.8,40.505939,-3.35965,593.9,3,5,273.2,1.055
20.22,1,-0.056,-0.056,-0.055,-0.032,-0.061,-0.039,-1.544,0.06,2.734,19.22,92.8,40.505939,-3.35965,593.9,3,5,273.2,1.055
20.32,1,-0.051,-0.029,-0.02,-0.054,-0.044,-0.041,-1.545,0.06,2.737,19.22,92.8,40.505939,-3.35965,593.9,3,5,273.2,1.055
20.43,1,0.036,-0.038,0.02,0.003,-0.043,-0.005,-1.547,0.06,2.74,19.22,92.8,40.505939,-3.35965,593.9,3,5,273.2,1.055
20.53,1,-0.057,0.006,-0.068,-0.028,-0.02,-0.024,-1.546,0.059,2.742,19.22,92.8,40.505939,-3.35965,593.9,3,5,273.2,1.055
20.63,1,0.004,-0.006,-0.022,-0.016,-0.001,-0.033,-1.544,0.06,2.743,19.22,92.8,40.505939,-3.35965,593.9,3,5,273.2,1.055
20.73,1,0.036,0.046,-0.036,0.004,0.013,-0.04,-1.545,0.058,2.744,20.24,90.3,40.505936,-3.359946,593.7,3,5,270.4,2.812
20.83,1,0.048,0.146,-0.031,0.029,0.076,-0.025,-1.544,0.057,2.744,20.24,90.3,40.505936,-3.359946,593.7,3,5,270.4,2.812
20.93,1,0.006,0.088,-0.044,0.005,0.089,-0.051,-1.545,0.058,2.746,20.24,90.3,40.505936,-3.359946,593.7,3,5,270.4,2.812
21.03,1,-0.026,0.058,0.042,0.024,0.08,0.011,-1.545,0.059,2.746,20.24,90.3,40.505936,-3.359946,593.7,3,5,270.4,2.812
21.13,1,-0.128,0.028,-0.072,-0.065,0.058,-0.03,-1.545,0.06,2.748,20.24,90.3,40.505936,-3.359946,593.7,3,5,270.4,2.812
21.23,1,0.022,-0.013,0.083,-0.036,0.029,0.004,-1.548,0.062,2.749,20.24,90.3,40.505936,-3.359946,593.7,3,5,270.4,2.812
21.33,1,-0.135,0.015,-0.018,-0.061,0.006,0.025,-1.546,0.061,2.751,20.24,90.3,40.505936,-3.359946,593.7,3,5,270.4,2.812
21.43,1,-0.064,-0.016,0.013,-0.098,-0.012,0.002,-1.546,0.059,2.754,20.24,90.3,40.505936,-3.359946,593.7,3,5,270.4,2.812
21.53,1,-0.113,-0.009,0.011,-0.068,-0.008,0.018,-1.549,0.057,2.756,20.24,90.3,40.505936,-3.359946,593.7,3,5,270.4,2.812
21.63,1,-0.091,0.033,-0.005,-0.117,0.007,-0.003,-1.552,0.058,2.759,20.24,90.3,40.505936,-3.359946,593.7,3,5,270.4,2.812
21.73,1,0.002,0.03,0.05,-0.046,0.03,0.02,-1.556,0.057,2.761,21.22,88.5,40.505932,-3.360235,594.0,3,5,268.2,4.922
21.88,1,0.083,-0.03,0.05,-0.008,0.008,0.034,-1.555,0.043,2.765,21.22,88.5,40.505932,-3.360235,594.0,3,5,268.2,4.922
21.94,1,0.071,-0.001,0.064,0.07,-0.005,0.059,-1.553,0.037,2.767,21.22,88.5,40.505932,-3.360235,594.0,3,5,268.2,4.922
22.03,1,0.052,0.019,-0.052,0.069,0.004,0.018,-1.554,0.036,2.77,21.22,88.5,40.505932,-3.360235,594.0,3,5,268.2,4.922
22.13,1,-0.092,-0.009,-0.014,-0.011,0.011,-0.022,-1.554,0.034,2.773,21.22,88.5,40.505932,-3.360235,594.0,3,5,268.2,4.922
22.24,1,-0.038,-0.045,0.032,-0.038,-0.024,0.005,-1.557,0.034,2.776,21.22,88.5,40.505932,-3.360235,594.0,3,5,268.2,4.922
22.33,1,-0.122,-0.054,0.013,-0.068,-0.046,0.018,-1.558,0.034,2.778,21.22,88.5,40.505932,-3.360235,594.0,3,5,268.2,4.922
22.43,1,-0.064,-0.024,0.009,-0.086,-0.034,0.009,-1.561,0.036,2.781,21.22,88.5,40.505932,-3.360235,594.0,3,5,268.2,4.922
22.53,1,0.002,-0.009,0.004,-0.045,-0.025,0.012,-1.565,0.039,2.785,21.22,88.5,40.505932,-3.360235,594.0,3,5,268.2,4.922
22.63,1,-0.027,-0.01,-0.025,-0.027,-0.014,-0.005,-1.566,0.042,2.788,21.22,88.5,40.505932,-3.360235,594.0,3,5,268.2,4.922
22.73,1,0.045,-0.017,0.029,-0.0,-0.007,-0.003,-1.568,0.048,2.791,22.23,87.7,40.505924,-3.36052,593.8,3,5,267.9,2.461
22.84,1,-0.021,0.01,-0.018,0.008,-0.004,0.004,-1.567,0.057,2.794,22.23,87.7,40.505924,-3.36052,593.8,3,5,267.9,2.461
22.94,1,0.041,-0.016,-0.005,0.01,-0.007,-0.008,-1.563,0.064,2.798,22.23,87.7,40.505924,-3.36052,593.8,3,5,267.9,2.461
23.04,1,0.031,-0.053,-0.009,0.024,-0.031,-0.006,-1.564,0.056,2.801,22.23,87.7,40.505924,-3.36052,593.8,3,5,267.9,2.461
23.13,1,-0.045,-0.071,-0.071,0.002,-0.045,-0.03,-1.562,0.055,2.804,22.23,87.7,40.505924,-3.36052,593.8,3,5,267.9,2.461
23.23,1,0.033,-0.07,0.033,-0.005,-0.069,-0.026,-1.565,0.052,2.809,22.23,87.7,40.505924,-3.36052,593.8,3,5,267.9,2.461
23.34,1,0.046,0.045,-0.009,0.033,-0.025,0.011,-1.563,0.048,2.811,22.23,87.7,40.505924,-3.36052,593.8,3,5,267.9,2.461
23.44,1,-0.058,-0.017,-0.055,-0.002,-0.001,-0.032,-1.563,0.045,2.814,22.23,87.7,40.505924,-3.36052,593.8,3,5,267.9,2.461
23.54,1,-0.03,-0.019,0.048,-0.027,-0.009,-0.006,-1.566,0.045,2.816,22.23,87.7,40.505924,-3.36052,593.8,3,5,267.9,2.461
23.65,1,-0.059,0.0,-0.005,-0.038,-0.01,0.018,-1.565,0.044,2.818,22.23,87.7,40.505924,-3.36052,593.8,3,5,267.9,2.461
23.74,1,-0.062,-0.026,-0.044,-0.054,-0.019,-0.017,-1.564,0.045,2.82,23.24,86.9,40.505913,-3.360807,594.4,3,5,266.8,1.406
23.84,1,0.03,-0.031,0.036,-0.028,-0.027,-0.007,-1.564,0.046,2.822,23.24,86.9,40.505913,-3.360807,594.4,3,5,266.8,1.406
23.94,1,0.014,-0.011,-0.001,0.019,-0.019,0.014,-1.563,0.044,2.824,23.24,86.9,40.505913,-3.360807,594.4,3,5,266.8,1.406
24.04,1,0.004,0.082,0.015,0.004,0.031,0.002,-1.564,0.043,2.825,23.24,86.9,40.505913,-3.360807,594.4,3,5,266.8,1.406
24.14,1,-0.073,0.101,0.066,-0.023,0.06,0.034,-1.566,0.041,2.825,23.24,86.9,40.505913,-3.360807,594.4,3,5,266.8,1.406
24.24,1,-0.02,0.079,0.028,-0.033,0.083,0.047,-1.566,0.041,2.825,23.24,86.9,40.505913,-3.360807,594.4,3,5,266.8,1.406
24.35,1,-0.077,-0.015,0.011,-0.056,0.036,0.021,-1.566,0.042,2.825,23.24,86.9,40.505913,-3.360807,594.4,3,5,266.8,1.406
24.44,1,0.012,0.038,0.052,-0.026,0.031,0.04,-1.565,0.043,2.826,23.24,86.9,40.505913,-3.360807,594.4,3,5,266.8,1.406
24.54,1,-0.109,0.019,-0.033,-0.065,0.022,-0.002,-1.564,0.043,2.828,23.24,86.9,40.505913,-3.360807,594.4,3,5,266.8,1.406
24.64,1,0.084,0.016,0.075,-0.008,0.021,0.033,-1.564,0.044,2.829,23.24,86.9,40.505913,-3.360807,594.4,3,5,266.8,1.406
24.74,1,0.028,0.01,-0.033,0.026,0.013,0.012,-1.564,0.044,2.831,24.2,86.2,40.505894,-3.361087,595.0,3,5,265.1,2.812
24.85,1,-0.029,0.096,0.02,-0.003,0.049,0.001,-1.566,0.044,2.833,24.2,86.2,40.505894,-3.361087,595.0,3,5,265.1,2.812
24.94,1,0.048,0.051,0.079,0.022,0.053,0.043,-1.569,0.046,2.836,24.2,86.2,40.505894,-3.361087,595.0,3,5,265.1,2.812
25.04,1,-0.004,0.055,0.018,0.023,0.064,0.039,-1.568,0.047,2.84,24.2,86.2,40.505894,-3.361087,595.0,3,5,265.1,2.812
25.14,1,-0.07,-0.005,-0.016,-0.014,0.039,0.009,-1.568,0.047,2.843,24.2,86.2,40.505894,-3.361087,595.0,3,5,265.1,2.812
25.24,1,0.116,0.045,0.105,0.014,0.017,0.049,-1.569,0.046,2.844,24.2,86.2,40.505894,-3.361087,595.0,3,5,265.1,2.812
25.34,1,-0.072,0.013,-0.032,-0.005,0.025,0.026,-1.566,0.043,2.846,24.2,86.2,40.505894,-3.361087,595.0,3,5,265.1,2.812
25.45,1,-0.012,0.038,0.022,-0.019,0.027,0.006,-1.566,0.041,2.849,24.2,86.2,40.505894,-3.361087,595.0,3,5,265.1,2.812
25.55,1,-0.092,0.006,0.013,-0.039,0.034,0.02,-1.567,0.042,2.853,24.2,86.2,40.505894,-3.361087,595.0,3,5,265.1,2.812
25.64,1,-0.038,-0.002,0.011,-0.063,-0.001,0.015,-1.567,0.043,2.856,24.2,86.2,40.505894,-3.361087,595.0,3,5,265.1,2.812
25.74,1,0.034,0.054,0.002,-0.016,0.031,0.006,-1.567,0.042,2.859,25.27,86.0,40.505871,-3.361367,595.2,3,5,263.7,3.164
25.85,1,0.075,0.066,0.019,0.036,0.04,0.009,-1.569,0.038,2.862,25.27,86.0,40.505871,-3.361367,595.2,3,5,263.7,3.164
25.94,1,0.001,0.056,0.035,0.033,0.06,0.022,-1.57,0.034,2.864,25.27,86.0,40.505871,-3.361367,595.2,3,5,263.7,3.164
26.05,1,0.052,0.046,0.019,0.037,0.053,0.02,-1.575,0.029,2.867,25.27,86.0,40.505871,-3.361367,595.2,3,5,263.7,3.164
26.14,1,-0.03,0.053,-0.005,0.006,0.054,0.015,-1.574,0.038,2.87,25.27,86.0,40.505871,-3.361367,595.2,3,5,263.7,3.164
26.34,1,-0.007,-0.016,-0.025,0.005,0.013,-0.022,-1.582,0.032,2.877,25.27,86.0,40.505871,-3.361367,595.2,3,5,263.7,3.164
26.45,1,0.025,0.005,0.006,0.007,-0.002,-0.01,-1.577,0.033,2.88,25.27,86.0,40.505871,-3.361367,595.2,3,5,263.7,3.164
26.54,1,0.083,0.032,-0.016,0.039,0.011,-0.005,-1.578,0.035,2.883,25.27,86.0,40.505871,-3.361367,595.2,3,5,263.7,3.164
26.65,1,0.012,0.0,-0.043,0.04,0.012,-0.024,-1.57,0.038,2.885,25.27,86.0,40.505871,-3.361367,595.2,3,5,263.7,3.164
26.75,1,-0.083,-0.023,-0.019,-0.013,-0.005,-0.029,-1.567,0.041,2.887,25.27,86.0,40.505871,-3.361367,595.2,3,5,263.7,3.164
26.85,1,-0.015,0.008,0.012,-0.031,0.004,-0.01,-1.568,0.043,2.889,26.23,86.5,40.505844,-3.36165,596.8,3,5,262.6,2.461
26.95,1,-0.05,0.003,-0.031,-0.036,-0.012,-0.012,-1.565,0.034,2.891,26.23,86.5,40.505844,-3.36165,596.8,3,5,262.6,2.461
27.05,1,-0.01,0.019,-0.027,-0.019,0.018,-0.014,-1.563,0.031,2.893,26.23,86.5,40.505844,-3.36165,596.8,3,5,262.6,2.461
27.15,1,-0.036,0.089,-0.056,-0.031,0.041,-0.045,-1.562,0.032,2.896,26.23,86.5,40.505844,-3.36165,596.8,3,5,262.6,2.461
27.25,1,-0.019,0.054,-0.022,-0.021,0.06,-0.035,-1.565,0.033,2.898,26.23,86.5,40.505844,-3.36165,596.8,3,5,262.6,2.461
27.35,1,0.115,0.021,0.069,0.029,0.04,0.005,-1.566,0.034,2.9,26.23,86.5,40.505844,-3.36165,596.8,3,5,262.6,2.461
27.45,1,-0.012,0.072,-0.068,0.031,0.056,-0.003,-1.563,0.032,2.902,26.23,86.5,40.505844,-3.36165,596.8,3,5,262.6,2.461
27.55,1,0.003,0.003,-0.028,0.008,0.032,-0.036,-1.562,0.031,2.904,26.23,86.5,40.505844,-3.36165,596.8,3,5,262.6,2.461
27.66,1,-0.087,0.04,-0.054,-0.028,0.036,-0.038,-1.564,0.029,2.905,26.23,86.5,40.505844,-3.36165,596.8,3,5,262.6,2.461
27.76,1,0.01,-0.011,0.029,-0.027,0.006,-0.014,-1.567,0.027,2.907,26.23,86.5,40.505844,-3.36165,596.8,3,5,262.6,2.461
27.85,1,-0.023,0.039,-0.057,-0.022,0.013,-0.023,-1.565,0.026,2.909,27.24,87.0,40.50581,-3.361931,596.9,3,5,261.2,2.461
27.95,1,0.001,0.015,-0.047,-0.008,0.031,-0.036,-1.562,0.026,2.911,27.24,87.0,40.50581,-3.361931,596.9,3,5,261.2,2.461
28.05,1,-0.007,0.079,-0.039,-0.004,0.042,-0.043,-1.562,0.028,2.913,27.24,87.0,40.50581,-3.361931,596.9,3,5,261.2,2.461
28.15,1,-0.057,-0.008,-0.002,-0.027,0.031,-0.028,-1.564,0.03,2.915,27.24,87.0,40.50581,-3.361931,596.9,3,5,261.2,2.461
28.26,1,-0.061,-0.039,-0.041,-0.046,-0.006,-0.022,-1.565,0.031,2.917,27.24,87.0,40.50581,-3.361931,596.9,3,5,261.2,2.461
28.35,1,-0.015,-0.004,-0.049,-0.046,-0.014,-0.044,-1.563,0.03,2.918,27.24,87.0,40.50581,-3.361931,596.9,3,5,261.2,2.461
28.46,1,0.009,0.053,-0.023,-0.01,0.007,-0.027,-1.563,0.029,2.919,27.24,87.0,40.50581,-3.361931,596.9,3,5,261.2,2.461
28.55,1,0.004,0.049,-0.047,-0.001,0.044,-0.045,-1.562,0.03,2.92,27.24,87.0,40.50581,-3.361931,596.9,3,5,261.2,2.461
28.65,1,-0.032,0.053,-0.032,-0.003,0.057,-0.023,-1.562,0.031,2.922,27.24,87.0,40.50581,-3.361931,596.9,3,5,261.2,2.461
28.75,1,-0.015,0.04,-0.032,-0.024,0.037,-0.038,-1.562,0.031,2.923,27.24,87.0,40.50581,-3.361931,596.9,3,5,261.2,2.461
28.85,1,-0.019,-0.008,-0.034,-0.015,0.032,-0.039,-1.563,0.032,2.924,28.22,86.4,40.505772,-3.362208,597.3,3,5,259.5,3.164
28.95,1,0.067,0.116,-0.003,0.017,0.043,-0.018,-1.564,0.031,2.925,28.22,86.4,40.505772,-3.362208,597.3,3,5,259.5,3.164
29.06,1,-0.012,0.083,-0.022,0.011,0.082,-0.021,-1.563,0.031,2.926,28.22,86.4,40.505772,-3.362208,597.3,3,5,259.5,3.164
29.15,1,-0.037,0.036,-0.027,-0.023,0.062,-0.023,-1.562,0.032,2.926,28.22,86.4,40.505772,-3.362208,597.3,3,5,259.5,3.164
29.25,1,-0.029,0.023,-0.027,-0.016,0.048,-0.02,-1.562,0.032,2.927,28.22,86.4,40.505772,-3.362208,597.3,3,5,259.5,3.164
29.35,1,-0.063,-0.008,-0.039,-0.037,0.015,-0.031,-1.562,0.033,2.928,28.22,86.4,40.505772,-3.362208,597.3,3,5,259.5,3.164
29.46,1,0.005,0.0,-0.02,-0.035,0.0,-0.034,-1.563,0.035,2.93,28.22,86.4,40.505772,-3.362208,597.3,3,5,259.5,3.164
29.55,1,0.028,0.061,-0.033,0.014,0.034,-0.022,-1.563,0.037,2.933,28.22,86.4,40.505772,-3.362208,597.3,3,5,259.5,3.164
29.66,1,0.015,0.066,-0.017,0.006,0.043,-0.031,-1.562,0.039,2.935,28.22,86.4,40.505772,-3.362208,597.3,3,5,259.5,3.164
29.76,1,-0.084,-0.016,-0.014,-0.035,0.027,-0.016,-1.562,0.04,2.937,28.22,86.4,40.505772,-3.362208,597.3,3,5,259.5,3.164
29.86,1,0.031,-0.023,0.001,-0.011,-0.0,-0.013,-1.562,0.038,2.939,29.28,85.0,40.50573,-3.362483,597.6,3,5,258.0,3.164
29.96,1,-0.034,-0.002,-0.072,-0.013,-0.007,-0.027,-1.56,0.038,2.941,29.28,85.0,40.50573,-3.362483,597.6,3,5,258.0,3.164
30.07,1,-0.013,-0.011,-0.042,-0.011,-0.013,-0.047,-1.561,0.038,2.944,29.28,85.0,40.50573,-3.362483,597.6,3,5,258.0,3.164
30.16,1,-0.023,0.016,-0.037,-0.029,0.009,-0.048,-1.563,0.038,2.946,29.28,85.0,40.50573,-3.362483,597.6,3,5,258.0,3.164
30.27,1,0.046,0.042,0.036,0.015,0.023,-0.004,-1.564,0.039,2.948,29.28,85.0,40.50573,-3.362483,597.6,3,5,258.0,3.164
30.36,1,-0.021,0.006,-0.052,0.007,0.019,-0.014,-1.561,0.039,2.95,29.28,85.0,40.50573,-3.362483,597.6,3,5,258.0,3.164
30.46,1,0.02,0.041,-0.008,0.002,0.022,-0.028,-1.561,0.039,2.952,29.28,85.0,40.50573,-3.362483,597.6,3,5,258.0,3.164
30.56,1,-0.001,0.082,-0.004,0.004,0.054,-0.007,-1.562,0.038,2.954,29.28,85.0,40.50573,-3.362483,597.6,3,5,258.0,3.164
30.66,1,-0.022,0.114,-0.022,-0.002,0.081,-0.015,-1.561,0.038,2.955,29.28,85.0,40.50573,-3.362483,597.6,3,5,258.0,3.164
30.76,1,-0.009,-0.002,-0.032,-0.019,0.06,-0.027,-1.562,0.038,2.957,29.28,85.0,40.50573,-3.362483,597.6,3,5,258.0,3.164
30.87,1,-0.021,-0.026,-0.021,-0.005,0.01,-0.017,-1.562,0.038,2.959,30.25,83.2,40.505684,-3.362751,598.0,3,5,257.3,2.109
30.96,1,-0.037,0.012,-0.052,-0.029,-0.004,-0.041,-1.562,0.037,2.961,30.25,83.2,40.505684,-3.362751,598.0,3,5,257.3,2.109
31.06,1,-0.012,0.004,-0.005,-0.016,0.009,-0.024,-1.563,0.036,2.963,30.25,83.2,40.505684,-3.362751,598.0,3,5,257.3,2.109
31.16,1,0.014,-0.005,-0.009,-0.014,-0.001,-0.016,-1.564,0.034,2.964,30.25,83.2,40.505684,-3.362751,598.0,3,5,257.3,2.109
31.27,1,-0.065,0.08,-0.059,-0.018,0.023,-0.028,-1.562,0.033,2.966,30.25,83.2,40.505684,-3.362751,598.0,3,5,257.3,2.109
31.37,1,0.035,0.104,0.032,-0.011,0.089,-0.016,-1.564,0.035,2.967,30.25,83.2,40.505684,-3.362751,598.0,3,5,257.3,2.109
31.46,1,-0.011,0.031,-0.018,0.005,0.06,0.0,-1.563,0.037,2.968,30.25,83.2,40.505684,-3.362751,598.0,3,5,257.3,2.109
31.56,1,-0.041,0.006,-0.05,-0.026,0.032,-0.026,-1.561,0.037,2.969,30.25,83.2,40.505684,-3.362751,598.0,3,5,257.3,2.109
31.66,1,0.054,0.036,-0.02,-0.006,0.02,-0.038,-1.561,0.038,2.97,30.25,83.2,40.505684,-3.362751,598.0,3,5,257.3,2.109
31.76,1,0.027,0.129,0.026,0.048,0.074,0.005,-1.562,0.038,2.972,30.25,83.2,40.505684,-3.362751,598.0,3,5,257.3,2.109
31.87,1,-0.081,0.014,-0.02,-0.028,0.068,-0.007,-1.563,0.04,2.972,31.21,82.5,40.505634,-3.363009,599.3,3,5,255.6,2.461
31.96,1,0.002,0.015,0.022,-0.025,0.028,0.003,-1.564,0.041,2.973,31.21,82.5,40.505634,-3.363009,599.3,3,5,255.6,2.461
32.07,1,-0.034,0.07,-0.027,-0.026,0.038,-0.007,-1.563,0.041,2.974,31.21,82.5,40.505634,-3.363009,599.3,3,5,255.6,2.461
32.16,1,-0.041,0.104,0.05,-0.031,0.077,0.017,-1.563,0.041,2.974,31.21,82.5,40.505634,-3.363009,599.3,3,5,255.6,2.461
32.27,1,-0.006,0.044,0.01,-0.026,0.071,0.016,-1.563,0.041,2.974,31.21,82.5,40.505634,-3.363009,599.3,3,5,255.6,2.461
32.36,1,-0.024,0.051,0.008,-0.019,0.054,0.015,-1.563,0.042,2.975,31.21,82.5,40.505634,-3.363009,599.3,3,5,255.6,2.461
32.47,1,-0.007,0.033,-0.019,-0.02,0.039,-0.008,-1.563,0.042,2.976,31.21,82.5,40.505634,-3.363009,599.3,3,5,255.6,2.461
32.57,1,0.057,0.082,0.031,0.022,0.068,0.019,-1.561,0.042,2.976,31.21,82.5,40.505634,-3.363009,599.3,3,5,255.6,2.461
32.67,1,0.045,0.044,-0.018,0.037,0.046,-0.001,-1.56,0.042,2.977,31.21,82.5,40.505634,-3.363009,599.3,3,5,255.6,2.461
32.77,1,-0.023,0.136,0.013,0.013,0.091,-0.001,-1.56,0.043,2.977,31.21,82.5,40.505634,-3.363009,599.3,3,5,255.6,2.461
32.87,1,0.008,0.065,0.032,0.007,0.101,0.025,-1.562,0.044,2.978,32.21,81.1,40.505581,-3.363263,599.4,3,5,254.2,3.164
32.97,1,-0.058,-0.011,-0.01,-0.021,0.042,0.007,-1.562,0.045,2.98,32.21,81.1,40.505581,-3.363263,599.4,3,5,254.2,3.164
33.08,1,-0.015,-0.008,-0.018,-0.028,0.007,-0.006,-1.562,0.046,2.982,32.21,81.1,40.505581,-3.363263,599.4,3,5,254.2,3.164
33.17,1,-0.044,0.109,0.007,-0.026,0.033,-0.007,-1.561,0.046,2.982,32.21,81.1,40.505581,-3.363263,599.4,3,5,254.2,3.164
33.27,1,-0.025,0.034,-0.029,-0.034,0.068,-0.009,-1.561,0.046,2.984,32.21,81.1,40.505581,-3.363263,599.4,3,5,254.2,3.164
33.37,1,0.03,0.057,0.044,-0.014,0.052,0.002,-1.563,0.047,2.986,32.21,81.1,40.505581,-3.363263,599.4,3,5,254.2,3.164
33.47,1,0.02,0.049,0.033,0.021,0.05,0.031,-1.562,0.047,2.988,32.21,81.1,40.505581,-3.363263,599.4,3,5,254.2,3.164
33.57,1,-0.014,0.081,-0.009,0.005,0.068,0.017,-1.56,0.048,2.99,32.21,81.1,40.505581,-3.363263,599.4,3,5,254.2,3.164
33.67,1,-0.008,0.007,-0.026,-0.004,0.038,-0.011,-1.561,0.05,2.992,32.21,81.1,40.505581,-3.363263,599.4,3,5,254.2,3.164
33.78,1,-0.023,0.035,0.028,-0.008,0.026,0.005,-1.562,0.054,2.993,32.21,81.1,40.505581,-3.363263,599.4,3,5,254.2,3.164
33.87,1,-0.005,0.045,0.037,-0.025,0.046,0.016,-1.562,0.056,2.995,33.23,80.9,40.50552,-3.363513,599.2,3,5,252.8,2.812
33.97,1,-0.006,0.04,0.002,0.002,0.036,0.026,-1.57,0.045,2.996,33.23,80.9,40.50552,-3.363513,599.2,3,5,252.8,2.812
34.07,1,-0.003,0.052,-0.016,-0.01,0.048,-0.006,-1.58,0.041,2.999,33.23,80.9,40.50552,-3.363513,599.2,3,5,252.8,2.812
34.17,1,0.042,0.013,-0.008,0.022,0.034,-0.003,-1.583,0.04,3.001,33.23,80.9,40.50552,-3.363513,599.2,3,5,252.8,2.812
34.27,1,-0.035,0.026,-0.02,-0.011,0.031,-0.015,-1.579,0.034,3.004,33.23,80.9,40.50552,-3.363513,599.2,3,5,252.8,2.812
34.37,1,0.035,0.002,0.014,0.002,0.016,-0.004,-1.58,0.036,3.005,33.23,80.9,40.50552,-3.363513,599.2,3,5,252.8,2.812
34.48,1,-0.027,0.002,-0.024,0.006,0.001,-0.008,-1.579,0.037,3.007,33.23,80.9,40.50552,-3.363513,599.2,3,5,252.8,2.812
34.57,1,-0.03,-0.002,0.006,-0.029,0.009,-0.007,-1.581,0.041,3.008,33.23,80.9,40.50552,-3.363513,599.2,3,5,252.8,2.812
34.67,1,0.008,0.031,0.007,0.004,0.005,0.008,-1.579,0.043,3.01,33.23,80.9,40.50552,-3.363513,599.2,3,5,252.8,2.812
34.77,1,-0.041,0.072,-0.031,-0.026,0.041,-0.014,-1.579,0.043,3.011,33.23,80.9,40.50552,-3.363513,599.2,3,5,252.8,2.812
34.87,1,0.004,-0.004,0.014,-0.015,0.034,-0.004,-1.581,0.044,3.012,34.25,80.7,40.505455,-3.363767,600.2,3,5,251.7,2.461
34.97,1,-0.002,0.093,-0.003,-0.005,0.037,0.0,-1.58,0.044,3.013,34.25,80.7,40.505455,-3.363767,600.2,3,5,251.7,2.461
35.07,1,-0.046,0.076,-0.04,-0.023,0.086,-0.017,-1.58,0.043,3.014,34.25,80.7,40.505455,-3.363767,600.2,3,5,251.7,2.461
35.17,1,0.026,0.0,0.016,-0.008,0.039,-0.007,-1.581,0.041,3.015,34.25,80.7,40.505455,-3.363767,600.2,3,5,251.7,2.461
35.27,1,0.077,0.061,-0.002,0.04,0.032,-0.001,-1.579,0.039,3.015,34.25,80.7,40.505455,-3.363767,600.2,3,5,251.7,2.461
35.37,1,-0.04,0.146,-0.017,-0.001,0.094,-0.013,-1.578,0.038,3.015,34.25,80.7,40.505455,-3.363767,600.2,3,5,251.7,2.461
35.47,1,-0.023,0.076,-0.005,-0.004,0.097,-0.006,-1.579,0.039,3.015,34.25,80.7,40.505455,-3.363767,600.2,3,5,251.7,2.461
35.58,1,-0.035,0.06,0.026,-0.018,0.075,0.005,-1.581,0.04,3.016,34.25,80.7,40.505455,-3.363767,600.2,3,5,251.7,2.461
35.69,1,0.001,0.116,0.029,-0.021,0.087,0.022,-1.582,0.042,3.016,34.25,80.7,40.505455,-3.363767,600.2,3,5,251.7,2.461
35.79,1,-0.016,0.077,0.022,-0.009,0.093,0.024,-1.581,0.042,3.016,34.25,80.7,40.505455,-3.363767,600.2,3,5,251.7,2.461
35.88,1,0.005,0.038,-0.012,-0.008,0.073,0.014,-1.58,0.042,3.017,35.23,81.0,40.50539,-3.364013,600.0,3,5,250.3,2.461
35.98,1,0.036,0.068,0.007,0.019,0.047,0.001,-1.579,0.042,3.018,35.23,81.0,40.50539,-3.364013,600.0,3,5,250.3,2.461
36.08,1,-0.006,0.093,0.004,0.003,0.074,-0.0,-1.58,0.042,3.018,35.23,81.0,40.50539,-3.364013,600.0,3,5,250.3,2.461
36.18,1,-0.007,0.121,0.055,0.002,0.103,0.026,-1.58,0.043,3.018,35.23,81.0,40.50539,-3.364013,600.0,3,5,250.3,2.461
36.38,1,0.004,0.002,-0.007,-0.026,0.035,-0.006,-1.58,0.045,3.018,35.23,81.0,40.50539,-3.364013,600.0,3,5,250.3,2.461
36.48,1,0.048,0.112,0.042,0.022,0.049,0.014,-1.581,0.045,3.018,35.23,81.0,40.50539,-3.364013,600.0,3,5,250.3,2.461
36.58,1,0.003,0.112,0.028,0.019,0.098,0.025,-1.58,0.044,3.018,35.23,81.0,40.50539,-3.364013,600.0,3,5,250.3,2.461
36.69,1,0.021,0.103,0.001,0.023,0.108,0.024,-1.578,0.044,3.018,35.23,81.0,40.50539,-3.364013,600.0,3,5,250.3,2.461
36.78,1,-0.028,0.012,-0.023,-0.006,0.054,-0.009,-1.578,0.045,3.018,35.23,81.0,40.50539,-3.364013,600.0,3,5,250.3,2.461
36.89,1,-0.022,0.038,-0.01,-0.013,0.047,-0.006,-1.58,0.045,3.018,35.23,81.0,40.50539,-3.364013,600.0,3,5,250.3,2.461
36.99,1,0.008,0.117,0.034,-0.017,0.062,0.003,-1.581,0.047,3.018,36.24,81.3,40.505318,-3.364259,600.7,3,5,248.9,2.812
37.08,1,-0.029,0.017,0.007,-0.004,0.07,0.02,-1.58,0.047,3.018,36.24,81.3,40.505318,-3.364259,600.7,3,5,248.9,2.812
37.18,1,-0.009,-0.025,-0.025,-0.018,0.017,-0.001,-1.579,0.046,3.019,36.24,81.3,40.505318,-3.364259,600.7,3,5,248.9,2.812
37.28,1,0.019,0.095,0.007,-0.0,0.028,-0.007,-1.578,0.046,3.02,36.24,81.3,40.505318,-3.364259,600.7,3,5,248.9,2.812
37.38,1,-0.034,0.093,0.0,-0.01,0.079,-0.004,-1.579,0.047,3.022,36.24,81.3,40.505318,-3.364259,600.7,3,5,248.9,2.812
37.49,1,0.017,0.022,0.034,-0.001,0.064,0.018,-1.579,0.047,3.024,36.24,81.3,40.505318,-3.364259,600.7,3,5,248.9,2.812
37.58,1,-0.035,-0.014,-0.046,-0.011,0.013,-0.001,-1.577,0.047,3.026,36.24,81.3,40.505318,-3.364259,600.7,3,5,248.9,2.812
37.68,1,0.001,0.01,-0.028,-0.017,0.002,-0.032,-1.577,0.047,3.028,36.24,81.3,40.505318,-3.364259,600.7,3,5,248.9,2.812
37.78,1,-0.031,0.016,-0.028,-0.015,0.008,-0.027,-1.579,0.048,3.029,36.24,81.3,40.505318,-3.364259,600.7,3,5,248.9,2.812
37.89,1,0.013,0.053,0.025,-0.007,0.037,-0.004,-1.579,0.049,3.03,36.24,81.3,40.505318,-3.364259,600.7,3,5,248.9,2.812
37.98,1,-0.002,-0.032,-0.017,-0.003,0.018,0.002,-1.578,0.05,3.031,37.25,81.8,40.505241,-3.364505,601.5,3,5,247.9,2.461
38.09,1,0.041,0.019,0.006,0.017,0.001,-0.005,-1.577,0.05,3.033,37.25,81.8,40.505241,-3.364505,601.5,3,5,247.9,2.461
38.19,1,0.004,0.06,-0.003,0.018,0.026,-0.003,-1.576,0.05,3.035,37.25,81.8,40.505241,-3.364505,601.5,3,5,247.9,2.461
38.28,1,-0.023,0.024,-0.007,0.002,0.032,-0.009,-1.577,0.049,3.036,37.25,81.8,40.505241,-3.364505,601.5,3,5,247.9,2.461
38.39,1,-0.039,0.041,-0.003,-0.029,0.039,-0.006,-1.585,0.04,3.038,37.25,81.8,40.505241,-3.364505,601.5,3,5,247.9,2.461
38.49,1,-0.026,0.028,0.008,-0.024,0.034,0.008,-1.596,0.025,3.04,37.25,81.8,40.505241,-3.364505,601.5,3,5,247.9,2.461
38.59,1,-0.036,-0.001,-0.023,-0.03,0.015,-0.006,-1.596,0.026,3.041,37.25,81.8,40.505241,-3.364505,601.5,3,5,247.9,2.461
38.7,1,0.017,-0.012,0.025,-0.023,0.004,-0.001,-1.592,0.023,3.042,37.25,81.8,40.505241,-3.364505,601.5,3,5,247.9,2.461
38.79,1,0.037,0.015,0.001,0.023,0.003,0.012,-1.589,0.007,3.043,37.25,81.8,40.505241,-3.364505,601.5,3,5,247.9,2.461
38.89,1,-0.018,0.025,-0.019,0.002,0.01,-0.011,-1.587,0.007,3.045,37.25,81.8,40.505241,-3.364505,601.5,3,5,247.9,2.461
38.99,1,0.078,0.015,0.013,0.029,0.023,-0.002,-1.588,0.008,3.046,38.21,82.5,40.505157,-3.364747,601.3,3,5,246.8,2.109
39.09,1,-0.006,0.054,0.007,0.026,0.033,0.006,-1.589,0.008,3.046,38.21,82.5,40.505157,-3.364747,601.3,3,5,246.8,2.109
39.19,1,-0.013,-0.008,0.004,0.002,0.023,0.007,-1.59,0.008,3.046,38.21,82.5,40.505157,-3.364747,601.3,3,5,246.8,2.109
39.3,1,-0.007,-0.013,0.01,-0.002,-0.012,0.005,-1.59,0.006,3.047,38.21,82.5,40.505157,-3.364747,601.3,3,5,246.8,2.109
39.4,1,-0.048,-0.02,-0.029,-0.022,-0.002,-0.002,-1.589,0.003,3.048,38.21,82.5,40.505157,-3.364747,601.3,3,5,246.8,2.109
39.49,1,0.01,0.015,0.029,-0.019,-0.013,-0.002,-1.59,0.002,3.048,38.21,82.5,40.505157,-3.364747,601.3,3,5,246.8,2.109
39.59,1,0.019,0.046,0.004,0.004,0.031,0.009,-1.588,0.002,3.048,38.21,82.5,40.505157,-3.364747,601.3,3,5,246.8,2.109
39.69,1,-0.01,-0.014,-0.014,0.014,0.014,0.006,-1.588,0.002,3.049,38.21,82.5,40.505157,-3.364747,601.3,3,5,246.8,2.109
39.79,1,-0.047,-0.043,-0.045,-0.03,-0.011,-0.029,-1.588,0.003,3.05,38.21,82.5,40.505157,-3.364747,601.3,3,5,246.8,2.109
39.9,1,-0.018,-0.026,-0.005,-0.02,-0.029,-0.014,-1.589,0.003,3.05,38.21,82.5,40.505157,-3.364747,601.3,3,5,246.8,2.109
39.99,1,-0.028,-0.013,-0.02,-0.03,-0.028,-0.023,-1.589,0.004,3.052,39.21,83.2,40.50507,-3.364991,601.5,3,5,245.0,2.812
40.09,1,0.038,0.014,0.024,0.002,-0.002,0.001,-1.589,0.004,3.053,39.21,83.2,40.50507,-3.364991,601.5,3,5,245.0,2.812
40.19,1,0.008,0.062,-0.027,0.015,0.028,-0.003,-1.587,0.005,3.055,39.21,83.2,40.50507,-3.364991,601.5,3,5,245.0,2.812
40.3,1,-0.04,-0.077,-0.016,-0.019,-0.011,-0.02,-1.588,0.006,3.058,39.21,83.2,40.50507,-3.364991,601.5,3,5,245.0,2.812
40.4,1,-0.028,-0.049,-0.032,-0.01,-0.044,-0.019,-1.589,0.007,3.06,39.21,83.2,40.50507,-3.364991,601.5,3,5,245.0,2.812
40.51,1,0.045,0.023,0.043,-0.007,-0.008,0.001,-1.589,0.007,3.062,39.21,83.2,40.50507,-3.364991,601.5,3,5,245.0,2.812
40.6,1,-0.026,0.009,-0.049,0.005,-0.006,-0.005,-1.587,0.006,3.064,39.21,83.2,40.50507,-3.364991,601.5,3,5,245.0,2.812
40.69,1,0.036,0.03,0.019,0.013,0.022,-0.014,-1.588,0.005,3.066,39.21,83.2,40.50507,-3.364991,601.5,3,5,245.0,2.812
40.79,1,-0.026,0.034,0.033,0.001,0.032,0.02,-1.589,0.005,3.068,39.21,83.2,40.50507,-3.364991,601.5,3,5,245.0,2.812
40.89,1,-0.035,0.023,0.037,-0.024,0.018,0.028,-1.589,0.006,3.07,39.21,83.2,40.50507,-3.364991,601.5,3,5,245.0,2.812
40.99,1,-0.02,-0.075,0.026,-0.03,-0.008,0.027,-1.589,0.007,3.073,40.22,84.1,40.504974,-3.365235,602.0,3,5,243.6,3.164
41.1,1,-0.028,-0.077,-0.007,-0.011,-0.055,0.021,-1.588,0.008,3.075,40.22,84.1,40.504974,-3.365235,602.0,3,5,243.6,3.164
41.19,1,-0.002,-0.071,-0.011,-0.023,-0.07,-0.007,-1.587,0.008,3.078,40.22,84.1,40.504974,-3.365235,602.0,3,5,243.6,3.164
41.29,1,0.083,-0.039,0.076,0.026,-0.052,0.03,-1.587,0.009,3.08,40.22,84.1,40.504974,-3.365235,602.0,3,5,243.6,3.164
41.4,1,-0.009,-0.061,-0.032,0.032,-0.061,0.02,-1.585,0.011,3.082,40.22,84.1,40.504974,-3.365235,602.0,3,5,243.6,3.164
41.5,1,0.014,-0.068,0.003,0.003,-0.067,-0.011,-1.586,0.014,3.085,40.22,84.1,40.504974,-3.365235,602.0,3,5,243.6,3.164
41.6,1,0.004,0.037,0.059,0.026,-0.021,0.033,-1.587,0.016,3.088,40.22,84.1,40.504974,-3.365235,602.0,3,5,243.6,3.164
41.7,1,-0.045,-0.028,0.036,-0.024,-0.003,0.034,-1.586,0.019,3.09,40.22,84.1,40.504974,-3.365235,602.0,3,5,243.6,3.164
41.8,1,0.025,-0.032,0.061,-0.0,-0.019,0.05,-1.586,0.022,3.092,40.22,84.1,40.504974,-3.365235,602.0,3,5,243.6,3.164
41.9,1,-0.09,-0.004,0.003,-0.031,-0.019,0.027,-1.585,0.024,3.095,40.22,84.1,40.504974,-3.365235,602.0,3,5,243.6,3.164
42.0,1,-0.068,-0.047,0.034,-0.069,-0.03,0.02,-1.587,0.026,3.097,41.2,85.4,40.504879,-3.365465,601.7,3,5,241.2,3.867
42.1,1,-0.054,-0.026,0.035,-0.056,-0.034,0.032,-1.588,0.028,3.1,41.2,85.4,40.504879,-3.365465,601.7,3,5,241.2,3.867
42.2,1,-0.015,-0.015,0.024,-0.046,-0.021,0.037,-1.587,0.03,3.101,41.2,85.4,40.504879,-3.365465,601.7,3,5,241.2,3.867
42.31,1,-0.032,0.006,0.022,-0.03,-0.006,0.03,-1.585,0.031,3.103,41.2,85.4,40.504879,-3.365465,601.7,3,5,241.2,3.867
42.4,1,-0.05,-0.026,0.006,-0.038,-0.014,0.015,-1.585,0.033,3.105,41.2,85.4,40.504879,-3.365465,601.7,3,5,241.2,3.867
42.5,1,0.001,-0.007,0.028,-0.029,-0.013,0.015,-1.586,0.034,3.107,41.2,85.4,40.504879,-3.365465,601.7,3,5,241.2,3.867
42.6,1,0.04,-0.018,0.016,0.008,-0.014,0.025,-1.586,0.035,3.108,41.2,85.4,40.504879,-3.365465,601.7,3,5,241.2,3.867
42.7,1,0.016,-0.043,-0.024,0.024,-0.032,0.004,-1.585,0.037,3.11,41.2,85.4,40.504879,-3.365465,601.7,3,5,241.2,3.867
42.8,1,-0.016,-0.051,-0.002,-0.005,-0.031,-0.008,-1.586,0.039,3.11,41.2,85.4,40.504879,-3.365465,601.7,3,5,241.2,3.867
42.9,1,0.026,-0.04,0.038,0.004,-0.051,0.009,-1.588,0.039,3.109,41.2,85.4,40.504879,-3.365465,601.7,3,5,241.2,3.867
43.0,1,0.081,0.068,0.035,0.047,0.004,0.035,-1.587,0.04,3.107,42.22,86.5,40.504772,-3.36571,601.9,3,5,239.1,4.57
43.1,1,0.039,0.075,0.012,0.063,0.051,0.027,-1.585,0.041,3.105,42.22,86.5,40.504772,-3.36571,601.9,3,5,239.1,4.57
43.2,1,0.07,0.117,0.07,0.05,0.078,0.031,-1.584,0.042,3.102,42.22,86.5,40.504772,-3.36571,601.9,3,5,239.1,4.57
43.31,1,-0.036,0.125,-0.019,0.021,0.111,0.023,-1.584,0.043,3.1,42.22,86.5,40.504772,-3.36571,601.9,3,5,239.1,4.57
43.4,1,-0.021,0.111,0.059,-0.002,0.102,0.024,-1.585,0.046,3.097,42.22,86.5,40.504772,-3.36571,601.9,3,5,239.1,4.57
43.5,1,-0.032,0.116,0.029,-0.021,0.114,0.036,-1.585,0.048,3.094,42.22,86.5,40.504772,-3.36571,601.9,3,5,239.1,4.57
43.6,1,-0.036,0.131,0.025,-0.023,0.121,0.03,-1.584,0.049,3.091,42.22,86.5,40.504772,-3.36571,601.9,3,5,239.1,4.57
43.7,1,-0.044,0.086,0.005,-0.041,0.115,0.015,-1.594,0.027,3.087,42.22,86.5,40.504772,-3.36571,601.9,3,5,239.1,4.57
43.8,1,-0.001,0.026,0.008,-0.028,0.073,0.014,-1.611,0.006,3.084,42.22,86.5,40.504772,-3.36571,601.9,3,5,239.1,4.57
43.9,1,-0.055,0.037,-0.084,-0.039,0.044,-0.029,-1.621,-0.003,3.084,42.22,86.5,40.504772,-3.36571,601.9,3,5,239.1,4.57
44.0,1,0.011,0.014,0.016,-0.019,0.027,-0.025,-1.624,-0.004,3.081,43.22,89.3,40.504658,-3.365957,602.3,3,5,236.6,4.57
44.1,1,-0.021,-0.002,-0.028,-0.008,0.017,-0.012,-1.628,-0.006,3.079,43.22,89.3,40.504658,-3.365957,602.3,3,5,236.6,4.57
44.21,1,-0.031,-0.002,-0.042,-0.016,0.003,-0.025,-1.626,-0.003,3.077,43.22,89.3,40.504658,-3.365957,602.3,3,5,236.6,4.57
44.31,1,0.009,0.006,-0.042,-0.021,0.001,-0.048,-1.623,-0.004,3.075,43.22,89.3,40.504658,-3.365957,602.3,3,5,236.6,4.57
44.41,1,0.005,-0.027,-0.005,0.008,-0.014,-0.017,-1.62,0.001,3.073,43.22,89.3,40.504658,-3.365957,602.3,3,5,236.6,4.57
44.51,1,0.042,0.018,0.03,0.013,0.003,0.001,-1.614,0.004,3.073,43.22,89.3,40.504658,-3.365957,602.3,3,5,236.6,4.57
44.61,1,0.081,-0.004,-0.006,0.044,0.009,0.006,-1.611,0.007,3.072,43.22,89.3,40.504658,-3.365957,602.3,3,5,236.6,4.57
44.71,1,-0.046,-0.014,-0.056,0.034,-0.015,-0.022,-1.608,0.017,3.072,43.22,89.3,40.504658,-3.365957,602.3,3,5,236.6,4.57
44.81,1,-0.016,-0.027,-0.012,-0.036,-0.007,-0.037,-1.611,0.021,3.071,43.22,89.3,40.504658,-3.365957,602.3,3,5,236.6,4.57
44.91,1,0.023,-0.022,-0.008,0.004,-0.022,0.001,-1.61,0.021,3.069,43.22,89.3,40.504658,-3.365957,602.3,3,5,236.6,4.57
45.01,1,-0.035,0.003,-0.06,0.006,-0.015,-0.031,-1.606,0.019,3.067,44.22,91.9,40.504539,-3.366194,602.2,3,5,236.6,2.461
45.12,1,-0.031,0.033,-0.008,-0.028,0.013,-0.035,-1.607,0.021,3.064,44.22,91.9,40.504539,-3.366194,602.2,3,5,236.6,2.461
45.21,1,-0.088,0.044,-0.06,-0.048,0.027,-0.038,-1.607,0.024,3.063,44.22,91.9,40.504539,-3.366194,602.2,3,5,236.6,2.461
45.31,1,0.042,0.005,-0.009,-0.025,0.026,-0.031,-1.607,0.026,3.062,44.22,91.9,40.504539,-3.366194,602.2,3,5,236.6,2.461
45.41,1,0.059,-0.018,-0.033,0.024,0.001,-0.03,-1.605,0.026,3.06,44.22,91.9,40.504539,-3.366194,602.2,3,5,236.6,2.461
45.51,1,-0.097,0.042,-0.018,-0.026,0.013,-0.029,-1.603,0.024,3.057,44.22,91.9,40.504539,-3.366194,602.2,3,5,236.6,2.461
45.61,1,-0.074,0.015,-0.03,-0.055,0.021,-0.018,-1.607,0.023,3.055,44.22,91.9,40.504539,-3.366194,602.2,3,5,236.6,2.461
45.71,1,0.018,0.016,-0.041,-0.03,0.014,-0.019,-1.611,0.02,3.054,44.22,91.9,40.504539,-3.366194,602.2,3,5,236.6,2.461
45.82,1,-0.063,0.057,-0.066,-0.022,0.032,-0.058,-1.604,0.026,3.052,44.22,91.9,40.504539,-3.366194,602.2,3,5,236.6,2.461
45.91,1,0.081,-0.01,0.017,0.012,0.022,-0.022,-1.611,0.032,3.05,44.22,91.9,40.504539,-3.366194,602.2,3,5,236.6,2.461
46.01,1,-0.06,-0.027,-0.064,-0.005,0.001,-0.038,-1.612,0.035,3.049,45.21,93.7,40.50441,-3.366449,602.5,3,5,236.2,0.352
46.11,1,-0.001,0.018,-0.009,-0.011,-0.005,-0.018,-1.613,0.043,3.047,45.21,93.7,40.50441,-3.366449,602.5,3,5,236.2,0.352
46.21,1,-0.012,0.038,-0.07,-0.017,0.015,-0.056,-1.613,0.045,3.045,45.21,93.7,40.50441,-3.366449,602.5,3,5,236.2,0.352
46.31,1,-0.014,0.057,-0.056,-0.012,0.048,-0.05,-1.612,0.046,3.043,45.21,93.7,40.50441,-3.366449,602.5,3,5,236.2,0.352
46.41,1,-0.021,0.048,-0.017,-0.018,0.039,-0.045,-1.614,0.049,3.041,45.21,93.7,40.50441,-3.366449,602.5,3,5,236.2,0.352
46.51,1,0.004,-0.007,-0.069,-0.014,0.03,-0.048,-1.608,0.049,3.039,45.21,93.7,40.50441,-3.366449,602.5,3,5,236.2,0.352
46.62,1,-0.05,0.019,-0.03,-0.009,0.009,-0.036,-1.61,0.048,3.038,45.21,93.7,40.50441,-3.366449,602.5,3,5,236.2,0.352
46.71,1,-0.006,0.018,-0.024,-0.027,0.013,-0.034,-1.609,0.05,3.036,45.21,93.7,40.50441,-3.366449,602.5,3,5,236.2,0.352
46.82,1,-0.029,0.04,-0.034,-0.016,0.032,-0.022,-1.603,0.046,3.033,45.21,93.7,40.50441,-3.366449,602.5,3,5,236.2,0.352
46.92,1,-0.073,0.04,-0.075,-0.062,0.05,-0.061,-1.599,0.047,3.031,45.21,93.7,40.50441,-3.366449,602.5,3,5,236.2,0.352
47.01,1,0.073,-0.042,-0.031,0.001,-0.0,-0.044,-1.6,0.047,3.03,46.23,94.9,40.504288,-3.366713,602.5,4,5,237.0,0.703
47.13,1,0.028,0.02,-0.02,0.02,-0.003,-0.037,-1.599,0.046,3.027,46.23,94.9,40.504288,-3.366713,602.5,4,5,237.0,0.703
47.22,1,0.014,-0.038,-0.073,0.019,-0.003,-0.046,-1.598,0.045,3.024,46.23,94.9,40.504288,-3.366713,602.5,4,5,237.0,0.703
47.32,1,0.004,-0.029,-0.005,0.021,-0.026,-0.03,-1.598,0.044,3.023,46.23,94.9,40.504288,-3.366713,602.5,4,5,237.0,0.703
47.42,1,-0.013,0.02,-0.066,-0.003,-0.013,-0.048,-1.599,0.044,3.021,46.23,94.9,40.504288,-3.366713,602.5,4,5,237.0,0.703
47.52,1,-0.013,0.03,-0.018,-0.004,0.015,-0.034,-1.598,0.045,3.02,46.23,94.9,40.504288,-3.366713,602.5,4,5,237.0,0.703
47.62,1,0.004,-0.007,-0.036,-0.013,0.015,-0.03,-1.591,0.046,3.018,46.23,94.9,40.504288,-3.366713,602.5,4,5,237.0,0.703
47.72,1,0.071,-0.034,-0.011,0.022,-0.012,-0.033,-1.586,0.041,3.015,46.23,94.9,40.504288,-3.366713,602.5,4,5,237.0,0.703
47.82,1,-0.007,0.015,-0.03,0.041,-0.02,-0.017,-1.585,0.036,3.014,46.23,94.9,40.504288,-3.366713,602.5,4,5,237.0,0.703
47.92,1,0.006,0.019,-0.032,0.011,0.016,-0.031,-1.579,0.034,3.012,46.23,94.9,40.504288,-3.366713,602.5,4,5,237.0,0.703
48.02,1,-0.086,-0.007,-0.033,-0.022,-0.0,-0.028,-1.58,0.026,3.01,47.21,95.5,40.504158,-3.366975,602.4,4,5,237.3,1.055
48.12,1,0.048,0.012,-0.033,-0.011,-0.001,-0.027,-1.58,0.026,3.008,47.21,95.5,40.504158,-3.366975,602.4,4,5,237.3,1.055
48.22,1,0.031,-0.0,-0.0,0.013,0.01,-0.03,-1.582,0.023,3.006,47.21,95.5,40.504158,-3.366975,602.4,4,5,237.3,1.055
48.33,1,-0.027,0.01,0.018,0.002,0.003,0.003,-1.579,0.026,3.004,47.21,95.5,40.504158,-3.366975,602.4,4,5,237.3,1.055
48.42,1,-0.114,0.038,-0.071,-0.049,0.016,-0.019,-1.579,0.033,3.003,47.21,95.5,40.504158,-3.366975,602.4,4,5,237.3,1.055
48.52,1,0.147,-0.059,-0.025,0.013,-0.005,-0.042,-1.579,0.034,3.002,47.21,95.5,40.504158,-3.366975,602.4,4,5,237.3,1.055
48.62,1,0.152,-0.086,0.038,0.106,-0.047,-0.0,-1.579,0.034,2.999,47.21,95.5,40.504158,-3.366975,602.4,4,5,237.3,1.055
48.72,1,0.064,0.028,-0.03,0.061,-0.022,-0.009,-1.577,0.033,2.997,47.21,95.5,40.504158,-3.366975,602.4,4,5,237.3,1.055
48.82,1,0.112,0.008,0.019,0.111,-0.005,-0.004,-1.576,0.032,2.995,47.21,95.5,40.504158,-3.366975,602.4,4,5,237.3,1.055
48.92,1,-0.066,0.046,-0.046,0.037,0.022,-0.009,-1.574,0.031,2.993,47.21,95.5,40.504158,-3.366975,602.4,4,5,237.3,1.055
49.02,1,0.014,0.005,-0.018,0.003,0.019,-0.025,-1.57,0.03,2.991,48.25,95.7,40.504025,-3.367236,602.0,4,5,237.3,0.352
49.12,1,0.116,-0.034,-0.007,0.059,-0.007,-0.021,-1.569,0.029,2.989,48.25,95.7,40.504025,-3.367236,602.0,4,5,237.3,0.352
49.22,1,0.004,-0.021,0.008,0.071,-0.021,-0.001,-1.571,0.029,2.987,48.25,95.7,40.504025,-3.367236,602.0,4,5,237.3,0.352
49.33,1,-0.091,0.07,-0.012,-0.035,0.019,-0.005,-1.571,0.029,2.984,48.25,95.7,40.504025,-3.367236,602.0,4,5,237.3,0.352
49.42,1,-0.01,0.011,-0.006,-0.017,0.022,-0.002,-1.57,0.029,2.982,48.25,95.7,40.504025,-3.367236,602.0,4,5,237.3,0.352
49.53,1,-0.126,0.101,-0.04,-0.068,0.055,-0.015,-1.568,0.028,2.981,48.25,95.7,40.504025,-3.367236,602.0,4,5,237.3,0.352
49.62,1,-0.062,0.053,-0.01,-0.102,0.071,-0.035,-1.57,0.029,2.979,48.25,95.7,40.504025,-3.367236,602.0,4,5,237.3,0.352
49.72,1,0.061,-0.025,-0.005,-0.008,0.025,0.003,-1.568,0.029,2.976,48.25,95.7,40.504025,-3.367236,602.0,4,5,237.3,0.352
49.82,1,0.029,-0.018,0.007,0.016,-0.005,-0.013,-1.566,0.029,2.975,48.25,95.7,40.504025,-3.367236,602.0,4,5,237.3,0.352
49.92,1,-0.129,0.074,-0.063,-0.053,0.033,-0.024,-1.566,0.03,2.974,48.25,95.7,40.504025,-3.367236,602.0,4,5,237.3,0.352
50.04,1,0.086,-0.032,0.03,-0.0,0.011,-0.016,-1.569,0.031,2.972,49.21,96.9,40.503883,-3.367504,603.3,3,5,237.3,0.0
50.12,1,-0.068,-0.0,-0.009,-0.002,-0.012,0.003,-1.568,0.03,2.969,49.21,96.9,40.503883,-3.367504,603.3,3,5,237.3,0.0
50.23,1,-0.101,0.017,-0.032,-0.058,0.006,-0.011,-1.566,0.029,2.967,49.21,96.9,40.503883,-3.367504,603.3,3,5,237.3,0.0
50.33,1,-0.075,0.072,-0.049,-0.081,0.039,-0.038,-1.562,0.03,2.965,49.21,96.9,40.503883,-3.367504,603.3,3,5,237.3,0.0
50.43,1,-0.004,0.051,0.026,-0.046,0.042,-0.016,-1.563,0.034,2.964,49.21,96.9,40.503883,-3.367504,603.3,3,5,237.3,0.0
50.53,1,0.046,-0.016,0.003,0.004,0.028,0.012,-1.562,0.033,2.961,49.21,96.9,40.503883,-3.367504,603.3,3,5,237.3,0.0
50.63,1,-0.048,0.009,-0.015,-0.007,0.008,-0.005,-1.561,0.033,2.961,49.21,96.9,40.503883,-3.367504,603.3,3,5,237.3,0.0
50.74,1,-0.048,-0.034,-0.019,-0.043,-0.0,-0.013,-1.561,0.035,2.961,49.21,96.9,40.503883,-3.367504,603.3,3,5,237.3,0.0
50.84,1,-0.037,-0.033,0.004,-0.03,-0.029,-0.008,-1.559,0.036,2.96,49.21,96.9,40.503883,-3.367504,603.3,3,5,237.3,0.0
50.93,1,-0.007,-0.036,-0.0,-0.035,-0.028,-0.004,-1.56,0.037,2.959,49.21,96.9,40.503883,-3.367504,603.3,3,5,237.3,0.0
51.03,1,0.087,-0.01,0.026,0.012,-0.025,0.01,-1.563,0.032,2.958,50.21,97.2,40.50375,-3.367781,600.7,3,5,237.7,0.352
51.13,1,0.027,-0.033,-0.018,0.045,-0.028,0.004,-1.56,0.03,2.957,50.21,97.2,40.50375,-3.367781,600.7,3,5,237.7,0.352
51.24,1,0.109,-0.073,0.009,0.084,-0.042,0.015,-1.554,0.027,2.958,50.21,97.2,40.50375,-3.367781,600.7,3,5,237.7,0.352
51.33,1,-0.069,-0.058,-0.109,0.024,-0.058,-0.053,-1.551,0.026,2.958,50.21,97.2,40.50375,-3.367781,600.7,3,5,237.7,0.352
51.43,1,0.059,-0.09,0.024,0.012,-0.072,-0.035,-1.555,0.026,2.958,50.21,97.2,40.50375,-3.367781,600.7,3,5,237.7,0.352
51.53,1,-0.087,-0.06,0.002,-0.02,-0.069,-0.008,-1.558,0.027,2.958,50.21,97.2,40.50375,-3.367781,600.7,3,5,237.7,0.352
51.63,1,-0.055,-0.023,-0.007,-0.064,-0.047,0.006,-1.557,0.027,2.957,50.21,97.2,40.50375,-3.367781,600.7,3,5,237.7,0.352
51.74,1,-0.178,0.007,-0.081,-0.105,-0.021,-0.045,-1.556,0.025,2.957,50.21,97.2,40.50375,-3.367781,600.7,3,5,237.7,0.352
51.83,1,-0.036,0.005,-0.02,-0.088,-0.003,-0.039,-1.556,0.027,2.957,50.21,97.2,40.50375,-3.367781,600.7,3,5,237.7,0.352
51.93,1,0.038,-0.041,0.002,-0.003,-0.022,-0.014,-1.556,0.027,2.956,50.21,97.2,40.50375,-3.367781,600.7,3,5,237.7,0.352
52.03,1,-0.099,-0.006,-0.018,-0.027,-0.025,-0.016,-1.557,0.028,2.955,51.26,97.2,40.50362,-3.36805,600.5,4,5,237.7,0.352
52.13,1,-0.032,-0.024,-0.013,-0.072,-0.012,-0.014,-1.558,0.027,2.954,51.26,97.2,40.50362,-3.36805,600.5,4,5,237.7,0.352
52.23,1,0.081,-0.062,0.013,-0.001,-0.036,-0.007,-1.558,0.026,2.952,51.26,97.2,40.50362,-3.36805,600.5,4,5,237.7,0.352
52.33,1,0.007,-0.02,0.01,0.047,-0.044,0.011,-1.558,0.025,2.951,51.26,97.2,40.50362,-3.36805,600.5,4,5,237.7,0.352
52.43,1,-0.11,0.005,-0.019,-0.043,-0.01,-0.001,-1.557,0.026,2.95,51.26,97.2,40.50362,-3.36805,600.5,4,5,237.7,0.352
52.53,1,0.009,0.011,-0.028,-0.042,-0.001,-0.016,-1.557,0.028,2.95,51.26,97.2,40.50362,-3.36805,600.5,4,5,237.7,0.352
52.63,1,0.012,-0.027,0.001,-0.017,-0.001,-0.024,-1.559,0.033,2.949,51.26,97.2,40.50362,-3.36805,600.5,4,5,237.7,0.352
52.73,1,-0.111,0.034,-0.006,-0.04,0.006,-0.003,-1.562,0.036,2.947,51.26,97.2,40.50362,-3.36805,600.5,4,5,237.7,0.352
52.83,1,-0.063,0.017,-0.011,-0.063,0.009,-0.004,-1.557,0.038,2.946,51.26,97.2,40.50362,-3.36805,600.5,4,5,237.7,0.352
52.93,1,0.008,-0.01,-0.005,-0.034,0.004,-0.014,-1.555,0.04,2.944,51.26,97.2,40.50362,-3.36805,600.5,4,5,237.7,0.352
53.04,1,0.028,-0.012,0.015,0.008,-0.009,0.01,-1.555,0.039,2.941,52.21,98.4,40.50349,-3.368336,600.0,4,5,237.7,0.0
53.15,1,-0.068,0.048,0.002,-0.03,0.022,-0.001,-1.553,0.035,2.939,52.21,98.4,40.50349,-3.368336,600.0,4,5,237.7,0.0
53.25,1,-0.064,0.055,-0.027,-0.059,0.046,-0.008,-1.557,0.039,2.937,52.21,98.4,40.50349,-3.368336,600.0,4,5,237.7,0.0
53.34,1,-0.004,0.021,0.012,-0.028,0.034,-0.002,-1.56,0.038,2.935,52.21,98.4,40.50349,-3.368336,600.0,4,5,237.7,0.0
53.44,1,0.018,0.024,-0.008,-0.004,0.024,-0.007,-1.569,0.037,2.933,52.21,98.4,40.50349,-3.368336,600.0,4,5,237.7,0.0
53.54,1,-0.043,0.071,0.01,-0.006,0.035,0.005,-1.571,0.04,2.931,52.21,98.4,40.50349,-3.368336,600.0,4,5,237.7,0.0
53.64,1,-0.054,0.005,-0.043,-0.041,0.042,-0.014,-1.57,0.04,2.93,52.21,98.4,40.50349,-3.368336,600.0,4,5,237.7,0.0
53.74,1,0.005,-0.049,-0.027,-0.026,-0.007,-0.027,-1.571,0.039,2.929,52.21,98.4,40.50349,-3.368336,600.0,4,5,237.7,0.0
53.84,1,-0.02,0.035,0.002,-0.014,-0.003,-0.013,-1.572,0.038,2.927,52.21,98.4,40.50349,-3.368336,600.0,4,5,237.7,0.0
53.94,1,-0.039,0.037,-0.014,-0.038,0.032,-0.013,-1.572,0.038,2.925,52.21,98.4,40.50349,-3.368336,600.0,4,5,237.7,0.0
54.04,1,-0.018,0.021,-0.011,-0.013,0.024,-0.007,-1.569,0.036,2.923,53.22,98.4,40.503372,-3.368597,600.2,4,5,237.0,0.703
54.14,1,0.027,0.013,-0.007,-0.011,0.024,-0.014,-1.564,0.028,2.921,53.22,98.4,40.503372,-3.368597,600.2,4,5,237.0,0.703
54.24,1,0.039,-0.026,0.022,0.024,-0.003,0.002,-1.564,0.023,2.92,53.22,98.4,40.503372,-3.368597,600.2,4,5,237.0,0.703
54.34,1,-0.033,0.003,-0.043,0.015,-0.011,-0.003,-1.563,0.023,2.917,53.22,98.4,40.503372,-3.368597,600.2,4,5,237.0,0.703
54.44,1,-0.029,0.03,-0.028,-0.019,0.013,-0.029,-1.563,0.022,2.916,53.22,98.4,40.503372,-3.368597,600.2,4,5,237.0,0.703
54.54,1,0.046,-0.031,-0.012,0.004,-0.002,-0.02,-1.565,0.021,2.914,53.22,98.4,40.503372,-3.368597,600.2,4,5,237.0,0.703
54.64,1,0.034,0.005,-0.001,0.019,-0.008,-0.016,-1.566,0.021,2.912,53.22,98.4,40.503372,-3.368597,600.2,4,5,237.0,0.703
54.74,1,-0.081,0.035,-0.014,-0.023,0.021,-0.009,-1.565,0.022,2.91,53.22,98.4,40.503372,-3.368597,600.2,4,5,237.0,0.703
54.85,1,0.006,0.027,-0.041,-0.028,0.025,-0.029,-1.564,0.025,2.909,53.22,98.4,40.503372,-3.368597,600.2,4,5,237.0,0.703
54.94,1,0.156,-0.084,-0.009,0.065,-0.024,-0.018,-1.564,0.021,2.907,53.22,98.4,40.503372,-3.368597,600.2,4,5,237.0,0.703
55.04,1,-0.118,0.047,-0.057,0.032,-0.02,-0.025,-1.564,0.02,2.906,54.35,99.1,40.50322,-3.368867,600.3,4,5,237.3,0.352
55.14,1,-0.091,0.059,-0.046,-0.097,0.054,-0.049,-1.564,0.02,2.905,54.35,99.1,40.50322,-3.368867,600.3,4,5,237.3,0.352
55.24,1,0.214,-0.121,0.038,0.05,-0.027,-0.009,-1.565,0.021,2.903,54.35,99.1,40.50322,-3.368867,600.3,4,5,237.3,0.352
55.34,1,0.013,-0.009,-0.044,0.074,-0.046,-0.008,-1.565,0.02,2.902,54.35,99.1,40.50322,-3.368867,600.3,4,5,237.3,0.352
55.44,1,-0.082,0.036,-0.038,-0.013,-0.001,-0.035,-1.566,0.019,2.9,54.35,99.1,40.50322,-3.368867,600.3,4,5,237.3,0.352
55.55,1,0.087,-0.059,-0.006,0.033,-0.022,-0.025,-1.564,0.019,2.899,54.35,99.1,40.50322,-3.368867,600.3,4,5,237.3,0.352
55.64,1,0.19,-0.077,-0.01,0.099,-0.047,-0.011,-1.564,0.019,2.898,54.35,99.1,40.50322,-3.368867,600.3,4,5,237.3,0.352
55.74,1,-0.037,-0.019,-0.015,0.086,-0.052,-0.006,-1.567,0.019,2.896,54.35,99.1,40.50322,-3.368867,600.3,4,5,237.3,0.352
55.85,1,-0.087,0.043,-0.034,-0.038,0.002,-0.026,-1.567,0.018,2.895,54.35,99.1,40.50322,-3.368867,600.3,4,5,237.3,0.352
55.95,1,-0.004,-0.021,-0.057,-0.045,0.007,-0.044,-1.564,0.018,2.893,54.35,99.1,40.50322,-3.368867,600.3,4,5,237.3,0.352
56.06,1,-0.057,-0.001,-0.043,-0.016,-0.016,-0.047,-1.563,0.018,2.892,55.3,100.0,40.503082,-3.369164,600.2,6,5,238.0,1.055
56.16,1,0.018,-0.013,-0.015,-0.034,-0.004,-0.026,-1.561,0.012,2.891,55.3,100.0,40.503082,-3.369164,600.2,6,5,238.0,1.055
56.35,1,-0.056,-0.003,-0.068,-0.026,-0.014,-0.068,-1.561,0.015,2.894,55.3,100.0,40.503082,-3.369164,600.2,6,5,238.0,1.055
56.45,1,0.042,-0.054,-0.036,-0.001,-0.026,-0.049,-1.562,0.024,2.895,55.3,100.0,40.503082,-3.369164,600.2,6,5,238.0,1.055
56.55,1,0.017,-0.056,-0.014,0.009,-0.043,-0.039,-1.558,0.039,2.896,55.3,100.0,40.503082,-3.369164,600.2,6,5,238.0,1.055
56.65,1,-0.042,-0.054,-0.066,-0.005,-0.051,-0.039,-1.558,0.048,2.896,55.3,100.0,40.503082,-3.369164,600.2,6,5,238.0,1.055
56.75,1,0.014,-0.025,-0.017,-0.022,-0.037,-0.04,-1.559,0.048,2.898,55.3,100.0,40.503082,-3.369164,600.2,6,5,238.0,1.055
56.85,1,0.066,-0.064,-0.041,0.028,-0.049,-0.034,-1.56,0.048,2.897,55.3,100.0,40.503082,-3.369164,600.2,6,5,238.0,1.055
56.95,1,-0.011,-0.0,0.007,0.02,-0.034,-0.021,-1.561,0.047,2.898,55.3,100.0,40.503082,-3.369164,600.2,6,5,238.0,1.055
57.05,1,-0.056,-0.002,-0.059,-0.015,-0.013,-0.027,-1.554,0.047,2.898,55.3,100.0,40.503082,-3.369164,600.2,6,5,238.0,1.055
57.16,1,-0.01,-0.02,-0.017,-0.022,-0.011,-0.028,-1.551,0.041,2.898,56.21,98.8,40.50296,-3.369441,600.2,4,5,238.4,1.055
57.26,1,-0.019,-0.028,-0.029,-0.019,-0.023,-0.027,-1.551,0.04,2.899,56.21,98.8,40.50296,-3.369441,600.2,4,5,238.4,1.055
57.35,1,-0.006,-0.025,-0.036,-0.007,-0.028,-0.035,-1.548,0.04,2.9,56.21,98.8,40.50296,-3.369441,600.2,4,5,238.4,1.055
57.45,1,-0.029,0.052,-0.02,-0.015,0.006,-0.023,-1.546,0.043,2.899,56.21,98.8,40.50296,-3.369441,600.2,4,5,238.4,1.055
57.55,1,-0.075,0.033,-0.067,-0.048,0.03,-0.042,-1.542,0.037,2.899,56.21,98.8,40.50296,-3.369441,600.2,4,5,238.4,1.055
57.65,1,0.011,-0.028,-0.005,-0.03,0.015,-0.033,-1.54,0.037,2.898,56.21,98.8,40.50296,-3.369441,600.2,4,5,238.4,1.055
57.76,1,-0.01,0.021,0.005,-0.012,0.002,-0.012,-1.539,0.041,2.896,56.21,98.8,40.50296,-3.369441,600.2,4,5,238.4,1.055
57.85,1,0.022,0.034,0.015,-0.004,0.02,0.002,-1.538,0.039,2.895,56.21,98.8,40.50296,-3.369441,600.2,4,5,238.4,1.055
57.95,1,-0.02,0.052,-0.006,0.01,0.033,0.003,-1.534,0.043,2.894,56.21,98.8,40.50296,-3.369441,600.2,4,5,238.4,1.055
58.05,1,-0.088,0.004,-0.013,-0.045,0.03,-0.005,-1.533,0.039,2.893,56.21,98.8,40.50296,-3.369441,600.2,4,5,238.4,1.055
58.15,1,-0.036,-0.017,-0.01,-0.06,0.003,-0.01,-1.533,0.033,2.893,57.25,98.0,40.502831,-3.369717,599.8,4,5,238.0,0.352
58.25,1,0.066,0.002,-0.017,0.001,-0.001,-0.017,-1.533,0.03,2.892,57.25,98.0,40.502831,-3.369717,599.8,4,5,238.0,0.352
58.35,1,-0.008,0.005,0.019,0.021,0.001,0.001,-1.535,0.029,2.892,57.25,98.0,40.502831,-3.369717,599.8,4,5,238.0,0.352
58.46,1,-0.075,-0.009,-0.026,-0.024,-0.005,-0.001,-1.535,0.029,2.891,57.25,98.0,40.502831,-3.369717,599.8,4,5,238.0,0.352
58.56,1,0.054,0.004,0.019,-0.004,0.001,-0.005,-1.534,0.031,2.891,57.25,98.0,40.502831,-3.369717,599.8,4,5,238.0,0.352
58.65,1,-0.078,0.003,-0.01,-0.03,0.005,0.003,-1.531,0.029,2.891,57.25,98.0,40.502831,-3.369717,599.8,4,5,238.0,0.352
58.75,1,0.022,-0.018,0.047,-0.018,-0.011,0.016,-1.534,0.03,2.892,57.25,98.0,40.502831,-3.369717,599.8,4,5,238.0,0.352
58.86,1,0.007,0.012,-0.014,0.009,-0.002,0.008,-1.537,0.028,2.896,57.25,98.0,40.502831,-3.369717,599.8,4,5,238.0,0.352
58.96,1,-0.03,-0.008,-0.005,-0.012,0.001,-0.003,-1.535,0.03,2.897,57.25,98.0,40.502831,-3.369717,599.8,4,5,238.0,0.352
59.06,1,-0.022,0.011,0.029,-0.021,0.004,0.013,-1.535,0.032,2.891,57.25,98.0,40.502831,-3.369717,599.8,4,5,238.0,0.352
59.16,1,-0.049,0.04,-0.009,-0.03,0.016,0.01,-1.536,0.033,2.887,58.23,97.4,40.502701,-3.36999,599.4,4,5,237.3,1.055
59.26,1,0.009,0.023,-0.007,-0.024,0.027,-0.003,-1.536,0.033,2.887,58.23,97.4,40.502701,-3.36999,599.4,4,5,237.3,1.055
59.36,1,0.027,0.001,-0.013,0.006,0.017,-0.006,-1.533,0.028,2.886,58.23,97.4,40.502701,-3.36999,599.4,4,5,237.3,1.055
59.47,1,0.021,-0.016,0.031,0.021,-0.003,0.007,-1.531,0.029,2.884,58.23,97.4,40.502701,-3.36999,599.4,4,5,237.3,1.055
59.56,1,-0.011,-0.013,0.004,0.001,-0.011,0.017,-1.53,0.027,2.884,58.23,97.4,40.502701,-3.36999,599.4,4,5,237.3,1.055
59.67,1,-0.031,0.028,0.008,-0.013,0.01,0.002,-1.532,0.025,2.884,58.23,97.4,40.502701,-3.36999,599.4,4,5,237.3,1.055
59.77,1,0.008,-0.011,0.027,-0.013,0.004,0.019,-1.536,0.028,2.886,58.23,97.4,40.502701,-3.36999,599.4,4,5,237.3,1.055
59.96,1,0.015,-0.044,0.03,0.009,-0.018,0.02,-1.538,0.029,2.886,58.23,97.4,40.502701,-3.36999,599.4,4,5,237.3,1.055
60.92,1,-0.009,0.043,0.074,0.014,-0.012,0.053,-1.538,0.037,2.879,58.23,97.4,40.502701,-3.36999,599.4,4,5,237.3,1.055
60.93,1,-0.097,0.144,-0.007,-0.046,0.073,0.026,-1.54,0.036,2.875,58.23,97.4,40.502701,-3.36999,599.4,4,5,237.3,1.055
60.93,1,-0.097,0.144,-0.007,-0.078,0.118,0.005,-1.54,0.036,2.875,59.23,96.7,40.502563,-3.370264,598.7,4,5,237.0,1.055
60.93,1,-0.097,0.144,-0.007,-0.09,0.134,-0.003,-1.54,0.036,2.875,59.23,96.7,40.502563,-3.370264,598.7,4,5,237.0,1.055
60.93,1,-0.097,0.144,-0.007,-0.094,0.14,-0.006,-1.54,0.036,2.875,59.23,96.7,40.502563,-3.370264,598.7,4,5,237.0,1.055
60.93,1,-0.097,0.144,-0.007,-0.096,0.142,-0.007,-1.54,0.036,2.875,59.23,96.7,40.502563,-3.370264,598.7,4,5,237.0,1.055
60.93,1,-0.097,0.144,-0.007,-0.096,0.143,-0.007,-1.54,0.036,2.875,59.23,96.7,40.502563,-3.370264,598.7,4,5,237.0,1.055
60.93,1,-0.097,0.144,-0.007,-0.096,0.143,-0.007,-1.54,0.036,2.875,59.23,96.7,40.502563,-3.370264,598.7,4,5,237.0,1.055
60.93,1,-0.097,0.144,-0.007,-0.097,0.144,-0.007,-1.54,0.036,2.875,59.23,96.7,40.502563,-3.370264,598.7,4,5,237.0,1.055
60.93,1,-0.094,0.015,-0.067,-0.095,0.096,-0.03,-1.54,0.036,2.874,59.23,96.7,40.502563,-3.370264,598.7,4,5,237.0,1.055
61.11,1,-0.04,-0.018,-0.049,-0.087,0.034,-0.053,-1.541,0.036,2.874,59.23,96.7,40.502563,-3.370264,598.7,4,5,237.0,1.055
61.11,1,0.184,-0.105,-0.001,0.046,-0.039,-0.026,-1.543,0.034,2.872,59.23,96.7,40.502563,-3.370264,598.7,4,5,237.0,1.055
61.16,1,0.013,0.029,0.038,0.055,-0.02,0.007,-1.543,0.034,2.872,61.3,95.4,40.502289,-3.370799,598.9,4,5,237.3,0.0
61.26,1,-0.122,0.068,0.021,-0.013,0.021,0.019,-1.542,0.034,2.872,61.3,95.4,40.502289,-3.370799,598.9,4,5,237.3,0.0
61.36,1,-0.089,0.027,0.013,-0.062,0.036,0.022,-1.541,0.035,2.872,61.3,95.4,40.502289,-3.370799,598.9,4,5,237.3,0.0
61.47,1,-0.074,0.045,-0.003,-0.095,0.037,-0.003,-1.541,0.035,2.871,61.3,95.4,40.502289,-3.370799,598.9,4,5,237.3,0.0
61.56,1,0.038,0.002,0.039,-0.03,0.023,0.02,-1.545,0.034,2.87,61.3,95.4,40.502289,-3.370799,598.9,4,5,237.3,0.0
61.67,1,0.047,-0.016,0.031,0.021,0.004,0.03,-1.548,0.034,2.87,61.3,95.4,40.502289,-3.370799,598.9,4,5,237.3,0.0
61.77,1,-0.027,0.007,0.001,0.013,-0.003,0.015,-1.55,0.033,2.871,61.3,95.4,40.502289,-3.370799,598.9,4,5,237.3,0.0
61.87,1,-0.109,0.041,-0.031,-0.071,0.026,-0.004,-1.553,0.034,2.872,61.3,95.4,40.502289,-3.370799,598.9,4,5,237.3,0.0
61.97,1,0.054,-0.052,0.005,-0.025,-0.004,-0.009,-1.553,0.036,2.872,61.3,95.4,40.502289,-3.370799,598.9,4,5,237.3,0.0
62.07,1,0.03,-0.032,0.017,0.034,-0.032,0.007,-1.552,0.038,2.872,61.3,95.4,40.502289,-3.370799,598.9,4,5,237.3,0.0
62.17,1,-0.019,-0.001,-0.009,0.019,-0.019,0.001,-1.556,0.04,2.872,62.21,96.4,40.502159,-3.371068,598.6,4,5,237.3,0.0
62.27,1,-0.067,0.016,0.017,-0.026,-0.002,0.005,-1.558,0.037,2.872,62.21,96.4,40.502159,-3.371068,598.6,4,5,237.3,0.0
62.37,1,-0.099,0.045,0.015,-0.065,0.021,0.012,-1.56,0.039,2.871,62.21,96.4,40.502159,-3.371068,598.6,4,5,237.3,0.0
62.47,1,-0.082,-0.012,-0.006,-0.081,0.018,0.006,-1.56,0.039,2.871,62.21,96.4,40.502159,-3.371068,598.6,4,5,237.3,0.0
62.57,1,0.051,-0.031,-0.01,-0.04,-0.011,0.0,-1.559,0.038,2.87,62.21,96.4,40.502159,-3.371068,598.6,4,5,237.3,0.0
62.67,1,0.071,-0.0,-0.024,0.039,-0.017,-0.01,-1.558,0.037,2.87,62.21,96.4,40.502159,-3.371068,598.6,4,5,237.3,0.0
62.77,1,-0.023,-0.04,-0.008,-0.003,-0.012,-0.028,-1.557,0.036,2.869,62.21,96.4,40.502159,-3.371068,598.6,4,5,237.3,0.0
62.87,1,-0.04,0.007,0.007,0.014,-0.024,0.015,-1.559,0.034,2.869,62.21,96.4,40.502159,-3.371068,598.6,4,5,237.3,0.0
62.97,1,0.031,0.02,-0.022,-0.027,0.012,-0.026,-1.557,0.03,2.868,62.21,96.4,40.502159,-3.371068,598.6,4,5,237.3,0.0
63.07,1,0.036,0.025,0.022,0.038,0.011,0.005,-1.558,0.03,2.867,62.21,96.4,40.502159,-3.371068,598.6,4,5,237.3,0.0
63.17,1,-0.046,0.01,-0.02,-0.006,0.02,-0.001,-1.557,0.028,2.867,63.24,96.9,40.502022,-3.371331,598.4,4,5,237.0,0.352
63.27,1,-0.072,0.022,0.013,-0.043,0.016,-0.003,-1.557,0.024,2.867,63.24,96.9,40.502022,-3.371331,598.4,4,5,237.0,0.352
63.37,1,-0.011,-0.03,0.014,-0.026,0.001,0.019,-1.558,0.02,2.866,63.24,96.9,40.502022,-3.371331,598.4,4,5,237.0,0.352
63.47,1,0.033,0.009,-0.044,-0.004,-0.007,-0.021,-1.551,0.015,2.865,63.24,96.9,40.502022,-3.371331,598.4,4,5,237.0,0.352
63.57,1,-0.005,-0.018,0.042,0.004,-0.008,0.003,-1.551,0.011,2.865,63.24,96.9,40.502022,-3.371331,598.4,4,5,237.0,0.352
63.67,1,-0.032,-0.024,0.022,-0.013,-0.019,0.019,-1.554,0.011,2.864,63.24,96.9,40.502022,-3.371331,598.4,4,5,237.0,0.352
63.77,1,-0.045,0.022,0.009,-0.026,-0.004,0.021,-1.555,0.015,2.864,63.24,96.9,40.502022,-3.371331,598.4,4,5,237.0,0.352
63.88,1,-0.002,0.0,-0.05,-0.031,0.008,-0.015,-1.554,0.015,2.864,63.24,96.9,40.502022,-3.371331,598.4,4,5,237.0,0.352
63.97,1,0.062,-0.046,0.021,0.012,-0.01,-0.008,-1.557,0.014,2.863,63.24,96.9,40.502022,-3.371331,598.4,4,5,237.0,0.352
64.07,1,0.045,-0.045,0.026,0.046,-0.037,0.016,-1.556,0.017,2.862,63.24,96.9,40.502022,-3.371331,598.4,4,5,237.0,0.352
64.17,1,-0.049,-0.005,-0.003,0.004,-0.028,0.005,-1.553,0.023,2.861,64.24,96.8,40.501888,-3.371602,598.2,4,5,237.3,0.352
64.28,1,-0.056,0.015,0.026,-0.033,-0.005,0.017,-1.552,0.021,2.86,64.24,96.8,40.501888,-3.371602,598.2,4,5,237.3,0.352
64.38,1,-0.043,0.021,-0.001,-0.041,0.009,0.011,-1.551,0.02,2.86,64.24,96.8,40.501888,-3.371602,598.2,4,5,237.3,0.352
64.48,1,0.02,0.009,0.01,-0.019,0.013,0.006,-1.55,0.022,2.859,64.24,96.8,40.501888,-3.371602,598.2,4,5,237.3,0.352
64.58,1,-0.036,0.041,0.015,-0.009,0.022,0.011,-1.55,0.023,2.859,64.24,96.8,40.501888,-3.371602,598.2,4,5,237.3,0.352
64.68,1,0.03,-0.026,0.024,-0.011,0.011,0.012,-1.552,0.026,2.858,64.24,96.8,40.501888,-3.371602,598.2,4,5,237.3,0.352
64.78,1,-0.042,0.006,0.004,-0.003,-0.004,0.016,-1.552,0.025,2.857,64.24,96.8,40.501888,-3.371602,598.2,4,5,237.3,0.352
64.88,1,-0.1,0.045,-0.003,-0.065,0.022,0.003,-1.551,0.025,2.857,64.24,96.8,40.501888,-3.371602,598.2,4,5,237.3,0.352
64.98,1,0.048,-0.018,0.032,-0.023,0.011,0.018,-1.551,0.025,2.857,64.24,96.8,40.501888,-3.371602,598.2,4,5,237.3,0.352
65.09,1,0.122,-0.039,0.002,0.048,-0.015,0.008,-1.551,0.024,2.856,64.24,96.8,40.501888,-3.371602,598.2,4,5,237.3,0.352
65.18,1,0.007,0.006,0.019,0.064,-0.019,0.018,-1.552,0.023,2.855,65.21,97.0,40.501755,-3.37187,598.4,4,5,237.0,0.352
65.28,1,-0.07,0.022,-0.012,-0.014,0.005,0.002,-1.553,0.023,2.855,65.21,97.0,40.501755,-3.37187,598.4,4,5,237.0,0.352
65.38,1,0.008,-0.015,0.004,-0.028,0.006,0.003,-1.555,0.02,2.854,65.21,97.0,40.501755,-3.37187,598.4,4,5,237.0,0.352
65.49,1,0.041,-0.029,0.014,0.024,-0.02,0.006,-1.556,0.015,2.854,65.21,97.0,40.501755,-3.37187,598.4,4,5,237.0,0.352
65.58,1,-0.071,0.003,-0.011,-0.025,-0.005,0.002,-1.556,0.016,2.854,65.21,97.0,40.501755,-3.37187,598.4,4,5,237.0,0.352
65.69,1,-0.121,0.017,-0.022,-0.074,0.005,-0.008,-1.554,0.017,2.854,65.21,97.0,40.501755,-3.37187,598.4,4,5,237.0,0.352
65.79,1,-0.021,0.006,-0.001,-0.066,0.009,-0.009,-1.555,0.018,2.854,65.21,97.0,40.501755,-3.37187,598.4,4,5,237.0,0.352
65.88,1,0.049,-0.019,0.035,-0.005,-0.006,0.005,-1.558,0.017,2.853,65.21,97.0,40.501755,-3.37187,598.4,4,5,237.0,0.352
65.98,1,-0.075,-0.005,0.021,-0.009,-0.011,0.029,-1.56,0.016,2.852,65.21,97.0,40.501755,-3.37187,598.4,4,5,237.0,0.352
66.09,1,-0.079,0.043,-0.022,-0.06,0.012,-0.003,-1.559,0.013,2.852,65.21,97.0,40.501755,-3.37187,598.4,4,5,237.0,0.352
66.18,1,0.056,-0.03,0.004,-0.032,0.01,-0.009,-1.556,0.011,2.851,66.22,97.7,40.501629,-3.372143,597.7,4,5,238.0,1.055
66.38,1,0.074,-0.07,0.039,0.089,-0.06,0.04,-1.558,0.014,2.849,66.22,97.7,40.501629,-3.372143,597.7,4,5,238.0,1.055
66.48,1,-0.187,0.078,-0.039,-0.031,-0.007,0.006,-1.557,0.014,2.85,66.22,97.7,40.501629,-3.372143,597.7,4,5,238.0,1.055
66.58,1,0.043,-0.027,0.001,-0.048,0.01,-0.01,-1.558,0.015,2.849,66.22,97.7,40.501629,-3.372143,597.7,4,5,238.0,1.055
66.69,1,0.068,-0.038,-0.002,0.036,-0.027,-0.0,-1.559,0.016,2.848,66.22,97.7,40.501629,-3.372143,597.7,4,5,238.0,1.055
66.79,1,0.021,0.01,0.025,0.036,-0.011,0.007,-1.561,0.016,2.848,66.22,97.7,40.501629,-3.372143,597.7,4,5,238.0,1.055
66.89,1,-0.036,-0.002,-0.019,-0.002,-0.001,0.004,-1.561,0.017,2.847,66.22,97.7,40.501629,-3.372143,597.7,4,5,238.0,1.055
66.98,1,-0.02,0.007,-0.009,-0.018,-0.0,-0.014,-1.558,0.017,2.846,66.22,97.7,40.501629,-3.372143,597.7,4,5,238.0,1.055
67.09,1,-0.04,0.007,-0.002,-0.038,0.011,-0.011,-1.558,0.019,2.846,66.22,97.7,40.501629,-3.372143,597.7,4,5,238.0,1.055
67.18,1,0.088,-0.013,0.027,0.018,0.001,0.017,-1.558,0.014,2.845,66.22,97.7,40.501629,-3.372143,597.7,4,5,238.0,1.055
67.29,1,0.053,-0.02,-0.012,0.055,-0.016,0.009,-1.554,0.016,2.844,67.2,98.4,40.501503,-3.372407,598.3,4,5,237.3,0.703
67.39,1,-0.056,-0.002,-0.011,0.013,-0.01,-0.005,-1.55,0.014,2.844,67.2,98.4,40.501503,-3.372407,598.3,4,5,237.3,0.703
67.5,1,-0.021,-0.001,0.008,-0.02,-0.004,-0.003,-1.551,0.013,2.844,67.2,98.4,40.501503,-3.372407,598.3,4,5,237.3,0.703
67.59,1,0.098,-0.084,0.023,0.023,-0.034,0.008,-1.551,0.017,2.843,67.2,98.4,40.501503,-3.372407,598.3,4,5,237.3,0.703
67.69,1,0.013,-0.027,0.035,0.046,-0.051,0.022,-1.552,0.018,2.844,67.2,98.4,40.501503,-3.372407,598.3,4,5,237.3,0.703
67.79,1,-0.05,-0.028,-0.008,-0.024,-0.019,0.014,-1.55,0.019,2.845,67.2,98.4,40.501503,-3.372407,598.3,4,5,237.3,0.703
67.9,1,0.007,-0.043,-0.019,-0.008,-0.039,-0.009,-1.55,0.02,2.847,67.2,98.4,40.501503,-3.372407,598.3,4,5,237.3,0.703
67.99,1,0.084,-0.079,0.027,0.037,-0.058,0.01,-1.552,0.022,2.847,67.2,98.4,40.501503,-3.372407,598.3,4,5,237.3,0.703
68.1,1,-0.041,-0.021,0.013,0.036,-0.056,0.019,-1.553,0.023,2.848,67.2,98.4,40.501503,-3.372407,598.3,4,5,237.3,0.703
68.19,1,-0.103,0.006,-0.036,-0.068,-0.009,-0.011,-1.552,0.025,2.849,67.2,98.4,40.501503,-3.372407,598.3,4,5,237.3,0.703
68.29,1,0.093,-0.079,0.018,0.008,-0.041,-0.004,-1.553,0.026,2.85,68.24,98.7,40.501369,-3.372684,599.6,4,5,237.3,0.703
68.39,1,0.019,-0.034,0.021,0.032,-0.048,0.01,-1.553,0.029,2.851,68.24,98.7,40.501369,-3.372684,599.6,4,5,237.3,0.703
68.49,1,-0.132,0.01,-0.016,-0.048,-0.017,0.002,-1.553,0.03,2.852,68.24,98.7,40.501369,-3.372684,599.6,4,5,237.3,0.703
68.59,1,0.004,-0.026,0.001,-0.034,-0.023,0.001,-1.552,0.03,2.852,68.24,98.7,40.501369,-3.372684,599.6,4,5,237.3,0.703
68.7,1,0.009,-0.004,-0.029,-0.029,-0.007,-0.017,-1.552,0.031,2.852,68.24,98.7,40.501369,-3.372684,599.6,4,5,237.3,0.703
68.79,1,-0.012,0.017,0.006,0.006,0.0,-0.006,-1.552,0.03,2.851,68.24,98.7,40.501369,-3.372684,599.6,4,5,237.3,0.703
68.89,1,-0.124,0.007,-0.02,-0.045,0.001,-0.007,-1.553,0.029,2.85,68.24,98.7,40.501369,-3.372684,599.6,4,5,237.3,0.703
68.99,1,-0.101,0.055,-0.007,-0.09,0.026,-0.011,-1.553,0.028,2.85,68.24,98.7,40.501369,-3.372684,599.6,4,5,237.3,0.703
69.1,1,0.175,-0.065,0.046,0.008,-0.005,0.011,-1.553,0.027,2.849,68.24,98.7,40.501369,-3.372684,599.6,4,5,237.3,0.703
69.19,1,-0.016,0.021,-0.013,0.053,-0.016,0.012,-1.551,0.026,2.849,68.24,98.7,40.501369,-3.372684,599.6,4,5,237.3,0.703
69.29,1,-0.071,0.036,-0.037,-0.013,0.024,-0.004,-1.549,0.025,2.849,69.21,96.6,40.501244,-3.372962,600.4,4,5,237.3,0.0
69.39,1,-0.122,0.064,-0.022,-0.09,0.048,-0.035,-1.551,0.024,2.849,69.21,96.6,40.501244,-3.372962,600.4,4,5,237.3,0.0
69.49,1,0.087,-0.046,0.039,-0.02,0.012,-0.001,-1.553,0.024,2.848,69.21,96.6,40.501244,-3.372962,600.4,4,5,237.3,0.0
69.59,1,0.007,0.017,0.01,0.021,-0.017,0.009,-1.559,0.029,2.848,69.21,96.6,40.501244,-3.372962,600.4,4,5,237.3,0.0
69.7,1,-0.148,0.065,-0.013,-0.063,0.041,0.015,-1.562,0.032,2.848,69.21,96.6,40.501244,-3.372962,600.4,4,5,237.3,0.0
69.8,1,0.021,-0.02,-0.024,-0.068,0.032,-0.027,-1.56,0.033,2.847,69.21,96.6,40.501244,-3.372962,600.4,4,5,237.3,0.0
69.9,1,0.102,-0.06,-0.003,0.045,-0.026,-0.003,-1.56,0.033,2.847,69.21,96.6,40.501244,-3.372962,600.4,4,5,237.3,0.0
69.99,1,-0.109,0.031,-0.04,-0.001,-0.014,-0.018,-1.56,0.032,2.846,69.21,96.6,40.501244,-3.372962,600.4,4,5,237.3,0.0
70.09,1,-0.141,0.056,-0.038,-0.091,0.024,-0.037,-1.561,0.032,2.847,69.21,96.6,40.501244,-3.372962,600.4,4,5,237.3,0.0
70.19,1,0.061,-0.035,0.02,-0.037,0.007,-0.011,-1.562,0.032,2.846,69.21,96.6,40.501244,-3.372962,600.4,4,5,237.3,0.0
70.3,1,0.003,-0.014,-0.028,0.015,-0.016,-0.008,-1.559,0.028,2.846,70.26,98.6,40.50111,-3.373229,600.9,4,5,237.3,0.0
70.4,1,-0.038,0.018,-0.009,-0.021,0.002,-0.015,-1.557,0.027,2.846,70.26,98.6,40.50111,-3.373229,600.9,4,5,237.3,0.0
70.5,1,-0.007,0.024,-0.032,-0.03,0.026,-0.023,-1.559,0.026,2.845,70.26,98.6,40.50111,-3.373229,600.9,4,5,237.3,0.0
70.6,1,0.069,-0.005,0.029,0.021,0.005,-0.003,-1.559,0.025,2.843,70.26,98.6,40.50111,-3.373229,600.9,4,5,237.3,0.0
70.7,1,-0.102,0.078,-0.037,-0.02,0.034,-0.008,-1.557,0.022,2.841,70.26,98.6,40.50111,-3.373229,600.9,4,5,237.3,0.0
70.8,1,-0.078,0.091,-0.019,-0.057,0.068,-0.021,-1.555,0.021,2.84,70.26,98.6,40.50111,-3.373229,600.9,4,5,237.3,0.0
70.9,1,0.055,0.03,0.017,-0.015,0.056,-0.004,-1.55,0.015,2.838,70.26,98.6,40.50111,-3.373229,600.9,4,5,237.3,0.0
71.0,1,0.034,-0.016,0.011,0.011,0.025,0.007,-1.551,0.012,2.836,70.26,98.6,40.50111,-3.373229,600.9,4,5,237.3,0.0
71.1,1,-0.081,0.029,-0.014,-0.003,0.011,0.002,-1.55,0.01,2.836,70.26,98.6,40.50111,-3.373229,600.9,4,5,237.3,0.0
71.2,1,-0.174,0.093,-0.057,-0.09,0.048,-0.023,-1.55,0.012,2.835,70.26,98.6,40.50111,-3.373229,600.9,4,5,237.3,0.0
71.3,1,0.149,-0.049,0.088,-0.025,0.017,0.012,-1.552,0.014,2.833,71.23,98.6,40.500969,-3.373494,600.1,4,5,237.0,0.352
71.4,1,0.073,0.013,0.004,0.064,0.004,0.023,-1.549,0.013,2.83,71.23,98.6,40.500969,-3.373494,600.1,4,5,237.0,0.352
71.51,1,-0.077,0.065,-0.006,-0.0,0.035,0.002,-1.548,0.014,2.829,71.23,98.6,40.500969,-3.373494,600.1,4,5,237.0,0.352
71.61,1,-0.04,0.034,-0.002,-0.034,0.041,0.006,-1.549,0.015,2.828,71.23,98.6,40.500969,-3.373494,600.1,4,5,237.0,0.352
71.7,1,-0.038,0.045,-0.001,-0.046,0.041,-0.001,-1.548,0.014,2.827,71.23,98.6,40.500969,-3.373494,600.1,4,5,237.0,0.352
71.8,1,0.169,-0.045,0.019,0.044,0.011,0.003,-1.548,0.013,2.825,71.23,98.6,40.500969,-3.373494,600.1,4,5,237.0,0.352
71.9,1,-0.02,0.049,0.015,0.071,-0.003,0.026,-1.549,0.011,2.823,71.23,98.6,40.500969,-3.373494,600.1,4,5,237.0,0.352
72.0,1,-0.174,0.093,-0.005,-0.072,0.059,0.001,-1.549,0.011,2.823,71.23,98.6,40.500969,-3.373494,600.1,4,5,237.0,0.352
72.1,1,0.102,-0.025,0.005,-0.037,0.038,-0.002,-1.549,0.012,2.822,71.23,98.6,40.500969,-3.373494,600.1,4,5,237.0,0.352
72.2,1,0.23,-0.077,0.107,0.1,-0.026,0.034,-1.549,0.014,2.82,71.23,98.6,40.500969,-3.373494,600.1,4,5,237.0,0.352
72.31,1,-0.04,0.021,-0.042,0.112,-0.029,0.042,-1.547,0.015,2.819,72.21,99.1,40.500835,-3.373755,598.3,4,5,237.3,0.352
72.4,1,-0.124,0.072,-0.051,-0.037,0.028,-0.026,-1.547,0.015,2.82,72.21,99.1,40.500835,-3.373755,598.3,4,5,237.3,0.352
72.5,1,0.178,-0.104,0.12,0.032,-0.008,0.032,-1.549,0.017,2.82,72.21,99.1,40.500835,-3.373755,598.3,4,5,237.3,0.352
72.6,1,-0.084,0.018,0.011,0.017,-0.022,0.038,-1.549,0.018,2.821,72.21,99.1,40.500835,-3.373755,598.3,4,5,237.3,0.352
72.7,1,-0.012,-0.013,0.017,-0.039,0.0,0.017,-1.547,0.019,2.822,72.21,99.1,40.500835,-3.373755,598.3,4,5,237.3,0.352
72.8,1,0.072,-0.063,-0.011,0.045,-0.042,0.016,-1.546,0.02,2.822,72.21,99.1,40.500835,-3.373755,598.3,4,5,237.3,0.352
72.9,1,-0.075,0.04,0.001,-0.003,-0.015,0.003,-1.548,0.019,2.822,72.21,99.1,40.500835,-3.373755,598.3,4,5,237.3,0.352
73.0,1,-0.04,0.001,0.005,-0.041,0.009,0.003,-1.549,0.015,2.822,72.21,99.1,40.500835,-3.373755,598.3,4,5,237.3,0.352
73.1,1,0.1,-0.083,0.011,0.022,-0.026,0.01,-1.545,0.013,2.823,72.21,99.1,40.500835,-3.373755,598.3,4,5,237.3,0.352
73.21,1,-0.039,-0.008,0.013,0.015,-0.039,0.011,-1.546,0.02,2.822,72.21,99.1,40.500835,-3.373755,598.3,4,5,237.3,0.352
73.31,1,-0.071,-0.009,0.001,-0.04,-0.017,-0.002,-1.548,0.022,2.822,73.22,99.3,40.500698,-3.374045,596.5,4,5,238.0,1.055
73.41,1,-0.075,0.025,0.011,-0.055,0.001,0.014,-1.549,0.021,2.823,73.22,99.3,40.500698,-3.374045,596.5,4,5,238.0,1.055
73.51,1,0.002,-0.015,-0.006,-0.039,0.0,-0.002,-1.543,0.02,2.823,73.22,99.3,40.500698,-3.374045,596.5,4,5,238.0,1.055
73.61,1,-0.066,0.008,0.014,-0.023,-0.004,0.013,-1.542,0.02,2.823,73.22,99.3,40.500698,-3.374045,596.5,4,5,238.0,1.055
73.71,1,-0.1,0.007,-0.041,-0.079,0.009,-0.014,-1.542,0.029,2.823,73.22,99.3,40.500698,-3.374045,596.5,4,5,238.0,1.055
73.81,1,0.061,-0.037,0.048,-0.025,-0.01,0.004,-1.544,0.029,2.823,73.22,99.3,40.500698,-3.374045,596.5,4,5,238.0,1.055
73.91,1,-0.047,-0.015,-0.034,-0.019,-0.019,-0.004,-1.541,0.026,2.825,73.22,99.3,40.500698,-3.374045,596.5,4,5,238.0,1.055
74.01,1,0.078,-0.046,0.044,0.011,-0.031,0.011,-1.544,0.034,2.826,73.22,99.3,40.500698,-3.374045,596.5,4,5,238.0,1.055
74.11,1,-0.018,-0.005,0.021,0.032,-0.029,0.024,-1.544,0.036,2.826,73.22,99.3,40.500698,-3.374045,596.5,4,5,238.0,1.055
74.21,1,-0.09,0.082,-0.021,-0.039,0.029,0.006,-1.541,0.037,2.827,73.22,99.3,40.500698,-3.374045,596.5,4,5,238.0,1.055
74.31,1,0.001,0.011,-0.014,-0.001,0.016,-0.006,-1.541,0.037,2.825,74.2,99.5,40.500565,-3.374323,595.7,4,5,237.7,0.352
74.41,1,0.06,-0.011,0.047,0.011,0.009,0.009,-1.542,0.036,2.825,74.2,99.5,40.500565,-3.374323,595.7,4,5,237.7,0.352
74.51,1,-0.074,0.039,-0.017,-0.023,0.019,0.005,-1.542,0.034,2.824,74.2,99.5,40.500565,-3.374323,595.7,4,5,237.7,0.352
74.61,1,-0.03,0.057,0.018,-0.045,0.038,0.007,-1.544,0.036,2.822,74.2,99.5,40.500565,-3.374323,595.7,4,5,237.7,0.352
74.72,1,0.085,0.017,0.028,0.015,0.042,0.017,-1.546,0.037,2.821,74.2,99.5,40.500565,-3.374323,595.7,4,5,237.7,0.352
74.81,1,0.042,0.012,0.034,0.051,0.016,0.032,-1.546,0.037,2.819,74.2,99.5,40.500565,-3.374323,595.7,4,5,237.7,0.352
74.91,1,-0.095,0.096,-0.014,-0.039,0.064,0.008,-1.545,0.036,2.819,74.2,99.5,40.500565,-3.374323,595.7,4,5,237.7,0.352
75.01,1,0.148,-0.034,0.043,0.036,0.025,0.017,-1.545,0.035,2.818,74.2,99.5,40.500565,-3.374323,595.7,4,5,237.7,0.352
75.11,1,-0.091,0.079,0.026,0.02,0.028,0.033,-1.545,0.034,2.815,74.2,99.5,40.500565,-3.374323,595.7,4,5,237.7,0.352
75.21,1,0.049,0.042,-0.018,-0.007,0.055,0.011,-1.543,0.035,2.815,74.2,99.5,40.500565,-3.374323,595.7,4,5,237.7,0.352
75.31,1,0.098,-0.006,0.036,0.044,0.028,0.005,-1.544,0.036,2.813,75.22,99.5,40.500427,-3.374593,596.8,4,5,237.7,0.352
75.42,1,-0.097,0.084,0.005,0.027,0.031,0.023,-1.545,0.037,2.811,75.22,99.5,40.500427,-3.374593,596.8,4,5,237.7,0.352
75.51,1,-0.209,0.154,-0.078,-0.119,0.098,-0.032,-1.546,0.037,2.81,75.22,99.5,40.500427,-3.374593,596.8,4,5,237.7,0.352
75.61,1,0.032,0.006,0.035,-0.058,0.067,-0.001,-1.545,0.037,2.809,75.22,99.5,40.500427,-3.374593,596.8,4,5,237.7,0.352
75.72,1,0.159,-0.051,0.041,0.032,0.01,0.008,-1.546,0.037,2.807,75.22,99.5,40.500427,-3.374593,596.8,4,5,237.7,0.352
75.82,1,-0.025,0.042,0.008,0.062,0.012,0.027,-1.546,0.037,2.807,75.22,99.5,40.500427,-3.374593,596.8,4,5,237.7,0.352
75.92,1,-0.088,0.027,-0.03,-0.054,0.03,-0.009,-1.546,0.037,2.807,75.22,99.5,40.500427,-3.374593,596.8,4,5,237.7,0.352
76.01,1,0.142,-0.025,0.061,0.026,0.006,0.018,-1.546,0.037,2.805,75.22,99.5,40.500427,-3.374593,596.8,4,5,237.7,0.352
76.12,1,-0.102,0.082,-0.035,0.008,0.018,0.007,-1.545,0.036,2.805,75.22,99.5,40.500427,-3.374593,596.8,4,5,237.7,0.352
76.32,1,0.011,0.036,-0.016,-0.004,0.051,0.004,-1.544,0.036,2.802,75.22,99.5,40.500427,-3.374593,596.8,4,5,237.7,0.352
76.42,1,0.114,-0.033,0.037,0.027,0.024,-0.005,-1.545,0.037,2.801,76.21,99.7,40.500294,-3.374868,596.6,4,5,238.4,0.703
76.52,1,-0.123,0.099,-0.011,-0.004,0.036,0.011,-1.544,0.036,2.8,76.21,99.7,40.500294,-3.374868,596.6,4,5,238.4,0.703
76.62,1,-0.155,0.136,-0.04,-0.102,0.097,-0.018,-1.543,0.035,2.8,76.21,99.7,40.500294,-3.374868,596.6,4,5,238.4,0.703
76.72,1,0.075,-0.012,0.006,-0.053,0.063,-0.02,-1.544,0.035,2.798,76.21,99.7,40.500294,-3.374868,596.6,4,5,238.4,0.703
76.82,1,0.063,-0.021,0.037,0.062,-0.005,0.026,-1.545,0.036,2.798,76.21,99.7,40.500294,-3.374868,596.6,4,5,238.4,0.703
76.93,1,-0.172,0.106,-0.036,-0.058,0.052,-0.005,-1.544,0.036,2.799,76.21,99.7,40.500294,-3.374868,596.6,4,5,238.4,0.703
77.03,1,0.04,-0.054,0.021,-0.053,0.019,-0.001,-1.544,0.037,2.799,76.21,99.7,40.500294,-3.374868,596.6,4,5,238.4,0.703
77.13,1,0.055,-0.065,0.011,0.04,-0.043,0.011,-1.544,0.038,2.8,76.21,99.7,40.500294,-3.374868,596.6,4,5,238.4,0.703
77.22,1,-0.026,0.003,0.015,0.013,-0.024,0.013,-1.543,0.037,2.8,76.21,99.7,40.500294,-3.374868,596.6,4,5,238.4,0.703
77.32,1,0.024,-0.038,-0.008,-0.002,-0.023,0.002,-1.541,0.03,2.801,76.21,99.7,40.500294,-3.374868,596.6,4,5,238.4,0.703
77.42,1,0.072,-0.013,0.042,0.031,-0.021,0.023,-1.544,0.027,2.801,77.24,99.5,40.50016,-3.375144,596.4,4,5,238.7,1.055
77.52,1,-0.069,-0.049,0.005,-0.005,-0.028,0.015,-1.54,0.032,2.802,77.24,99.5,40.50016,-3.375144,596.4,4,5,238.7,1.055
77.63,1,-0.025,0.016,-0.016,-0.022,-0.015,-0.002,-1.54,0.046,2.803,77.24,99.5,40.50016,-3.375144,596.4,4,5,238.7,1.055
77.72,1,0.045,0.019,0.028,-0.003,0.011,0.003,-1.539,0.047,2.805,77.24,99.5,40.50016,-3.375144,596.4,4,5,238.7,1.055
77.82,1,-0.073,0.0,-0.009,-0.003,0.001,0.012,-1.54,0.049,2.806,77.24,99.5,40.50016,-3.375144,596.4,4,5,238.7,1.055
77.92,1,-0.071,-0.042,-0.018,-0.037,-0.023,-0.003,-1.539,0.051,2.809,77.24,99.5,40.50016,-3.375144,596.4,4,5,238.7,1.055
78.02,1,-0.189,0.043,-0.05,-0.12,0.0,-0.033,-1.539,0.052,2.812,77.24,99.5,40.50016,-3.375144,596.4,4,5,238.7,1.055
78.12,1,0.11,-0.058,0.008,-0.042,-0.014,-0.019,-1.54,0.053,2.813,77.24,99.5,40.50016,-3.375144,596.4,4,5,238.7,1.055
78.23,1,-0.057,-0.011,-0.009,-0.021,-0.018,-0.008,-1.54,0.055,2.816,77.24,99.5,40.50016,-3.375144,596.4,4,5,238.7,1.055
78.32,1,-0.038,-0.017,-0.018,-0.065,-0.003,-0.02,-1.54,0.057,2.819,77.24,99.5,40.50016,-3.375144,596.4,4,5,238.7,1.055
78.42,1,0.177,-0.133,0.036,0.058,-0.062,0.008,-1.541,0.058,2.821,78.22,99.9,40.500031,-3.375429,596.2,4,5,239.1,0.703
78.52,1,-0.047,-0.017,-0.011,0.077,-0.076,0.017,-1.54,0.059,2.823,78.22,99.9,40.500031,-3.375429,596.2,4,5,239.1,0.703
78.62,1,0.017,-0.042,0.048,-0.006,-0.037,0.011,-1.541,0.059,2.825,78.22,99.9,40.500031,-3.375429,596.2,4,5,239.1,0.703
78.72,1,-0.185,0.043,-0.059,-0.065,-0.01,-0.007,-1.54,0.059,2.829,78.22,99.9,40.500031,-3.375429,596.2,4,5,239.1,0.703
78.83,1,-0.039,-0.042,0.005,-0.1,-0.0,-0.022,-1.541,0.06,2.832,78.22,99.9,40.500031,-3.375429,596.2,4,5,239.1,0.703
78.92,1,0.045,-0.08,0.022,0.002,-0.05,0.015,-1.542,0.062,2.835,78.22,99.9,40.500031,-3.375429,596.2,4,5,239.1,0.703
79.03,1,-0.126,0.008,-0.014,-0.049,-0.038,0.001,-1.541,0.063,2.838,78.22,99.9,40.500031,-3.375429,596.2,4,5,239.1,0.703
79.13,1,0.026,-0.013,-0.011,-0.029,-0.018,-0.007,-1.539,0.066,2.84,78.22,99.9,40.500031,-3.375429,596.2,4,5,239.1,0.703
79.23,1,0.033,-0.066,-0.022,0.009,-0.038,-0.016,-1.539,0.068,2.841,78.22,99.9,40.500031,-3.375429,596.2,4,5,239.1,0.703
79.33,1,-0.109,0.044,-0.023,-0.026,-0.014,-0.013,-1.54,0.068,2.842,78.22,99.9,40.500031,-3.375429,596.2,4,5,239.1,0.703
79.43,1,-0.119,0.082,-0.025,-0.108,0.052,-0.028,-1.542,0.071,2.843,79.21,99.3,40.499908,-3.375712,595.7,3,5,237.7,1.406
79.53,1,0.022,-0.02,0.04,-0.072,0.033,-0.008,-1.544,0.071,2.844,79.21,99.3,40.499908,-3.375712,595.7,3,5,237.7,1.406
79.63,1,0.056,0.011,0.029,0.033,-0.002,0.029,-1.544,0.071,2.844,79.21,99.3,40.499908,-3.375712,595.7,3,5,237.7,1.406
79.73,1,-0.057,0.048,-0.02,-0.023,0.036,0.006,-1.543,0.07,2.845,79.21,99.3,40.499908,-3.375712,595.7,3,5,237.7,1.406
79.83,1,0.151,-0.031,0.031,0.062,0.002,0.017,-1.541,0.07,2.846,79.21,99.3,40.499908,-3.375712,595.7,3,5,237.7,1.406
79.93,1,-0.071,0.057,-0.028,0.027,0.017,-0.001,-1.541,0.068,2.846,79.21,99.3,40.499908,-3.375712,595.7,3,5,237.7,1.406
80.03,1,0.042,0.011,0.028,0.009,0.021,0.004,-1.544,0.062,2.846,79.21,99.3,40.499908,-3.375712,595.7,3,5,237.7,1.406
80.13,1,-0.016,0.027,-0.013,0.005,0.025,0.002,-1.546,0.047,2.846,79.21,99.3,40.499908,-3.375712,595.7,3,5,237.7,1.406
80.23,1,-0.021,0.015,0.013,-0.019,0.023,0.001,-1.546,0.043,2.845,79.21,99.3,40.499908,-3.375712,595.7,3,5,237.7,1.406
80.33,1,0.009,0.024,0.033,0.0,0.015,0.022,-1.551,0.038,2.845,79.21,99.3,40.499908,-3.375712,595.7,3,5,237.7,1.406
80.43,1,-0.074,0.064,-0.013,-0.032,0.038,0.003,-1.552,0.031,2.845,80.23,98.9,40.499779,-3.375988,595.7,3,5,236.2,2.812
80.54,1,0.057,-0.021,0.011,-0.003,0.021,0.009,-1.555,0.026,2.844,80.23,98.9,40.499779,-3.375988,595.7,3,5,236.2,2.812
80.63,1,-0.016,0.031,0.011,0.008,0.017,0.007,-1.557,0.023,2.844,80.23,98.9,40.499779,-3.375988,595.7,3,5,236.2,2.812
80.73,1,-0.02,0.025,0.021,-0.004,0.025,0.02,-1.558,0.018,2.843,80.23,98.9,40.499779,-3.375988,595.7,3,5,236.2,2.812
80.83,1,-0.075,0.016,-0.041,-0.04,0.023,-0.007,-1.559,0.019,2.842,80.23,98.9,40.499779,-3.375988,595.7,3,5,236.2,2.812
80.93,1,0.009,-0.047,0.01,-0.031,-0.011,-0.017,-1.562,0.017,2.841,80.23,98.9,40.499779,-3.375988,595.7,3,5,236.2,2.812
81.03,1,0.046,0.021,0.06,0.0,0.002,0.035,-1.562,0.013,2.84,80.23,98.9,40.499779,-3.375988,595.7,3,5,236.2,2.812
81.13,1,-0.026,0.039,-0.008,0.015,0.014,0.013,-1.56,0.013,2.839,80.23,98.9,40.499779,-3.375988,595.7,3,5,236.2,2.812
81.24,1,-0.162,0.087,-0.012,-0.069,0.047,0.0,-1.561,0.016,2.84,80.23,98.9,40.499779,-3.375988,595.7,3,5,236.2,2.812
81.33,1,-0.118,0.046,-0.027,-0.119,0.062,-0.017,-1.561,0.018,2.839,80.23,98.9,40.499779,-3.375988,595.7,3,5,236.2,2.812
81.43,1,0.157,-0.045,0.057,0.015,0.004,0.02,-1.561,0.019,2.838,81.21,98.7,40.499638,-3.376256,595.6,3,5,236.2,1.406
81.53,1,-0.035,0.047,-0.002,0.005,0.021,0.015,-1.559,0.02,2.836,81.21,98.7,40.499638,-3.376256,595.6,3,5,236.2,1.406
81.63,1,-0.074,0.038,-0.043,-0.073,0.051,-0.029,-1.558,0.021,2.837,81.21,98.7,40.499638,-3.376256,595.6,3,5,236.2,1.406
81.75,1,0.032,-0.027,0.029,0.012,-0.005,0.008,-1.559,0.023,2.838,81.21,98.7,40.499638,-3.376256,595.6,3,5,236.2,1.406
81.84,1,-0.145,0.045,-0.018,-0.046,0.016,0.002,-1.558,0.024,2.838,81.21,98.7,40.499638,-3.376256,595.6,3,5,236.2,1.406
81.94,1,-0.125,-0.01,-0.033,-0.121,0.015,-0.027,-1.558,0.024,2.839,81.21,98.7,40.499638,-3.376256,595.6,3,5,236.2,1.406
82.04,1,0.077,-0.088,0.056,-0.039,-0.025,0.012,-1.559,0.023,2.841,81.21,98.7,40.499638,-3.376256,595.6,3,5,236.2,1.406
82.14,1,-0.2,-0.018,-0.066,-0.062,-0.055,-0.008,-1.56,0.023,2.842,81.21,98.7,40.499638,-3.376256,595.6,3,5,236.2,1.406
82.25,1,-0.025,-0.036,0.019,-0.089,-0.027,-0.009,-1.561,0.023,2.844,81.21,98.7,40.499638,-3.376256,595.6,3,5,236.2,1.406
82.34,1,0.061,-0.084,0.01,0.011,-0.069,0.004,-1.561,0.023,2.845,81.21,98.7,40.499638,-3.376256,595.6,3,5,236.2,1.406
82.44,1,-0.077,0.007,-0.031,-0.021,-0.038,-0.008,-1.56,0.023,2.846,82.22,99.5,40.499516,-3.376523,595.8,3,5,236.6,0.352
82.54,1,-0.194,0.062,-0.078,-0.11,0.019,-0.043,-1.558,0.022,2.848,82.22,99.5,40.499516,-3.376523,595.8,3,5,236.6,0.352
82.64,1,-0.042,-0.02,-0.042,-0.109,0.021,-0.05,-1.558,0.021,2.849,82.22,99.5,40.499516,-3.376523,595.8,3,5,236.6,0.352
82.74,1,0.059,-0.093,0.019,-0.008,-0.051,-0.014,-1.559,0.02,2.85,82.22,99.5,40.499516,-3.376523,595.8,3,5,236.6,0.352
82.84,1,-0.083,0.013,-0.031,-0.042,-0.027,-0.025,-1.56,0.019,2.851,82.22,99.5,40.499516,-3.376523,595.8,3,5,236.6,0.352
82.94,1,-0.016,-0.032,-0.026,-0.024,-0.019,-0.016,-1.559,0.017,2.851,82.22,99.5,40.499516,-3.376523,595.8,3,5,236.6,0.352
83.05,1,-0.08,0.033,-0.049,-0.047,-0.004,-0.037,-1.559,0.015,2.851,82.22,99.5,40.499516,-3.376523,595.8,3,5,236.6,0.352
83.15,1,-0.031,0.031,-0.022,-0.056,0.022,-0.036,-1.559,0.011,2.85,82.22,99.5,40.499516,-3.376523,595.8,3,5,236.6,0.352
83.24,1,0.033,-0.012,0.006,-0.008,0.006,-0.012,-1.557,0.008,2.849,82.22,99.5,40.499516,-3.376523,595.8,3,5,236.6,0.352
83.34,1,0.088,-0.047,-0.006,0.033,-0.012,-0.008,-1.555,0.009,2.849,82.22,99.5,40.499516,-3.376523,595.8,3,5,236.6,0.352
83.44,1,-0.018,0.021,-0.016,0.048,-0.024,0.001,-1.555,0.009,2.848,83.21,100.4,40.499374,-3.376794,595.5,3,5,236.2,0.352
83.54,1,-0.107,0.045,-0.037,-0.041,0.025,-0.025,-1.555,0.01,2.849,83.21,100.4,40.499374,-3.376794,595.5,3,5,236.2,0.352
83.66,1,0.088,-0.066,-0.006,-0.014,-0.004,-0.025,-1.555,0.01,2.849,83.21,100.4,40.499374,-3.376794,595.5,3,5,236.2,0.352
83.74,1,0.014,-0.021,-0.003,0.029,-0.032,-0.009,-1.555,0.006,2.848,83.21,100.4,40.499374,-3.376794,595.5,3,5,236.2,0.352
83.84,1,-0.096,0.014,-0.048,-0.035,-0.01,-0.026,-1.554,0.005,2.848,83.21,100.4,40.499374,-3.376794,595.5,3,5,236.2,0.352
83.94,1,-0.017,0.011,-0.02,-0.046,0.011,-0.028,-1.549,0.023,2.847,83.21,100.4,40.499374,-3.376794,595.5,3,5,236.2,0.352
84.05,1,0.067,-0.019,0.016,0.016,-0.004,-0.003,-1.551,0.021,2.847,83.21,100.4,40.499374,-3.376794,595.5,3,5,236.2,0.352
84.14,1,-0.064,0.065,-0.048,0.013,0.011,-0.019,-1.55,0.022,2.848,83.21,100.4,40.499374,-3.376794,595.5,3,5,236.2,0.352
84.26,1,-0.049,0.026,-0.031,-0.061,0.042,-0.037,-1.55,0.034,2.849,83.21,100.4,40.499374,-3.376794,595.5,3,5,236.2,0.352
84.35,1,-0.002,-0.004,0.01,-0.021,0.017,-0.014,-1.552,0.035,2.849,83.21,100.4,40.499374,-3.376794,595.5,3,5,236.2,0.352
84.44,1,-0.109,0.05,-0.028,-0.039,0.016,-0.007,-1.552,0.036,2.849,84.21,102.1,40.499233,-3.377056,595.4,4,5,235.9,0.703
84.54,1,-0.005,0.06,0.0,-0.066,0.055,-0.018,-1.549,0.035,2.849,84.21,102.1,40.499233,-3.377056,595.4,4,5,235.9,0.703
84.65,1,0.13,-0.033,-0.005,0.045,0.016,-0.003,-1.548,0.036,2.848,84.21,102.1,40.499233,-3.377056,595.4,4,5,235.9,0.703
84.75,1,-0.164,0.057,-0.042,-0.002,0.017,-0.012,-1.548,0.037,2.848,84.21,102.1,40.499233,-3.377056,595.4,4,5,235.9,0.703
84.86,1,-0.039,0.04,-0.006,-0.088,0.047,-0.031,-1.55,0.037,2.848,84.21,102.1,40.499233,-3.377056,595.4,4,5,235.9,0.703
84.95,1,-0.055,0.053,-0.015,-0.063,0.042,-0.01,-1.551,0.036,2.847,84.21,102.1,40.499233,-3.377056,595.4,4,5,235.9,0.703
85.05,1,0.089,-0.046,-0.002,0.007,0.015,-0.006,-1.55,0.036,2.846,84.21,102.1,40.499233,-3.377056,595.4,4,5,235.9,0.703
85.15,1,-0.099,0.057,-0.024,-0.007,0.01,-0.017,-1.551,0.038,2.846,84.21,102.1,40.499233,-3.377056,595.4,4,5,235.9,0.703
85.25,1,-0.071,0.048,0.014,-0.091,0.05,-0.013,-1.552,0.038,2.846,84.21,102.1,40.499233,-3.377056,595.4,4,5,235.9,0.703
85.35,1,0.107,-0.004,0.025,0.043,0.005,0.025,-1.551,0.037,2.845,84.21,102.1,40.499233,-3.377056,595.4,4,5,235.9,0.703
85.45,1,-0.083,0.076,-0.043,-0.011,0.041,-0.014,-1.551,0.036,2.845,85.21,100.1,40.4991,-3.377331,595.5,3,5,235.9,0.352
85.55,1,-0.19,0.108,-0.042,-0.087,0.07,-0.023,-1.552,0.037,2.845,85.21,100.1,40.4991,-3.377331,595.5,3,5,235.9,0.352
85.65,1,-0.119,0.078,-0.045,-0.148,0.092,-0.05,-1.552,0.037,2.846,85.21,100.1,40.4991,-3.377331,595.5,3,5,235.9,0.352
85.75,1,0.107,-0.087,0.013,-0.014,0.006,-0.01,-1.552,0.037,2.845,85.21,100.1,40.4991,-3.377331,595.5,3,5,235.9,0.352
85.86,1,-0.083,0.098,-0.029,-0.017,0.027,-0.01,-1.55,0.037,2.846,85.21,100.1,40.4991,-3.377331,595.5,3,5,235.9,0.352
85.95,1,0.035,0.013,-0.041,-0.036,0.047,-0.043,-1.548,0.037,2.846,85.21,100.1,40.4991,-3.377331,595.5,3,5,235.9,0.352
86.06,1,0.06,-0.068,-0.002,0.05,-0.02,-0.014,-1.55,0.037,2.846,85.21,100.1,40.4991,-3.377331,595.5,3,5,235.9,0.352
86.15,1,-0.178,0.056,-0.031,-0.045,-0.003,-0.023,-1.554,0.037,2.846,85.21,100.1,40.4991,-3.377331,595.5,3,5,235.9,0.352
86.25,1,-0.081,0.033,-0.035,-0.103,0.035,-0.026,-1.554,0.036,2.847,85.21,100.1,40.4991,-3.377331,595.5,3,5,235.9,0.352
86.35,1,0.191,-0.106,0.041,0.029,-0.022,0.004,-1.553,0.036,2.846,85.21,100.1,40.4991,-3.377331,595.5,3,5,235.9,0.352
86.46,1,-0.02,0.003,-0.015,0.043,-0.042,-0.001,-1.552,0.036,2.846,86.21,99.6,40.498962,-3.377608,594.5,3,5,236.2,0.352
86.55,1,0.077,-0.012,-0.028,0.019,-0.002,-0.023,-1.552,0.035,2.847,86.21,99.6,40.498962,-3.377608,594.5,3,5,236.2,0.352
86.65,1,0.08,0.006,0.015,0.074,-0.011,-0.003,-1.552,0.036,2.846,86.21,99.6,40.498962,-3.377608,594.5,3,5,236.2,0.352
86.75,1,0.001,0.028,-0.025,0.06,0.007,-0.001,-1.551,0.037,2.846,86.21,99.6,40.498962,-3.377608,594.5,3,5,236.2,0.352
86.85,1,-0.018,0.024,-0.072,-0.007,0.027,-0.049,-1.55,0.035,2.847,86.21,99.6,40.498962,-3.377608,594.5,3,5,236.2,0.352
86.96,1,-0.029,0.024,0.009,0.001,0.017,-0.024,-1.553,0.035,2.847,86.21,99.6,40.498962,-3.377608,594.5,3,5,236.2,0.352
87.06,1,-0.042,0.018,-0.041,-0.039,0.023,-0.031,-1.558,0.036,2.847,86.21,99.6,40.498962,-3.377608,594.5,3,5,236.2,0.352
87.15,1,0.025,-0.017,0.006,-0.01,0.01,-0.01,-1.556,0.044,2.846,86.21,99.6,40.498962,-3.377608,594.5,3,5,236.2,0.352
87.26,1,0.016,-0.006,-0.028,0.021,-0.009,-0.009,-1.554,0.032,2.846,86.21,99.6,40.498962,-3.377608,594.5,3,5,236.2,0.352
87.35,1,-0.059,0.025,-0.059,-0.021,0.001,-0.046,-1.554,0.037,2.846,86.21,99.6,40.498962,-3.377608,594.5,3,5,236.2,0.352
87.46,1,0.071,-0.011,-0.006,-0.003,0.012,-0.027,-1.556,0.032,2.846,87.23,98.8,40.498825,-3.377875,594.5,4,5,236.2,0.352
87.55,1,0.05,-0.022,0.002,0.054,-0.011,-0.008,-1.554,0.034,2.844,87.23,98.8,40.498825,-3.377875,594.5,4,5,236.2,0.352
87.66,1,-0.142,0.075,-0.042,-0.041,0.026,-0.024,-1.552,0.035,2.844,87.23,98.8,40.498825,-3.377875,594.5,4,5,236.2,0.352
87.76,1,-0.067,0.067,-0.009,-0.099,0.064,-0.032,-1.552,0.033,2.843,87.23,98.8,40.498825,-3.377875,594.5,4,5,236.2,0.352
87.86,1,-0.021,0.005,-0.023,-0.034,0.025,-0.01,-1.552,0.031,2.841,87.23,98.8,40.498825,-3.377875,594.5,4,5,236.2,0.352
87.96,1,0.157,-0.036,0.035,0.057,-0.006,0.005,-1.554,0.031,2.84,87.23,98.8,40.498825,-3.377875,594.5,4,5,236.2,0.352
88.06,1,-0.06,0.023,0.002,0.029,-0.002,0.008,-1.554,0.031,2.84,87.23,98.8,40.498825,-3.377875,594.5,4,5,236.2,0.352
88.16,1,-0.056,0.051,-0.047,-0.051,0.037,-0.016,-1.552,0.03,2.84,87.23,98.8,40.498825,-3.377875,594.5,4,5,236.2,0.352
88.26,1,0.098,0.015,-0.003,0.025,0.028,-0.016,-1.552,0.029,2.839,87.23,98.8,40.498825,-3.377875,594.5,4,5,236.2,0.352
88.36,1,0.026,0.007,0.005,0.062,0.007,-0.002,-1.553,0.029,2.839,87.23,98.8,40.498825,-3.377875,594.5,4,5,236.2,0.352
88.47,1,-0.068,0.051,-0.01,-0.024,0.028,-0.007,-1.552,0.028,2.838,88.24,98.1,40.49868,-3.37812,594.0,4,5,235.5,0.703
88.56,1,-0.002,0.034,0.014,-0.008,0.038,0.007,-1.552,0.021,2.837,88.24,98.1,40.49868,-3.37812,594.0,4,5,235.5,0.703
88.66,1,0.084,-0.037,-0.014,0.017,0.012,-0.01,-1.547,0.021,2.838,88.24,98.1,40.49868,-3.37812,594.0,4,5,235.5,0.703
88.76,1,-0.014,-0.021,0.013,0.012,-0.017,0.001,-1.548,0.021,2.838,88.24,98.1,40.49868,-3.37812,594.0,4,5,235.5,0.703
88.86,1,-0.096,0.038,-0.043,-0.05,0.014,-0.013,-1.547,0.021,2.839,88.24,98.1,40.49868,-3.37812,594.0,4,5,235.5,0.703
88.96,1,0.072,0.021,0.016,-0.007,0.022,-0.012,-1.546,0.022,2.839,88.24,98.1,40.49868,-3.37812,594.0,4,5,235.5,0.703
89.06,1,0.019,-0.037,0.006,0.044,-0.014,0.003,-1.546,0.023,2.839,88.24,98.1,40.49868,-3.37812,594.0,4,5,235.5,0.703
89.16,1,-0.05,-0.017,-0.006,-0.001,-0.023,0.009,-1.545,0.023,2.839,88.24,98.1,40.49868,-3.37812,594.0,4,5,235.5,0.703
89.26,1,0.069,-0.022,0.023,0.027,-0.019,0.012,-1.544,0.024,2.84,88.24,98.1,40.49868,-3.37812,594.0,4,5,235.5,0.703
89.36,1,0.097,-0.063,0.029,0.052,-0.036,0.009,-1.547,0.029,2.841,88.24,98.1,40.49868,-3.37812,594.0,4,5,235.5,0.703
89.47,1,-0.11,0.005,-0.0,-0.005,-0.025,0.017,-1.55,0.029,2.841,89.22,98.3,40.498543,-3.378395,594.0,4,5,236.2,0.703
89.56,1,-0.021,0.037,0.002,-0.021,-0.004,0.013,-1.55,0.031,2.84,89.22,98.3,40.498543,-3.378395,594.0,4,5,236.2,0.703
89.67,1,-0.06,0.047,-0.033,-0.048,0.034,-0.013,-1.546,0.03,2.84,89.22,98.3,40.498543,-3.378395,594.0,4,5,236.2,0.703
89.76,1,-0.036,-0.014,-0.023,-0.061,0.027,-0.029,-1.549,0.031,2.84,89.22,98.3,40.498543,-3.378395,594.0,4,5,236.2,0.703
89.86,1,-0.025,0.028,0.016,-0.017,0.003,-0.004,-1.553,0.032,2.839,89.22,98.3,40.498543,-3.378395,594.0,4,5,236.2,0.703
89.96,1,0.002,0.042,-0.022,-0.021,0.028,-0.006,-1.558,0.032,2.839,89.22,98.3,40.498543,-3.378395,594.0,4,5,236.2,0.703
90.06,1,-0.034,0.031,0.008,0.003,0.032,0.004,-1.556,0.032,2.839,89.22,98.3,40.498543,-3.378395,594.0,4,5,236.2,0.703
90.17,1,0.023,-0.034,-0.014,-0.022,0.009,-0.017,-1.557,0.031,2.839,89.22,98.3,40.498543,-3.378395,594.0,4,5,236.2,0.703
90.26,1,-0.026,0.005,-0.023,-0.011,-0.003,-0.012,-1.557,0.028,2.839,89.22,98.3,40.498543,-3.378395,594.0,4,5,236.2,0.703
90.36,1,0.082,0.018,0.009,0.019,0.008,-0.008,-1.555,0.027,2.839,89.22,98.3,40.498543,-3.378395,594.0,4,5,236.2,0.703
90.47,1,0.005,0.004,-0.035,0.038,0.007,-0.014,-1.549,0.027,2.84,90.22,98.2,40.498405,-3.378667,593.9,4,5,236.2,0.703
90.57,1,-0.002,-0.039,0.025,0.001,-0.008,-0.006,-1.548,0.031,2.84,90.22,98.2,40.498405,-3.378667,593.9,4,5,236.2,0.703
90.67,1,-0.066,-0.096,-0.034,-0.021,-0.054,-0.006,-1.545,0.037,2.84,90.22,98.2,40.498405,-3.378667,593.9,4,5,236.2,0.703
90.77,1,0.044,-0.022,0.016,-0.016,-0.05,-0.009,-1.546,0.036,2.841,90.22,98.2,40.498405,-3.378667,593.9,4,5,236.2,0.703
90.88,1,-0.026,0.015,0.003,0.018,-0.022,0.01,-1.547,0.033,2.84,90.22,98.2,40.498405,-3.378667,593.9,4,5,236.2,0.703
90.98,1,-0.005,0.056,-0.003,-0.012,0.029,-0.003,-1.546,0.03,2.84,90.22,98.2,40.498405,-3.378667,593.9,4,5,236.2,0.703
91.07,1,0.078,-0.003,-0.007,0.031,0.016,0.002,-1.544,0.028,2.84,90.22,98.2,40.498405,-3.378667,593.9,4,5,236.2,0.703
91.17,1,0.105,-0.011,0.046,0.066,-0.002,0.013,-1.543,0.028,2.84,90.22,98.2,40.498405,-3.378667,593.9,4,5,236.2,0.703
91.27,1,-0.073,0.011,-0.02,0.021,0.003,0.011,-1.545,0.029,2.84,90.22,98.2,40.498405,-3.378667,593.9,4,5,236.2,0.703
91.37,1,-0.102,0.018,-0.037,-0.057,0.009,-0.019,-1.542,0.031,2.84,90.22,98.2,40.498405,-3.378667,593.9,4,5,236.2,0.703
91.47,1,0.094,-0.011,0.032,-0.012,0.005,-0.005,-1.544,0.031,2.841,91.24,98.2,40.498268,-3.37893,593.6,6,5,236.6,0.352
91.57,1,0.007,0.006,-0.014,0.039,0.0,0.007,-1.547,0.031,2.841,91.24,98.2,40.498268,-3.37893,593.6,6,5,236.6,0.352
91.67,1,-0.006,-0.044,0.021,0.006,-0.009,0.006,-1.547,0.031,2.841,91.24,98.2,40.498268,-3.37893,593.6,6,5,236.6,0.352
91.77,1,0.028,0.003,-0.021,-0.008,-0.015,-0.008,-1.545,0.031,2.842,91.24,98.2,40.498268,-3.37893,593.6,6,5,236.6,0.352
91.88,1,-0.015,0.012,-0.006,0.011,-0.004,-0.009,-1.546,0.031,2.843,91.24,98.2,40.498268,-3.37893,593.6,6,5,236.6,0.352
91.97,1,0.05,-0.045,0.008,0.029,-0.011,0.002,-1.547,0.034,2.843,91.24,98.2,40.498268,-3.37893,593.6,6,5,236.6,0.352
92.08,1,0.052,-0.004,0.012,0.046,-0.022,0.009,-1.547,0.042,2.844,91.24,98.2,40.498268,-3.37893,593.6,6,5,236.6,0.352
92.18,1,-0.009,0.018,-0.025,0.012,0.003,-0.012,-1.549,0.045,2.844,91.24,98.2,40.498268,-3.37893,593.6,6,5,236.6,0.352
92.27,1,0.082,0.027,-0.006,0.062,0.006,0.002,-1.547,0.041,2.845,91.24,98.2,40.498268,-3.37893,593.6,6,5,236.6,0.352
92.37,1,0.026,0.009,-0.041,0.035,0.02,-0.027,-1.544,0.038,2.845,91.24,98.2,40.498268,-3.37893,593.6,6,5,236.6,0.352
92.47,1,0.007,-0.034,0.01,0.017,-0.004,-0.015,-1.544,0.035,2.845,92.24,96.4,40.498135,-3.379196,593.4,4,5,236.6,0.352
92.59,1,0.062,-0.044,0.031,0.025,-0.024,0.005,-1.544,0.035,2.845,92.24,96.4,40.498135,-3.379196,593.4,4,5,236.6,0.352
92.67,1,-0.008,0.003,0.035,0.05,-0.033,0.032,-1.541,0.031,2.845,92.24,96.4,40.498135,-3.379196,593.4,4,5,236.6,0.352
92.78,1,-0.126,0.078,-0.059,-0.064,0.033,-0.011,-1.539,0.029,2.846,92.24,96.4,40.498135,-3.379196,593.4,4,5,236.6,0.352
92.87,1,0.035,-0.05,-0.007,-0.034,0.013,-0.018,-1.541,0.028,2.846,92.24,96.4,40.498135,-3.379196,593.4,4,5,236.6,0.352
92.97,1,0.068,-0.02,0.025,0.037,-0.023,0.003,-1.543,0.024,2.846,92.24,96.4,40.498135,-3.379196,593.4,4,5,236.6,0.352
93.08,1,-0.041,0.002,0.007,0.008,-0.014,0.009,-1.544,0.022,2.846,92.24,96.4,40.498135,-3.379196,593.4,4,5,236.6,0.352
93.18,1,-0.03,0.04,-0.013,-0.028,0.019,-0.001,-1.542,0.022,2.845,92.24,96.4,40.498135,-3.379196,593.4,4,5,236.6,0.352
93.28,1,0.02,0.0,-0.031,-0.012,0.015,-0.019,-1.541,0.022,2.845,92.24,96.4,40.498135,-3.379196,593.4,4,5,236.6,0.352
93.38,1,0.006,-0.002,0.012,0.0,0.006,-0.003,-1.542,0.022,2.844,92.24,96.4,40.498135,-3.379196,593.4,4,5,236.6,0.352
93.48,1,-0.031,0.038,0.026,-0.003,0.011,0.01,-1.543,0.016,2.843,93.22,97.3,40.498009,-3.37945,593.6,6,5,236.2,0.352
93.58,1,-0.028,0.019,-0.003,-0.016,0.023,0.006,-1.542,0.018,2.842,93.22,97.3,40.498009,-3.37945,593.6,6,5,236.2,0.352
93.68,1,0.039,-0.026,0.025,0.005,-0.0,0.018,-1.547,0.018,2.842,93.22,97.3,40.498009,-3.37945,593.6,6,5,236.2,0.352
93.78,1,0.011,0.022,-0.003,0.014,-0.0,0.006,-1.547,0.023,2.841,93.22,97.3,40.498009,-3.37945,593.6,6,5,236.2,0.352
93.88,1,-0.039,0.045,0.007,-0.011,0.028,0.004,-1.548,0.024,2.841,93.22,97.3,40.498009,-3.37945,593.6,6,5,236.2,0.352
93.98,1,-0.08,0.037,-0.004,-0.046,0.038,0.004,-1.552,0.017,2.84,93.22,97.3,40.498009,-3.37945,593.6,6,5,236.2,0.352
94.08,1,0.018,0.001,0.002,-0.031,0.024,-0.0,-1.552,0.011,2.839,93.22,97.3,40.498009,-3.37945,593.6,6,5,236.2,0.352
94.18,1,0.029,-0.017,0.006,0.012,-0.001,0.004,-1.552,0.013,2.838,93.22,97.3,40.498009,-3.37945,593.6,6,5,236.2,0.352
94.28,1,0.016,0.005,-0.008,0.019,-0.003,-0.004,-1.553,0.012,2.838,93.22,97.3,40.498009,-3.37945,593.6,6,5,236.2,0.352
94.38,1,0.013,-0.019,0.014,0.023,-0.003,0.007,-1.554,0.011,2.838,93.22,97.3,40.498009,-3.37945,593.6,6,5,236.2,0.352
94.48,1,0.032,-0.017,0.002,0.013,-0.015,0.006,-1.552,0.012,2.837,94.24,97.5,40.497871,-3.379718,593.3,6,5,235.9,0.703
94.58,1,-0.096,0.036,-0.045,-0.048,0.01,-0.021,-1.55,0.013,2.838,94.24,97.5,40.497871,-3.379718,593.3,6,5,235.9,0.703
94.68,1,-0.019,-0.01,-0.027,-0.032,0.004,-0.028,-1.552,0.014,2.839,94.24,97.5,40.497871,-3.379718,593.3,6,5,235.9,0.703
94.78,1,0.06,-0.031,0.019,0.007,-0.013,-0.006,-1.551,0.013,2.839,94.24,97.5,40.497871,-3.379718,593.3,6,5,235.9,0.703
94.88,1,0.05,-0.008,0.002,0.053,-0.016,0.007,-1.549,0.012,2.839,94.24,97.5,40.497871,-3.379718,593.3,6,5,235.9,0.703
94.98,1,-0.092,-0.034,-0.013,-0.013,-0.021,-0.004,-1.548,0.013,2.839,94.24,97.5,40.497871,-3.379718,593.3,6,5,235.9,0.703
95.08,1,-0.098,0.012,-0.039,-0.078,-0.013,-0.029,-1.549,0.013,2.839,94.24,97.5,40.497871,-3.379718,593.3,6,5,235.9,0.703
95.18,1,0.072,0.004,0.007,-0.012,-0.001,-0.008,-1.55,0.012,2.839,94.24,97.5,40.497871,-3.379718,593.3,6,5,235.9,0.703
95.28,1,0.084,-0.017,0.036,0.045,0.0,0.007,-1.549,0.013,2.839,94.24,97.5,40.497871,-3.379718,593.3,6,5,235.9,0.703
95.38,1,-0.035,0.039,0.035,0.028,-0.001,0.031,-1.547,0.013,2.839,94.24,97.5,40.497871,-3.379718,593.3,6,5,235.9,0.703
95.49,1,-0.099,0.007,-0.059,-0.046,0.019,-0.003,-1.546,0.013,2.838,95.22,97.6,40.497738,-3.37998,593.6,4,5,236.2,0.352
95.58,1,0.089,-0.024,0.027,-0.013,0.004,-0.011,-1.547,0.013,2.838,95.22,97.6,40.497738,-3.37998,593.6,4,5,236.2,0.352
95.68,1,0.005,-0.032,0.028,0.04,-0.02,0.021,-1.549,0.013,2.838,95.22,97.6,40.497738,-3.37998,593.6,4,5,236.2,0.352
95.78,1,-0.052,-0.015,-0.011,-0.006,-0.026,0.005,-1.549,0.006,2.838,95.22,97.6,40.497738,-3.37998,593.6,4,5,236.2,0.352
95.88,1,-0.102,0.057,-0.048,-0.058,0.013,-0.018,-1.547,0.002,2.838,95.22,97.6,40.497738,-3.37998,593.6,4,5,236.2,0.352
95.98,1,0.121,-0.053,0.043,-0.004,-0.003,-0.004,-1.548,0.0,2.837,95.22,97.6,40.497738,-3.37998,593.6,4,5,236.2,0.352
96.08,1,0.017,0.0,0.005,0.04,-0.022,0.015,-1.547,0.0,2.837,95.22,97.6,40.497738,-3.37998,593.6,4,5,236.2,0.352
96.19,1,-0.018,-0.002,-0.006,0.012,-0.005,0.005,-1.545,-0.0,2.836,95.22,97.6,40.497738,-3.37998,593.6,4,5,236.2,0.352
96.39,1,0.018,-0.02,-0.001,-0.017,0.011,-0.016,-1.547,0.012,2.836,95.22,97.6,40.497738,-3.37998,593.6,4,5,236.2,0.352
96.49,1,-0.001,-0.016,0.006,0.0,-0.009,0.002,-1.547,0.013,2.835,95.22,97.6,40.497738,-3.37998,593.6,4,5,236.2,0.352
96.59,1,-0.022,-0.005,0.003,-0.003,-0.013,0.005,-1.547,0.019,2.834,96.22,97.6,40.497601,-3.380246,593.0,4,5,236.2,0.352
96.69,1,-0.006,0.006,0.012,-0.01,-0.006,0.006,-1.546,0.014,2.833,96.22,97.6,40.497601,-3.380246,593.0,4,5,236.2,0.352
96.79,1,-0.016,0.006,-0.011,-0.009,0.002,-0.001,-1.542,0.014,2.833,96.22,97.6,40.497601,-3.380246,593.0,4,5,236.2,0.352
96.89,1,-0.003,0.022,0.011,-0.015,0.012,0.002,-1.542,0.013,2.833,96.22,97.6,40.497601,-3.380246,593.0,4,5,236.2,0.352
96.99,1,0.017,-0.008,-0.012,-0.0,0.011,-0.002,-1.54,0.012,2.833,96.22,97.6,40.497601,-3.380246,593.0,4,5,236.2,0.352
97.09,1,-0.028,-0.01,0.012,-0.004,-0.003,0.002,-1.54,0.015,2.833,96.22,97.6,40.497601,-3.380246,593.0,4,5,236.2,0.352
97.19,1,0.0,-0.009,0.027,-0.01,-0.015,0.015,-1.541,0.017,2.833,96.22,97.6,40.497601,-3.380246,593.0,4,5,236.2,0.352
97.29,1,-0.009,-0.005,-0.005,-0.01,0.003,0.005,-1.541,0.014,2.833,96.22,97.6,40.497601,-3.380246,593.0,4,5,236.2,0.352
97.39,1,-0.056,0.028,-0.023,-0.014,0.002,-0.002,-1.545,0.018,2.833,96.22,97.6,40.497601,-3.380246,593.0,4,5,236.2,0.352
97.49,1,0.008,-0.009,0.031,-0.027,0.008,0.004,-1.544,0.018,2.834,96.22,97.6,40.497601,-3.380246,593.0,4,5,236.2,0.352
97.59,1,0.068,-0.036,-0.006,0.03,-0.017,0.009,-1.543,0.019,2.834,97.22,97.3,40.497478,-3.380515,592.8,4,5,236.6,0.352
97.69,1,-0.053,-0.024,0.011,-0.006,-0.023,0.001,-1.542,0.02,2.835,97.22,97.3,40.497478,-3.380515,592.8,4,5,236.6,0.352
97.79,1,-0.075,-0.035,-0.012,-0.041,-0.029,-0.002,-1.541,0.02,2.835,97.22,97.3,40.497478,-3.380515,592.8,4,5,236.6,0.352
97.9,1,-0.05,-0.006,-0.003,-0.056,-0.023,-0.007,-1.542,0.023,2.836,97.22,97.3,40.497478,-3.380515,592.8,4,5,236.6,0.352
97.99,1,0.022,-0.029,0.033,-0.012,-0.016,0.018,-1.544,0.027,2.837,97.22,97.3,40.497478,-3.380515,592.8,4,5,236.6,0.352
98.1,1,-0.048,-0.015,-0.006,-0.017,-0.027,0.009,-1.541,0.027,2.837,97.22,97.3,40.497478,-3.380515,592.8,4,5,236.6,0.352
98.2,1,-0.109,-0.02,-0.031,-0.064,-0.009,-0.012,-1.542,0.026,2.838,97.22,97.3,40.497478,-3.380515,592.8,4,5,236.6,0.352
98.29,1,0.061,-0.013,0.033,-0.037,-0.017,-0.001,-1.543,0.024,2.838,97.22,97.3,40.497478,-3.380515,592.8,4,5,236.6,0.352
98.39,1,0.078,-0.019,0.001,0.047,-0.017,0.013,-1.544,0.024,2.839,97.22,97.3,40.497478,-3.380515,592.8,4,5,236.6,0.352
98.49,1,-0.019,-0.02,0.005,0.025,-0.024,-0.0,-1.545,0.025,2.84,97.22,97.3,40.497478,-3.380515,592.8,4,5,236.6,0.352
98.59,1,-0.028,-0.048,0.044,-0.004,-0.033,0.029,-1.546,0.027,2.84,98.23,96.6,40.497349,-3.38078,592.7,4,5,236.6,0.352
98.7,1,-0.029,-0.004,-0.045,-0.028,-0.02,-0.0,-1.543,0.028,2.841,98.23,96.6,40.497349,-3.38078,592.7,4,5,236.6,0.352
98.79,1,0.017,0.018,0.005,-0.008,-0.004,-0.014,-1.546,0.03,2.842,98.23,96.6,40.497349,-3.38078,592.7,4,5,236.6,0.352
98.89,1,0.05,0.001,0.008,0.02,0.001,0.005,-1.549,0.036,2.842,98.23,96.6,40.497349,-3.38078,592.7,4,5,236.6,0.352
98.99,1,0.096,-0.013,0.001,0.04,0.004,-0.002,-1.551,0.038,2.842,98.23,96.6,40.497349,-3.38078,592.7,4,5,236.6,0.352
99.1,1,-0.056,0.046,0.01,0.031,0.015,0.009,-1.552,0.035,2.841,98.23,96.6,40.497349,-3.38078,592.7,4,5,236.6,0.352
99.19,1,-0.008,0.002,-0.015,-0.024,0.007,-0.001,-1.549,0.028,2.841,98.23,96.6,40.497349,-3.38078,592.7,4,5,236.6,0.352
99.31,1,0.032,0.008,-0.001,0.02,0.015,-0.008,-1.549,0.028,2.841,98.23,96.6,40.497349,-3.38078,592.7,4,5,236.6,0.352
99.4,1,0.004,-0.055,-0.007,0.017,-0.017,-0.005,-1.549,0.028,2.841,98.23,96.6,40.497349,-3.38078,592.7,4,5,236.6,0.352
99.5,1,0.005,-0.031,0.01,0.014,-0.032,0.003,-1.548,0.032,2.841,98.23,96.6,40.497349,-3.38078,592.7,4,5,236.6,0.352
99.6,1,-0.051,-0.031,-0.002,-0.003,-0.037,0.005,-1.55,0.032,2.841,99.23,97.7,40.497215,-3.38105,592.4,4,5,235.9,0.703
99.7,1,-0.122,0.033,0.002,-0.067,-0.004,0.006,-1.55,0.029,2.841,99.23,97.7,40.497215,-3.38105,592.4,4,5,235.9,0.703
99.8,1,-0.033,0.014,-0.002,-0.081,0.021,-0.01,-1.549,0.032,2.841,99.23,97.7,40.497215,-3.38105,592.4,4,5,235.9,0.703
99.91,1,0.082,-0.014,0.005,-0.009,0.002,0.001,-1.55,0.034,2.84,99.23,97.7,40.497215,-3.38105,592.4,4,5,235.9,0.703
100.0,1,-0.052,0.06,-0.01,0.011,0.015,0.006,-1.549,0.035,2.839,99.23,97.7,40.497215,-3.38105,592.4,4,5,235.9,0.703
100.1,1,-0.025,0.043,-0.002,-0.033,0.053,-0.012,-1.547,0.036,2.839,99.23,97.7,40.497215,-3.38105,592.4,4,5,235.9,0.703
100.2,1,-0.003,0.023,-0.025,-0.004,0.026,-0.003,-1.548,0.036,2.839,99.23,97.7,40.497215,-3.38105,592.4,4,5,235.9,0.703
100.31,1,0.007,0.003,0.031,-0.004,0.02,-0.0,-1.55,0.035,2.839,99.23,97.7,40.497215,-3.38105,592.4,4,5,235.9,0.703
100.4,1,-0.019,-0.015,0.009,-0.017,0.001,0.009,-1.552,0.033,2.839,99.23,97.7,40.497215,-3.38105,592.4,4,5,235.9,0.703
100.51,1,-0.098,0.043,-0.046,-0.036,0.012,-0.006,-1.557,0.035,2.839,99.23,97.7,40.497215,-3.38105,592.4,4,5,235.9,0.703
100.61,1,-0.017,-0.003,0.01,-0.06,0.018,-0.022,-1.556,0.032,2.839,100.22,97.7,40.497074,-3.381315,592.0,4,5,235.9,0.703
100.7,1,0.089,-0.034,0.008,0.022,-0.012,0.012,-1.554,0.026,2.838,100.22,97.7,40.497074,-3.381315,592.0,4,5,235.9,0.703
100.8,1,0.099,-0.026,-0.005,0.068,-0.02,-0.003,-1.553,0.025,2.838,100.22,97.7,40.497074,-3.381315,592.0,4,5,235.9,0.703
100.9,1,-0.142,0.063,-0.035,-0.016,0.014,-0.024,-1.55,0.019,2.837,100.22,97.7,40.497074,-3.381315,592.0,4,5,235.9,0.703
101.0,1,-0.027,0.005,0.029,-0.053,0.026,0.003,-1.553,0.014,2.836,100.22,97.7,40.497074,-3.381315,592.0,4,5,235.9,0.703
101.11,1,-0.05,0.002,-0.036,-0.039,0.002,-0.008,-1.554,0.012,2.835,100.22,97.7,40.497074,-3.381315,592.0,4,5,235.9,0.703
101.2,1,0.061,0.025,0.008,0.001,0.009,-0.005,-1.556,0.012,2.835,100.22,97.7,40.497074,-3.381315,592.0,4,5,235.9,0.703
101.3,1,0.046,0.021,-0.047,0.027,0.021,-0.02,-1.558,0.014,2.834,100.22,97.7,40.497074,-3.381315,592.0,4,5,235.9,0.703
101.4,1,-0.07,0.024,-0.004,-0.009,0.023,-0.028,-1.561,0.014,2.834,100.22,97.7,40.497074,-3.381315,592.0,4,5,235.9,0.703
101.51,1,-0.074,-0.035,-0.001,-0.038,-0.0,0.001,-1.564,0.012,2.834,100.22,97.7,40.497074,-3.381315,592.0,4,5,235.9,0.703
101.6,1,-0.002,0.012,-0.001,-0.028,-0.012,-0.002,-1.559,0.008,2.833,101.27,97.1,40.496941,-3.38158,592.0,4,5,236.2,0.352
101.72,1,0.025,-0.022,-0.038,-0.016,0.006,-0.023,-1.56,0.011,2.832,101.27,97.1,40.496941,-3.38158,592.0,4,5,236.2,0.352
101.8,1,-0.023,-0.03,-0.002,-0.008,-0.025,-0.021,-1.562,0.011,2.831,101.27,97.1,40.496941,-3.38158,592.0,4,5,236.2,0.352
101.9,1,0.068,-0.054,0.014,0.046,-0.038,0.009,-1.563,0.011,2.831,101.27,97.1,40.496941,-3.38158,592.0,4,5,236.2,0.352
102.01,1,-0.081,0.002,-0.005,-0.022,-0.031,-0.003,-1.56,0.013,2.831,101.27,97.1,40.496941,-3.38158,592.0,4,5,236.2,0.352
102.11,1,-0.062,0.038,-0.073,-0.053,0.008,-0.024,-1.557,0.011,2.831,101.27,97.1,40.496941,-3.38158,592.0,4,5,236.2,0.352
102.21,1,0.12,0.031,0.027,0.016,0.027,-0.016,-1.557,0.011,2.83,101.27,97.1,40.496941,-3.38158,592.0,4,5,236.2,0.352
102.31,1,-0.078,-0.013,-0.081,0.01,0.012,-0.045,-1.553,0.014,2.831,101.27,97.1,40.496941,-3.38158,592.0,4,5,236.2,0.352
102.41,1,-0.086,-0.041,0.001,-0.061,-0.017,-0.028,-1.558,0.013,2.831,101.27,97.1,40.496941,-3.38158,592.0,4,5,236.2,0.352
102.51,1,-0.022,-0.006,0.03,-0.036,-0.025,0.014,-1.559,0.011,2.83,101.27,97.1,40.496941,-3.38158,592.0,4,5,236.2,0.352
102.61,1,-0.001,0.038,-0.047,-0.04,0.018,-0.019,-1.558,0.013,2.831,102.22,97.0,40.496799,-3.381848,591.8,4,5,236.6,0.703
102.71,1,0.087,-0.063,0.026,0.028,-0.016,-0.01,-1.558,0.014,2.831,102.22,97.0,40.496799,-3.381848,591.8,4,5,236.6,0.703
102.81,1,-0.043,-0.059,0.004,0.016,-0.042,0.012,-1.557,0.015,2.832,102.22,97.0,40.496799,-3.381848,591.8,4,5,236.6,0.703
102.91,1,-0.044,-0.046,-0.024,-0.016,-0.053,-0.006,-1.557,0.014,2.832,102.22,97.0,40.496799,-3.381848,591.8,4,5,236.6,0.703
103.01,1,-0.024,-0.002,-0.019,-0.025,-0.033,-0.02,-1.556,0.016,2.833,102.22,97.0,40.496799,-3.381848,591.8,4,5,236.6,0.703
103.11,1,0.02,-0.033,-0.017,-0.01,-0.023,-0.018,-1.561,0.021,2.834,102.22,97.0,40.496799,-3.381848,591.8,4,5,236.6,0.703
103.21,1,0.076,-0.018,-0.001,0.04,-0.022,-0.011,-1.564,0.022,2.834,102.22,97.0,40.496799,-3.381848,591.8,4,5,236.6,0.703
103.31,1,-0.031,-0.008,-0.016,0.011,-0.02,-0.011,-1.563,0.025,2.835,102.22,97.0,40.496799,-3.381848,591.8,4,5,236.6,0.703
103.42,1,-0.054,-0.037,-0.01,-0.024,-0.02,-0.006,-1.56,0.027,2.836,102.22,97.0,40.496799,-3.381848,591.8,4,5,236.6,0.703
103.52,1,-0.01,0.004,-0.026,-0.022,-0.017,-0.018,-1.556,0.027,2.838,102.22,97.0,40.496799,-3.381848,591.8,4,5,236.6,0.703
103.61,1,-0.039,-0.02,-0.026,-0.024,-0.009,-0.018,-1.551,0.031,2.84,103.21,96.6,40.49667,-3.38211,592.7,4,5,236.6,0.352
103.71,1,-0.048,-0.048,-0.007,-0.043,-0.022,-0.021,-1.547,0.036,2.842,103.21,96.6,40.49667,-3.38211,592.7,4,5,236.6,0.352
103.81,1,0.027,-0.047,0.02,-0.021,-0.043,-0.007,-1.548,0.043,2.844,103.21,96.6,40.49667,-3.38211,592.7,4,5,236.6,0.352
103.91,1,-0.067,-0.027,-0.013,-0.007,-0.044,0.013,-1.548,0.043,2.845,103.21,96.6,40.49667,-3.38211,592.7,4,5,236.6,0.352
104.01,1,-0.051,-0.041,0.003,-0.058,-0.036,-0.013,-1.547,0.044,2.846,103.21,96.6,40.49667,-3.38211,592.7,4,5,236.6,0.352
104.12,1,-0.048,-0.004,-0.027,-0.054,-0.024,-0.008,-1.548,0.047,2.848,103.21,96.6,40.49667,-3.38211,592.7,4,5,236.6,0.352
104.21,1,-0.085,-0.023,-0.027,-0.066,-0.013,-0.024,-1.548,0.048,2.849,103.21,96.6,40.49667,-3.38211,592.7,4,5,236.6,0.352
104.31,1,-0.007,-0.043,-0.009,-0.046,-0.035,-0.01,-1.547,0.045,2.85,103.21,96.6,40.49667,-3.38211,592.7,4,5,236.6,0.352
104.41,1,0.036,-0.063,0.028,-0.007,-0.052,-0.001,-1.547,0.044,2.852,103.21,96.6,40.49667,-3.38211,592.7,4,5,236.6,0.352
104.51,1,0.127,-0.029,-0.018,0.053,-0.041,-0.004,-1.548,0.05,2.853,103.21,96.6,40.49667,-3.38211,592.7,4,5,236.6,0.352
104.61,1,-0.013,-0.005,-0.014,0.061,-0.025,-0.003,-1.549,0.051,2.854,104.22,96.4,40.496529,-3.382376,592.1,4,5,236.2,0.352
104.72,1,-0.057,-0.003,-0.007,-0.019,-0.009,-0.012,-1.551,0.05,2.856,104.22,96.4,40.496529,-3.382376,592.1,4,5,236.2,0.352
104.81,1,-0.015,-0.018,0.038,-0.012,-0.01,0.005,-1.554,0.047,2.857,104.22,96.4,40.496529,-3.382376,592.1,4,5,236.2,0.352
104.91,1,0.005,0.026,-0.036,-0.004,-0.005,0.001,-1.549,0.047,2.858,104.22,96.4,40.496529,-3.382376,592.1,4,5,236.2,0.352
105.02,1,0.024,-0.021,-0.013,0.017,0.004,-0.009,-1.543,0.041,2.86,104.22,96.4,40.496529,-3.382376,592.1,4,5,236.2,0.352
105.11,1,0.001,-0.007,0.079,0.017,-0.013,0.02,-1.542,0.039,2.86,104.22,96.4,40.496529,-3.382376,592.1,4,5,236.2,0.352
105.22,1,-0.06,0.017,-0.015,-0.034,0.002,0.017,-1.538,0.034,2.859,104.22,96.4,40.496529,-3.382376,592.1,4,5,236.2,0.352
105.32,1,-0.042,0.025,-0.017,-0.041,0.012,0.0,-1.538,0.023,2.858,104.22,96.4,40.496529,-3.382376,592.1,4,5,236.2,0.352
105.42,1,0.022,0.035,0.047,-0.024,0.032,0.011,-1.539,0.02,2.858,104.22,96.4,40.496529,-3.382376,592.1,4,5,236.2,0.352
105.52,1,0.034,-0.059,0.033,0.021,-0.009,0.034,-1.54,0.019,2.858,104.22,96.4,40.496529,-3.382376,592.1,4,5,236.2,0.352
105.62,1,-0.094,-0.014,-0.016,-0.032,-0.02,0.006,-1.542,0.019,2.858,105.24,96.0,40.496399,-3.382623,591.4,4,5,235.5,1.055
105.72,1,-0.085,0.013,0.005,-0.077,-0.005,0.007,-1.547,0.017,2.858,105.24,96.0,40.496399,-3.382623,591.4,4,5,235.5,1.055
105.83,1,-0.083,-0.01,-0.021,-0.077,-0.006,-0.006,-1.544,0.014,2.858,105.24,96.0,40.496399,-3.382623,591.4,4,5,235.5,1.055
105.93,1,-0.043,-0.038,-0.024,-0.059,-0.022,-0.017,-1.542,0.014,2.859,105.24,96.0,40.496399,-3.382623,591.4,4,5,235.5,1.055
106.02,1,0.062,-0.042,0.036,-0.008,-0.027,0.006,-1.541,0.013,2.859,105.24,96.0,40.496399,-3.382623,591.4,4,5,235.5,1.055
106.12,1,0.032,-0.072,-0.003,0.036,-0.048,0.01,-1.54,0.013,2.86,105.24,96.0,40.496399,-3.382623,591.4,4,5,235.5,1.055
106.22,1,-0.022,-0.041,0.022,-0.012,-0.055,-0.002,-1.541,0.012,2.86,105.24,96.0,40.496399,-3.382623,591.4,4,5,235.5,1.055
106.33,1,-0.059,-0.042,0.015,-0.019,-0.045,0.025,-1.542,0.013,2.861,105.24,96.0,40.496399,-3.382623,591.4,4,5,235.5,1.055
106.42,1,-0.041,-0.009,0.025,-0.029,-0.032,0.02,-1.541,0.015,2.862,105.24,96.0,40.496399,-3.382623,591.4,4,5,235.5,1.055
106.52,1,-0.078,0.014,0.009,-0.053,-0.005,0.02,-1.541,0.014,2.862,105.24,96.0,40.496399,-3.382623,591.4,4,5,235.5,1.055
106.62,1,0.01,-0.001,0.023,-0.041,0.005,0.015,-1.54,0.014,2.863,106.21,96.0,40.496265,-3.382881,591.4,4,5,235.2,1.055
106.72,1,0.026,-0.034,0.006,0.001,-0.015,0.015,-1.537,0.017,2.864,106.21,96.0,40.496265,-3.382881,591.4,4,5,235.2,1.055
106.82,1,-0.004,-0.098,-0.034,0.011,-0.049,-0.006,-1.535,0.017,2.866,106.21,96.0,40.496265,-3.382881,591.4,4,5,235.2,1.055
106.92,1,0.022,-0.106,0.04,0.011,-0.092,-0.004,-1.536,0.016,2.867,106.21,96.0,40.496265,-3.382881,591.4,4,5,235.2,1.055
107.03,1,-0.048,-0.047,0.025,-0.018,-0.073,0.029,-1.536,0.016,2.869,106.21,96.0,40.496265,-3.382881,591.4,4,5,235.2,1.055
107.13,1,-0.068,-0.013,-0.034,-0.042,-0.041,-0.001,-1.531,0.017,2.871,106.21,96.0,40.496265,-3.382881,591.4,4,5,235.2,1.055
107.22,1,0.03,-0.047,0.034,-0.019,-0.036,0.003,-1.531,0.021,2.873,106.21,96.0,40.496265,-3.382881,591.4,4,5,235.2,1.055
107.33,1,0.05,-0.069,0.058,0.015,-0.054,0.032,-1.53,0.024,2.874,106.21,96.0,40.496265,-3.382881,591.4,4,5,235.2,1.055
107.42,1,-0.02,-0.063,-0.024,0.027,-0.067,0.023,-1.53,0.03,2.876,106.21,96.0,40.496265,-3.382881,591.4,4,5,235.2,1.055
107.52,1,-0.032,-0.049,-0.039,-0.007,-0.055,-0.02,-1.533,0.033,2.879,106.21,96.0,40.496265,-3.382881,591.4,4,5,235.2,1.055
107.63,1,-0.031,-0.064,0.04,-0.04,-0.057,-0.004,-1.533,0.038,2.882,107.26,95.4,40.496128,-3.383136,591.5,4,5,234.8,0.703
107.72,1,-0.089,-0.054,0.015,-0.052,-0.057,0.02,-1.529,0.044,2.884,107.26,95.4,40.496128,-3.383136,591.5,4,5,234.8,0.703
107.82,1,0.018,-0.048,0.019,-0.04,-0.048,0.014,-1.527,0.048,2.887,107.26,95.4,40.496128,-3.383136,591.5,4,5,234.8,0.703
107.92,1,0.118,-0.029,0.043,0.036,-0.046,0.028,-1.53,0.054,2.889,107.26,95.4,40.496128,-3.383136,591.5,4,5,234.8,0.703
108.03,1,0.054,-0.036,0.007,0.068,-0.034,0.027,-1.528,0.054,2.891,107.26,95.4,40.496128,-3.383136,591.5,4,5,234.8,0.703
108.13,1,0.004,-0.053,0.016,0.027,-0.042,0.013,-1.525,0.051,2.893,107.26,95.4,40.496128,-3.383136,591.5,4,5,234.8,0.703
108.23,1,0.061,-0.053,0.055,0.055,-0.051,0.034,-1.524,0.051,2.895,107.26,95.4,40.496128,-3.383136,591.5,4,5,234.8,0.703
108.33,1,-0.092,-0.04,0.003,-0.017,-0.045,0.025,-1.522,0.052,2.898,107.26,95.4,40.496128,-3.383136,591.5,4,5,234.8,0.703
108.43,1,0.026,-0.062,0.057,-0.015,-0.051,0.033,-1.525,0.054,2.901,107.26,95.4,40.496128,-3.383136,591.5,4,5,234.8,0.703
108.53,1,-0.033,-0.018,0.019,-0.007,-0.04,0.034,-1.526,0.064,2.904,107.26,95.4,40.496128,-3.383136,591.5,4,5,234.8,0.703
108.63,1,0.01,-0.009,0.006,-0.012,-0.024,0.018,-1.528,0.067,2.906,108.23,95.7,40.495987,-3.383395,591.7,4,5,233.8,1.406
108.74,1,0.075,-0.052,0.012,0.031,-0.034,0.015,-1.529,0.067,2.908,108.23,95.7,40.495987,-3.383395,591.7,4,5,233.8,1.406
108.84,1,0.194,-0.064,0.035,0.117,-0.049,0.021,-1.529,0.067,2.91,108.23,95.7,40.495987,-3.383395,591.7,4,5,233.8,1.406
108.93,1,-0.055,-0.013,-0.004,0.061,-0.041,0.014,-1.529,0.067,2.912,108.23,95.7,40.495987,-3.383395,591.7,4,5,233.8,1.406
109.03,1,-0.068,-0.069,0.027,-0.022,-0.039,0.017,-1.529,0.068,2.913,108.23,95.7,40.495987,-3.383395,591.7,4,5,233.8,1.406
109.13,1,-0.048,-0.03,0.027,-0.05,-0.055,0.02,-1.529,0.064,2.913,108.23,95.7,40.495987,-3.383395,591.7,4,5,233.8,1.406
109.23,1,-0.079,0.014,0.003,-0.067,-0.017,0.015,-1.529,0.062,2.914,108.23,95.7,40.495987,-3.383395,591.7,4,5,233.8,1.406
109.33,1,0.05,0.06,0.007,-0.014,0.021,0.015,-1.532,0.052,2.916,108.23,95.7,40.495987,-3.383395,591.7,4,5,233.8,1.406
109.44,1,0.047,0.032,0.025,0.026,0.037,0.011,-1.535,0.048,2.917,108.23,95.7,40.495987,-3.383395,591.7,4,5,233.8,1.406
109.54,1,0.02,-0.005,-0.012,0.027,0.026,0.004,-1.534,0.049,2.917,108.23,95.7,40.495987,-3.383395,591.7,4,5,233.8,1.406
109.63,1,-0.022,0.042,0.024,-0.001,0.023,0.006,-1.536,0.05,2.915,109.23,95.3,40.495842,-3.383637,591.3,4,5,232.4,2.461
109.73,1,-0.04,0.071,0.033,-0.004,0.04,0.028,-1.535,0.049,2.913,109.23,95.3,40.495842,-3.383637,591.3,4,5,232.4,2.461
109.83,1,-0.043,0.097,0.017,-0.06,0.085,0.01,-1.534,0.047,2.912,109.23,95.3,40.495842,-3.383637,591.3,4,5,232.4,2.461
109.93,1,0.012,0.067,-0.0,-0.014,0.075,0.022,-1.534,0.047,2.91,109.23,95.3,40.495842,-3.383637,591.3,4,5,232.4,2.461
110.03,1,0.015,0.053,0.024,0.015,0.061,0.016,-1.537,0.038,2.909,109.23,95.3,40.495842,-3.383637,591.3,4,5,232.4,2.461
110.13,1,0.028,0.027,0.02,0.026,0.042,0.018,-1.535,0.032,2.908,109.23,95.3,40.495842,-3.383637,591.3,4,5,232.4,2.461
