Timestamp_Accel,SystemActivated,accelerometerXAxis,accelerometerYAxis,accelerometerZAxis,AccelX_KF,AccelY_KF,AccelZ_KF,gyroscopeXAxis,gyroscopeYAxis,gyroscopeZAxis,Timestamp_GPS,Speed,latitude,longitude,Altitude,VerticalAccuracy,HorizontalAccuracy,Course,Difcourse
12.75,0,-0.022,0.016,0.065,0.005,0.013,0.072,-1.573,0.008,0.079,12.78,0.0,40.584721,-3.558012,605.2,22,415,-1.0,-1.0
12.85,0,-0.022,0.006,0.067,-0.011,0.012,0.075,-1.583,0.006,0.075,12.78,0.0,40.584721,-3.558012,605.2,22,415,-1.0,-1.0
12.95,0,-0.009,0.057,0.08,-0.019,0.031,0.069,-1.593,-0.002,0.072,12.78,0.0,40.584721,-3.558012,605.2,22,415,-1.0,-1.0
13.05,0,-0.01,0.021,0.07,-0.007,0.034,0.075,-1.595,-0.002,0.068,12.78,0.0,40.584721,-3.558012,605.2,22,415,-1.0,-1.0
13.16,0,0.064,0.016,0.063,0.016,0.018,0.064,-1.597,-0.002,0.065,12.78,0.0,40.584721,-3.558012,605.2,22,415,-1.0,-1.0
13.26,0,0.035,0.003,0.05,0.039,0.013,0.058,-1.6,-0.006,0.061,12.78,0.0,40.584721,-3.558012,605.2,22,415,-1.0,-1.0
13.36,0,0.063,-0.028,0.028,0.051,0.001,0.047,-1.603,-0.007,0.057,12.78,0.0,40.584721,-3.558012,605.2,22,415,-1.0,-1.0
13.45,0,0.001,-0.019,0.075,0.023,-0.027,0.05,-1.608,-0.008,0.054,12.78,0.0,40.584721,-3.558012,605.2,22,415,-1.0,-1.0
13.55,1,0.023,-0.017,0.072,0.029,-0.011,0.072,-1.614,-0.014,0.05,12.78,0.0,40.584721,-3.558012,605.2,22,415,-1.0,-1.0
13.66,1,-0.046,0.016,0.007,-0.008,-0.008,0.046,-1.613,-0.017,0.046,12.78,0.0,40.584721,-3.558012,605.2,22,415,-1.0,-1.0
13.75,1,0.052,0.039,0.084,0.017,0.014,0.052,-1.614,-0.021,0.042,13.77,62.3,40.584423,-3.555086,617.5,24,10,90.4,172.969
13.85,1,-0.063,0.03,-0.03,-0.006,0.033,0.03,-1.616,-0.023,0.037,13.77,62.3,40.584423,-3.555086,617.5,24,10,90.4,172.969
13.96,1,-0.139,0.043,0.004,-0.075,0.038,-0.006,-1.62,-0.024,0.033,13.77,62.3,40.584423,-3.555086,617.5,24,10,90.4,172.969
14.06,1,-0.085,0.057,0.061,-0.101,0.051,0.032,-1.627,-0.024,0.029,13.77,62.3,40.584423,-3.555086,617.5,24,10,90.4,172.969
14.15,1,-0.056,0.059,-0.03,-0.069,0.058,0.017,-1.629,-0.02,0.025,13.77,62.3,40.584423,-3.555086,617.5,24,10,90.4,172.969
14.25,1,0.09,0.046,-0.057,-0.021,0.043,-0.035,-1.625,-0.015,0.02,13.77,62.3,40.584423,-3.555086,617.5,24,10,90.4,172.969
14.36,1,0.048,-0.002,-0.113,0.057,0.018,-0.065,-1.617,-0.013,0.016,13.77,62.3,40.584423,-3.555086,617.5,24,10,90.4,172.969
14.45,1,-0.033,-0.017,-0.094,0.007,0.009,-0.089,-1.602,-0.02,0.011,13.77,62.3,40.584423,-3.555086,617.5,24,10,90.4,172.969
14.55,1,0.08,0.02,-0.078,0.019,0.007,-0.084,-1.592,-0.022,0.005,13.77,62.3,40.584423,-3.555086,617.5,24,10,90.4,172.969
14.65,1,-0.086,0.05,-0.084,0.001,0.023,-0.087,-1.588,-0.023,0.0,13.77,62.3,40.584423,-3.555086,617.5,24,10,90.4,172.969
14.75,1,-0.123,0.007,-0.075,-0.073,0.025,-0.084,-1.587,-0.023,-0.004,14.84,64.0,40.584461,-3.554805,615.9,24,10,90.7,173.32
14.86,1,-0.053,-0.0,-0.038,-0.079,0.01,-0.058,-1.584,-0.025,-0.009,14.84,64.0,40.584461,-3.554805,615.9,24,10,90.7,173.32
14.97,1,-0.051,0.002,-0.045,-0.063,0.005,-0.051,-1.581,-0.027,-0.013,14.84,64.0,40.584461,-3.554805,615.9,24,10,90.7,173.32
15.05,1,0.036,0.022,-0.071,-0.015,0.021,-0.052,-1.577,-0.028,-0.018,14.84,64.0,40.584461,-3.554805,615.9,24,10,90.7,173.32
15.16,1,-0.022,0.003,-0.072,-0.01,0.008,-0.067,-1.573,-0.026,-0.023,14.84,64.0,40.584461,-3.554805,615.9,24,10,90.7,173.32
15.25,1,0.009,0.018,-0.037,-0.006,0.007,-0.057,-1.571,-0.024,-0.027,14.84,64.0,40.584461,-3.554805,615.9,24,10,90.7,173.32
15.35,1,0.018,-0.008,0.02,0.014,0.004,-0.02,-1.576,-0.022,-0.03,14.84,64.0,40.584461,-3.554805,615.9,24,10,90.7,173.32
15.45,1,-0.014,-0.021,-0.022,-0.005,-0.006,-0.015,-1.575,-0.022,-0.033,14.84,64.0,40.584461,-3.554805,615.9,24,10,90.7,173.32
15.55,1,0.039,-0.026,-0.007,0.018,-0.019,-0.014,-1.576,-0.022,-0.035,14.84,64.0,40.584461,-3.554805,615.9,24,10,90.7,173.32
15.65,1,-0.033,-0.043,0.016,0.005,-0.033,-0.004,-1.574,-0.02,-0.038,14.84,64.0,40.584461,-3.554805,615.9,24,10,90.7,173.32
15.76,1,0.039,-0.037,0.049,0.002,-0.038,0.025,-1.575,-0.021,-0.04,15.77,64.8,40.584435,-3.554577,612.4,4,5,94.2,3.867
15.85,1,0.019,-0.079,0.055,0.024,-0.048,0.045,-1.575,-0.023,-0.042,15.77,64.8,40.584435,-3.554577,612.4,4,5,94.2,3.867
15.95,1,0.01,-0.023,0.024,0.008,-0.044,0.041,-1.579,-0.024,-0.044,15.77,64.8,40.584435,-3.554577,612.4,4,5,94.2,3.867
16.05,1,-0.024,0.0,0.02,0.001,-0.027,0.03,-1.581,-0.025,-0.045,15.77,64.8,40.584435,-3.554577,612.4,4,5,94.2,3.867
16.15,1,-0.008,-0.052,0.047,-0.003,-0.026,0.039,-1.581,-0.024,-0.047,15.77,64.8,40.584435,-3.554577,612.4,4,5,94.2,3.867
16.25,1,-0.012,-0.057,0.029,-0.001,-0.041,0.036,-1.582,-0.024,-0.049,15.77,64.8,40.584435,-3.554577,612.4,4,5,94.2,3.867
16.37,1,-0.004,-0.03,0.05,-0.011,-0.048,0.04,-1.583,-0.025,-0.051,15.77,64.8,40.584435,-3.554577,612.4,4,5,94.2,3.867
16.46,1,0.019,-0.02,0.044,0.006,-0.031,0.043,-1.587,-0.026,-0.053,15.77,64.8,40.584435,-3.554577,612.4,4,5,94.2,3.867
16.56,1,-0.034,-0.028,0.021,-0.013,-0.026,0.028,-1.588,-0.026,-0.055,15.77,64.8,40.584435,-3.554577,612.4,4,5,94.2,3.867
16.66,1,0.016,-0.009,0.06,-0.011,-0.017,0.038,-1.588,-0.026,-0.057,15.77,64.8,40.584435,-3.554577,612.4,4,5,94.2,3.867
16.76,1,-0.016,-0.006,0.033,-0.008,-0.023,0.038,-1.587,-0.024,-0.059,16.77,65.3,40.584438,-3.554342,612.5,4,5,94.6,3.867
16.86,1,0.06,-0.052,0.084,0.012,-0.028,0.058,-1.588,-0.023,-0.061,16.77,65.3,40.584438,-3.554342,612.5,4,5,94.6,3.867
16.96,1,-0.08,-0.05,-0.042,0.011,-0.037,0.027,-1.587,-0.021,-0.063,16.77,65.3,40.584438,-3.554342,612.5,4,5,94.6,3.867
17.06,1,0.008,-0.07,0.018,-0.036,-0.048,0.001,-1.583,-0.015,-0.064,16.77,65.3,40.584438,-3.554342,612.5,4,5,94.6,3.867
17.16,1,-0.037,-0.072,0.052,-0.007,-0.066,0.033,-1.585,-0.007,-0.066,16.77,65.3,40.584438,-3.554342,612.5,4,5,94.6,3.867
17.26,1,-0.025,-0.041,0.024,-0.033,-0.059,0.038,-1.592,-0.005,-0.067,16.77,65.3,40.584438,-3.554342,612.5,4,5,94.6,3.867
17.36,1,0.063,-0.024,0.074,0.001,-0.046,0.047,-1.596,-0.006,-0.068,16.77,65.3,40.584438,-3.554342,612.5,4,5,94.6,3.867
17.46,1,0.006,-0.006,0.007,0.037,-0.036,0.055,-1.596,-0.003,-0.069,16.77,65.3,40.584438,-3.554342,612.5,4,5,94.6,3.867
17.56,1,0.095,-0.079,0.003,0.039,-0.019,0.005,-1.595,0.002,-0.069,16.77,65.3,40.584438,-3.554342,612.5,4,5,94.6,3.867
17.66,1,0.028,-0.03,0.003,0.049,-0.046,-0.001,-1.597,0.005,-0.07,16.77,65.3,40.584438,-3.554342,612.5,4,5,94.6,3.867
17.76,1,-0.079,-0.028,-0.012,0.006,-0.037,-0.004,-1.599,0.006,-0.072,17.78,68.6,40.584427,-3.55409,612.3,4,5,94.6,0.352
17.86,1,-0.037,-0.053,0.05,-0.049,-0.043,0.018,-1.607,0.002,-0.074,17.78,68.6,40.584427,-3.55409,612.3,4,5,94.6,0.352
17.96,1,-0.016,0.001,0.003,-0.033,-0.022,0.024,-1.612,-0.002,-0.077,17.78,68.6,40.584427,-3.55409,612.3,4,5,94.6,0.352
18.06,1,-0.002,-0.056,0.018,-0.026,-0.029,0.014,-1.61,0.001,-0.079,17.78,68.6,40.584427,-3.55409,612.3,4,5,94.6,0.352
18.16,1,0.064,-0.033,-0.001,0.036,-0.033,0.01,-1.608,0.002,-0.08,17.78,68.6,40.584427,-3.55409,612.3,4,5,94.6,0.352
18.27,1,0.002,-0.068,-0.021,0.028,-0.056,-0.01,-1.608,0.002,-0.08,17.78,68.6,40.584427,-3.55409,612.3,4,5,94.6,0.352
18.37,1,-0.03,-0.06,0.027,-0.014,-0.062,0.0,-1.611,0.001,-0.08,17.78,68.6,40.584427,-3.55409,612.3,4,5,94.6,0.352
18.46,1,0.029,-0.038,0.039,0.006,-0.049,0.022,-1.616,0.004,-0.08,17.78,68.6,40.584427,-3.55409,612.3,4,5,94.6,0.352
18.56,1,-0.041,-0.015,-0.005,0.005,-0.034,0.023,-1.616,0.002,-0.082,17.78,68.6,40.584427,-3.55409,612.3,4,5,94.6,0.352
18.66,1,0.05,-0.044,0.009,0.001,-0.038,0.007,-1.614,-0.001,-0.083,17.78,68.6,40.584427,-3.55409,612.3,4,5,94.6,0.352
18.77,1,0.023,-0.027,-0.005,0.022,-0.04,0.01,-1.615,-0.002,-0.084,18.76,69.0,40.584404,-3.553859,612.5,4,5,96.0,1.406
18.86,1,0.003,-0.018,-0.001,0.01,-0.021,-0.014,-1.616,-0.003,-0.086,18.76,69.0,40.584404,-3.553859,612.5,4,5,96.0,1.406
18.97,1,0.024,0.008,-0.027,0.011,0.001,-0.009,-1.616,-0.002,-0.087,18.76,69.0,40.584404,-3.553859,612.5,4,5,96.0,1.406
19.06,1,-0.081,-0.047,-0.071,-0.016,-0.029,-0.041,-1.618,-0.002,-0.089,18.76,69.0,40.584404,-3.553859,612.5,4,5,96.0,1.406
19.17,1,-0.036,-0.045,0.011,-0.049,-0.035,-0.028,-1.621,-0.006,-0.09,18.76,69.0,40.584404,-3.553859,612.5,4,5,96.0,1.406
19.26,1,0.027,-0.014,-0.056,-0.003,-0.031,-0.024,-1.619,-0.01,-0.093,18.76,69.0,40.584404,-3.553859,612.5,4,5,96.0,1.406
19.36,1,0.019,-0.002,-0.075,0.017,-0.009,-0.048,-1.617,-0.012,-0.095,18.76,69.0,40.584404,-3.553859,612.5,4,5,96.0,1.406
19.47,1,0.036,-0.012,-0.064,0.016,-0.014,-0.073,-1.613,-0.01,-0.097,18.76,69.0,40.584404,-3.553859,612.5,4,5,96.0,1.406
19.56,1,0.005,-0.024,-0.037,0.008,-0.019,-0.056,-1.614,-0.009,-0.097,18.76,69.0,40.584404,-3.553859,612.5,4,5,96.0,1.406
19.66,1,0.005,-0.056,-0.071,0.011,-0.032,-0.051,-1.612,-0.005,-0.097,18.76,69.0,40.584404,-3.553859,612.5,4,5,96.0,1.406
19.77,1,-0.029,-0.057,-0.032,-0.004,-0.048,-0.048,-1.601,0.007,-0.097,19.76,70.4,40.584393,-3.553643,612.8,4,5,97.4,2.812
19.86,1,0.02,-0.025,-0.002,0.0,-0.044,-0.024,-1.602,0.014,-0.097,19.76,70.4,40.584393,-3.553643,612.8,4,5,97.4,2.812
19.97,1,-0.028,-0.002,-0.044,-0.005,-0.022,-0.032,-1.598,0.015,-0.098,19.76,70.4,40.584393,-3.553643,612.8,4,5,97.4,2.812
20.07,1,0.001,-0.007,-0.009,-0.011,-0.013,-0.02,-1.591,0.015,-0.099,19.76,70.4,40.584393,-3.553643,612.8,4,5,97.4,2.812
20.17,1,-0.007,-0.02,-0.018,0.004,-0.011,-0.018,-1.59,0.016,-0.1,19.76,70.4,40.584393,-3.553643,612.8,4,5,97.4,2.812
20.27,1,-0.056,0.006,-0.04,-0.029,-0.008,-0.027,-1.589,0.018,-0.101,19.76,70.4,40.584393,-3.553643,612.8,4,5,97.4,2.812
20.37,1,0.015,0.014,-0.005,-0.001,0.003,-0.02,-1.59,0.02,-0.102,19.76,70.4,40.584393,-3.553643,612.8,4,5,97.4,2.812
20.47,1,-0.054,0.009,0.023,-0.044,0.001,-0.007,-1.588,0.023,-0.103,19.76,70.4,40.584393,-3.553643,612.8,4,5,97.4,2.812
20.57,1,0.017,-0.037,0.02,-0.025,-0.003,0.01,-1.592,0.023,-0.104,19.76,70.4,40.584393,-3.553643,612.8,4,5,97.4,2.812
20.67,1,-0.048,0.028,0.038,-0.015,-0.003,0.025,-1.595,0.025,-0.105,19.76,70.4,40.584393,-3.553643,612.8,4,5,97.4,2.812
20.78,1,0.034,0.002,0.039,-0.012,0.01,0.036,-1.596,0.025,-0.107,20.8,71.2,40.584385,-3.553407,613.0,4,5,97.7,1.758
20.87,1,0.02,-0.003,0.01,0.022,0.008,0.029,-1.595,0.023,-0.108,20.8,71.2,40.584385,-3.553407,613.0,4,5,97.7,1.758
20.97,1,-0.028,0.023,0.003,-0.009,0.007,0.007,-1.593,0.021,-0.109,20.8,71.2,40.584385,-3.553407,613.0,4,5,97.7,1.758
21.07,1,-0.004,-0.003,0.044,0.019,-0.003,0.022,-1.594,0.02,-0.111,20.8,71.2,40.584385,-3.553407,613.0,4,5,97.7,1.758
21.18,1,-0.085,0.004,0.022,-0.057,0.013,0.028,-1.593,0.019,-0.113,20.8,71.2,40.584385,-3.553407,613.0,4,5,97.7,1.758
21.27,1,0.069,0.015,0.009,-0.002,0.005,0.03,-1.592,0.017,-0.114,20.8,71.2,40.584385,-3.553407,613.0,4,5,97.7,1.758
21.38,1,-0.055,0.002,0.006,-0.013,0.013,0.017,-1.592,0.017,-0.116,20.8,71.2,40.584385,-3.553407,613.0,4,5,97.7,1.758
21.49,1,0.036,0.017,0.055,0.005,0.011,0.024,-1.595,0.015,-0.117,20.8,71.2,40.584385,-3.553407,613.0,4,5,97.7,1.758
21.57,1,-0.173,-0.008,0.017,-0.066,0.002,0.024,-1.598,0.018,-0.118,20.8,71.2,40.584385,-3.553407,613.0,4,5,97.7,1.758
21.67,1,-0.006,0.004,0.01,-0.081,-0.013,0.013,-1.602,0.026,-0.119,20.8,71.2,40.584385,-3.553407,613.0,4,5,97.7,1.758
21.77,1,-0.007,-0.021,0.015,-0.018,0.007,0.026,-1.604,0.027,-0.121,21.84,72.2,40.584358,-3.553171,613.3,4,5,97.7,0.352
21.98,1,0.02,-0.016,0.007,0.005,-0.001,-0.011,-1.605,0.031,-0.122,21.84,72.2,40.584358,-3.553171,613.3,4,5,97.7,0.352
22.07,1,-0.041,-0.056,-0.008,-0.005,-0.033,0.004,-1.606,0.031,-0.121,21.84,72.2,40.584358,-3.553171,613.3,4,5,97.7,0.352
22.17,1,0.038,-0.035,0.001,-0.014,-0.034,-0.003,-1.605,0.028,-0.121,21.84,72.2,40.584358,-3.553171,613.3,4,5,97.7,0.352
22.27,1,-0.074,0.01,-0.016,-0.016,-0.021,-0.009,-1.603,0.024,-0.122,21.84,72.2,40.584358,-3.553171,613.3,4,5,97.7,0.352
22.38,1,0.055,0.014,-0.011,0.007,0.005,-0.01,-1.597,0.023,-0.123,21.84,72.2,40.584358,-3.553171,613.3,4,5,97.7,0.352
22.47,1,0.003,-0.002,-0.007,0.021,0.007,-0.012,-1.596,0.023,-0.123,21.84,72.2,40.584358,-3.553171,613.3,4,5,97.7,0.352
22.58,1,0.003,0.003,0.012,0.011,-0.001,0.008,-1.591,0.022,-0.124,21.84,72.2,40.584358,-3.553171,613.3,4,5,97.7,0.352
22.68,1,-0.041,0.0,-0.033,-0.019,0.001,-0.014,-1.597,0.017,-0.125,21.84,72.2,40.584358,-3.553171,613.3,4,5,97.7,0.352
22.78,1,-0.046,-0.055,-0.047,-0.046,-0.014,-0.031,-1.597,0.015,-0.126,21.84,72.2,40.584358,-3.553171,613.3,4,5,97.7,0.352
22.87,1,-0.067,0.05,-0.027,-0.039,-0.007,-0.036,-1.6,0.014,-0.127,22.77,74.0,40.58432,-3.552937,613.6,3,5,98.8,1.055
22.97,1,0.032,0.004,0.05,-0.024,0.014,0.001,-1.602,0.012,-0.129,22.77,74.0,40.58432,-3.552937,613.6,3,5,98.8,1.055
23.07,1,-0.13,0.086,0.003,-0.052,0.041,0.018,-1.602,0.011,-0.13,22.77,74.0,40.58432,-3.552937,613.6,3,5,98.8,1.055
23.17,1,0.112,-0.014,0.039,-0.008,0.03,0.018,-1.6,0.011,-0.131,22.77,74.0,40.58432,-3.552937,613.6,3,5,98.8,1.055
23.27,1,-0.058,0.011,0.007,0.009,0.007,0.022,-1.601,0.012,-0.133,22.77,74.0,40.58432,-3.552937,613.6,3,5,98.8,1.055
23.37,1,-0.043,0.029,0.034,-0.034,0.018,0.023,-1.602,0.011,-0.134,22.77,74.0,40.58432,-3.552937,613.6,3,5,98.8,1.055
23.47,1,0.019,-0.006,0.032,-0.021,0.009,0.028,-1.604,0.008,-0.135,22.77,74.0,40.58432,-3.552937,613.6,3,5,98.8,1.055
23.58,1,0.062,0.024,0.048,0.035,0.009,0.038,-1.604,0.004,-0.137,22.77,74.0,40.58432,-3.552937,613.6,3,5,98.8,1.055
23.67,1,-0.067,-0.004,-0.039,0.008,0.011,0.009,-1.6,0.005,-0.139,22.77,74.0,40.58432,-3.552937,613.6,3,5,98.8,1.055
23.77,1,-0.05,0.004,0.001,-0.053,0.004,-0.001,-1.598,0.001,-0.141,22.77,74.0,40.58432,-3.552937,613.6,3,5,98.8,1.055
23.88,1,-0.063,0.044,0.024,-0.03,0.021,0.01,-1.605,-0.006,-0.144,23.83,75.3,40.584282,-3.552697,613.7,3,5,99.5,1.758
23.97,1,-0.174,0.092,-0.002,-0.132,0.058,0.002,-1.608,-0.008,-0.148,23.83,75.3,40.584282,-3.552697,613.7,3,5,99.5,1.758
24.08,1,0.088,0.037,-0.005,-0.028,0.05,-0.002,-1.61,-0.011,-0.153,23.83,75.3,40.584282,-3.552697,613.7,3,5,99.5,1.758
24.18,1,-0.034,0.079,-0.002,-0.028,0.051,-0.009,-1.612,-0.017,-0.157,23.83,75.3,40.584282,-3.552697,613.7,3,5,99.5,1.758
24.28,1,-0.02,0.021,-0.015,-0.009,0.06,-0.003,-1.609,-0.021,-0.161,23.83,75.3,40.584282,-3.552697,613.7,3,5,99.5,1.758
24.38,1,0.052,0.043,0.015,0.008,0.042,0.0,-1.609,-0.02,-0.164,23.83,75.3,40.584282,-3.552697,613.7,3,5,99.5,1.758
24.48,1,-0.003,0.042,0.006,0.017,0.042,0.012,-1.607,-0.019,-0.169,23.83,75.3,40.584282,-3.552697,613.7,3,5,99.5,1.758
24.58,1,0.023,0.063,0.007,0.007,0.048,0.006,-1.607,-0.022,-0.173,23.83,75.3,40.584282,-3.552697,613.7,3,5,99.5,1.758
24.68,1,-0.008,0.05,0.005,0.02,0.061,0.013,-1.6,-0.025,-0.177,23.83,75.3,40.584282,-3.552697,613.7,3,5,99.5,1.758
24.78,1,0.073,0.057,-0.004,0.027,0.051,-0.002,-1.599,-0.029,-0.182,23.83,75.3,40.584282,-3.552697,613.7,3,5,99.5,1.758
24.88,1,-0.008,0.044,-0.003,0.035,0.05,-0.002,-1.602,-0.037,-0.186,24.76,77.1,40.584248,-3.552446,613.8,3,5,100.5,1.758
24.98,1,-0.044,0.036,0.006,-0.026,0.042,-0.003,-1.604,-0.039,-0.191,24.76,77.1,40.584248,-3.552446,613.8,3,5,100.5,1.758
25.08,1,-0.031,0.04,-0.007,-0.019,0.041,0.002,-1.606,-0.043,-0.195,24.76,77.1,40.584248,-3.552446,613.8,3,5,100.5,1.758
25.18,1,-0.075,0.024,0.014,-0.051,0.033,0.002,-1.611,-0.051,-0.2,24.76,77.1,40.584248,-3.552446,613.8,3,5,100.5,1.758
25.28,1,-0.024,0.045,-0.012,-0.043,0.035,0.001,-1.611,-0.056,-0.204,24.76,77.1,40.584248,-3.552446,613.8,3,5,100.5,1.758
25.38,1,0.004,0.039,0.012,-0.026,0.036,0.004,-1.614,-0.061,-0.209,24.76,77.1,40.584248,-3.552446,613.8,3,5,100.5,1.758
25.48,1,0.026,0.032,0.019,0.002,0.037,0.006,-1.614,-0.062,-0.212,24.76,77.1,40.584248,-3.552446,613.8,3,5,100.5,1.758
25.58,1,-0.016,-0.02,-0.03,0.01,0.016,-0.001,-1.613,-0.059,-0.215,24.76,77.1,40.584248,-3.552446,613.8,3,5,100.5,1.758
25.68,1,-0.026,-0.045,-0.035,-0.015,-0.018,-0.02,-1.613,-0.057,-0.218,24.76,77.1,40.584248,-3.552446,613.8,3,5,100.5,1.758
25.78,1,-0.018,-0.046,0.004,-0.02,-0.038,-0.014,-1.618,-0.055,-0.22,24.76,77.1,40.584248,-3.552446,613.8,3,5,100.5,1.758
25.88,1,-0.017,-0.028,0.017,-0.017,-0.033,-0.001,-1.623,-0.055,-0.222,25.79,78.6,40.584198,-3.552193,614.5,3,5,102.7,3.164
25.98,1,-0.038,-0.036,-0.033,-0.02,-0.029,-0.002,-1.623,-0.055,-0.224,25.79,78.6,40.584198,-3.552193,614.5,3,5,102.7,3.164
26.08,1,-0.006,-0.038,-0.048,-0.024,-0.036,-0.036,-1.619,-0.052,-0.225,25.79,78.6,40.584198,-3.552193,614.5,3,5,102.7,3.164
26.19,1,0.013,-0.04,-0.028,-0.006,-0.043,-0.032,-1.62,-0.05,-0.227,25.79,78.6,40.584198,-3.552193,614.5,3,5,102.7,3.164
26.28,1,0.02,-0.024,0.009,0.012,-0.034,-0.015,-1.626,-0.047,-0.229,25.79,78.6,40.584198,-3.552193,614.5,3,5,102.7,3.164
26.38,1,0.029,-0.013,-0.001,0.018,-0.025,-0.001,-1.626,-0.046,-0.231,25.79,78.6,40.584198,-3.552193,614.5,3,5,102.7,3.164
26.48,1,-0.033,-0.044,-0.041,0.008,-0.031,-0.018,-1.626,-0.043,-0.232,25.79,78.6,40.584198,-3.552193,614.5,3,5,102.7,3.164
26.58,1,-0.001,-0.079,0.001,-0.008,-0.049,-0.022,-1.627,-0.042,-0.233,25.79,78.6,40.584198,-3.552193,614.5,3,5,102.7,3.164
26.68,1,-0.003,-0.044,-0.018,-0.006,-0.058,-0.008,-1.629,-0.038,-0.233,25.79,78.6,40.584198,-3.552193,614.5,3,5,102.7,3.164
26.79,1,-0.039,-0.053,-0.064,-0.025,-0.05,-0.036,-1.629,-0.03,-0.233,25.79,78.6,40.584198,-3.552193,614.5,3,5,102.7,3.164
26.88,1,-0.018,-0.053,-0.015,-0.02,-0.053,-0.034,-1.626,-0.023,-0.234,26.75,80.5,40.584145,-3.551936,614.7,3,5,104.8,4.219
26.99,1,-0.005,-0.027,-0.024,-0.006,-0.039,-0.022,-1.629,-0.018,-0.234,26.75,80.5,40.584145,-3.551936,614.7,3,5,104.8,4.219
27.08,1,-0.041,-0.058,-0.012,-0.033,-0.047,-0.019,-1.629,-0.016,-0.235,26.75,80.5,40.584145,-3.551936,614.7,3,5,104.8,4.219
27.19,1,0.012,-0.026,-0.032,-0.011,-0.045,-0.025,-1.627,-0.014,-0.235,26.75,80.5,40.584145,-3.551936,614.7,3,5,104.8,4.219
27.28,1,0.011,0.009,-0.036,0.006,-0.009,-0.029,-1.626,-0.014,-0.235,26.75,80.5,40.584145,-3.551936,614.7,3,5,104.8,4.219
27.39,1,-0.009,-0.029,-0.054,-0.005,-0.019,-0.047,-1.626,-0.01,-0.235,26.75,80.5,40.584145,-3.551936,614.7,3,5,104.8,4.219
27.48,1,0.014,-0.018,-0.039,-0.001,-0.025,-0.038,-1.628,-0.007,-0.236,26.75,80.5,40.584145,-3.551936,614.7,3,5,104.8,4.219
27.59,1,-0.007,0.002,-0.045,0.002,-0.009,-0.047,-1.624,-0.008,-0.237,26.75,80.5,40.584145,-3.551936,614.7,3,5,104.8,4.219
27.69,1,0.034,-0.023,-0.004,0.015,-0.012,-0.024,-1.625,-0.012,-0.239,26.75,80.5,40.584145,-3.551936,614.7,3,5,104.8,4.219
27.79,1,-0.017,0.008,-0.05,0.006,-0.007,-0.031,-1.625,-0.015,-0.242,26.75,80.5,40.584145,-3.551936,614.7,3,5,104.8,4.219
27.89,1,0.015,0.021,-0.023,0.004,0.004,-0.04,-1.625,-0.018,-0.244,27.76,82.2,40.584084,-3.551679,615.2,3,5,105.8,0.0
27.99,1,-0.063,0.051,-0.029,-0.024,0.028,-0.026,-1.623,-0.02,-0.247,27.76,82.2,40.584084,-3.551679,615.2,3,5,105.8,0.0
28.09,1,-0.006,0.044,-0.004,-0.026,0.042,-0.018,-1.626,-0.025,-0.251,27.76,82.2,40.584084,-3.551679,615.2,3,5,105.8,0.0
28.19,1,-0.001,0.075,-0.0,-0.007,0.06,-0.008,-1.626,-0.032,-0.256,27.76,82.2,40.584084,-3.551679,615.2,3,5,105.8,0.0
28.29,1,-0.082,0.038,-0.002,-0.036,0.055,-0.002,-1.624,-0.04,-0.26,27.76,82.2,40.584084,-3.551679,615.2,3,5,105.8,0.0
28.39,1,-0.023,0.045,-0.003,-0.037,0.042,-0.001,-1.622,-0.043,-0.265,27.76,82.2,40.584084,-3.551679,615.2,3,5,105.8,0.0
28.49,1,-0.051,0.066,-0.001,-0.044,0.056,-0.005,-1.621,-0.044,-0.269,27.76,82.2,40.584084,-3.551679,615.2,3,5,105.8,0.0
28.6,1,0.01,0.015,0.017,-0.019,0.037,0.01,-1.621,-0.049,-0.273,27.76,82.2,40.584084,-3.551679,615.2,3,5,105.8,0.0
28.69,1,0.01,0.007,-0.009,0.0,0.02,0.002,-1.62,-0.048,-0.276,27.76,82.2,40.584084,-3.551679,615.2,3,5,105.8,0.0
28.79,1,-0.01,0.006,-0.005,-0.002,0.011,-0.006,-1.619,-0.047,-0.28,27.76,82.2,40.584084,-3.551679,615.2,3,5,105.8,0.0
28.89,1,-0.058,0.006,0.001,-0.028,0.003,-0.003,-1.62,-0.048,-0.284,28.76,83.7,40.584026,-3.551416,615.7,3,5,106.9,1.055
28.99,1,-0.096,0.037,0.013,-0.069,0.024,0.005,-1.623,-0.051,-0.287,28.76,83.7,40.584026,-3.551416,615.7,3,5,106.9,1.055
29.09,1,0.003,-0.005,-0.008,-0.045,0.018,0.001,-1.622,-0.053,-0.289,28.76,83.7,40.584026,-3.551416,615.7,3,5,106.9,1.055
29.19,1,-0.044,-0.005,0.004,-0.031,0.002,0.002,-1.619,-0.051,-0.29,28.76,83.7,40.584026,-3.551416,615.7,3,5,106.9,1.055
29.29,1,0.035,-0.039,0.0,-0.01,-0.016,0.001,-1.617,-0.045,-0.291,28.76,83.7,40.584026,-3.551416,615.7,3,5,106.9,1.055
29.4,1,-0.007,-0.037,-0.022,0.007,-0.028,-0.01,-1.615,-0.036,-0.291,28.76,83.7,40.584026,-3.551416,615.7,3,5,106.9,1.055
29.49,1,-0.041,-0.069,-0.001,-0.019,-0.047,-0.014,-1.615,-0.031,-0.292,28.76,83.7,40.584026,-3.551416,615.7,3,5,106.9,1.055
29.59,1,0.025,-0.047,0.013,-0.009,-0.056,0.004,-1.617,-0.03,-0.293,28.76,83.7,40.584026,-3.551416,615.7,3,5,106.9,1.055
29.69,1,0.011,0.004,0.001,0.005,-0.03,0.01,-1.619,-0.029,-0.293,28.76,83.7,40.584026,-3.551416,615.7,3,5,106.9,1.055
29.79,1,0.024,-0.022,-0.025,0.024,-0.017,-0.006,-1.617,-0.026,-0.294,28.76,83.7,40.584026,-3.551416,615.7,3,5,106.9,1.055
29.9,1,-0.025,-0.035,-0.008,0.009,-0.021,-0.013,-1.615,-0.023,-0.295,29.82,85.4,40.583958,-3.551145,616.0,3,5,109.3,3.516
30.0,1,0.028,0.001,0.015,0.004,-0.025,-0.007,-1.614,-0.022,-0.296,29.82,85.4,40.583958,-3.551145,616.0,3,5,109.3,3.516
30.1,1,-0.08,-0.001,0.01,-0.03,-0.007,0.004,-1.618,-0.026,-0.297,29.82,85.4,40.583958,-3.551145,616.0,3,5,109.3,3.516
30.19,1,-0.047,-0.004,-0.0,-0.048,-0.001,0.012,-1.618,-0.025,-0.299,29.82,85.4,40.583958,-3.551145,616.0,3,5,109.3,3.516
30.29,1,-0.029,0.028,0.024,-0.039,0.012,0.011,-1.616,-0.023,-0.3,29.82,85.4,40.583958,-3.551145,616.0,3,5,109.3,3.516
30.39,1,0.023,0.016,0.028,-0.01,0.014,0.025,-1.613,-0.023,-0.302,29.82,85.4,40.583958,-3.551145,616.0,3,5,109.3,3.516
30.49,1,-0.029,0.023,-0.026,-0.013,0.017,0.003,-1.612,-0.023,-0.303,29.82,85.4,40.583958,-3.551145,616.0,3,5,109.3,3.516
30.6,1,-0.014,0.02,0.035,-0.026,0.024,0.007,-1.614,-0.021,-0.305,29.82,85.4,40.583958,-3.551145,616.0,3,5,109.3,3.516
30.69,1,0.016,0.019,0.01,0.012,0.019,0.02,-1.615,-0.021,-0.307,29.82,85.4,40.583958,-3.551145,616.0,3,5,109.3,3.516
30.79,1,-0.058,0.009,-0.028,-0.027,0.015,-0.004,-1.614,-0.023,-0.309,29.82,85.4,40.583958,-3.551145,616.0,3,5,109.3,3.516
30.89,1,0.071,0.011,0.01,0.019,0.008,-0.005,-1.614,-0.024,-0.311,30.76,87.1,40.583878,-3.550879,616.3,3,5,110.7,3.867
30.99,1,-0.016,0.031,0.004,0.013,0.021,0.002,-1.614,-0.026,-0.313,30.76,87.1,40.583878,-3.550879,616.3,3,5,110.7,3.867
31.1,1,0.017,0.03,0.009,0.007,0.03,0.004,-1.614,-0.027,-0.315,30.76,87.1,40.583878,-3.550879,616.3,3,5,110.7,3.867
31.19,1,-0.073,0.035,0.027,-0.022,0.03,0.015,-1.616,-0.027,-0.317,30.76,87.1,40.583878,-3.550879,616.3,3,5,110.7,3.867
31.3,1,-0.029,0.027,-0.003,-0.047,0.028,0.012,-1.616,-0.029,-0.319,30.76,87.1,40.583878,-3.550879,616.3,3,5,110.7,3.867
31.39,1,-0.04,-0.011,-0.04,-0.04,0.011,-0.015,-1.614,-0.033,-0.321,30.76,87.1,40.583878,-3.550879,616.3,3,5,110.7,3.867
31.49,1,0.063,0.016,-0.078,0.004,0.008,-0.038,-1.609,-0.035,-0.323,30.76,87.1,40.583878,-3.550879,616.3,3,5,110.7,3.867
31.6,1,-0.032,0.002,-0.105,0.0,0.01,-0.082,-1.602,-0.036,-0.325,30.76,87.1,40.583878,-3.550879,616.3,3,5,110.7,3.867
31.7,1,0.008,0.004,-0.075,-0.0,0.003,-0.085,-1.592,-0.037,-0.328,30.76,87.1,40.583878,-3.550879,616.3,3,5,110.7,3.867
31.8,1,-0.102,0.003,-0.076,-0.031,0.006,-0.08,-1.589,-0.039,-0.33,30.76,87.1,40.583878,-3.550879,616.3,3,5,110.7,3.867
31.9,1,-0.045,0.032,-0.042,-0.058,0.015,-0.06,-1.586,-0.041,-0.332,31.82,88.9,40.583794,-3.550609,616.6,3,5,112.1,2.812
32.0,1,0.022,-0.001,-0.071,-0.036,0.014,-0.064,-1.582,-0.041,-0.334,31.82,88.9,40.583794,-3.550609,616.6,3,5,112.1,2.812
32.1,1,-0.032,0.028,-0.086,-0.011,0.014,-0.071,-1.58,-0.043,-0.336,31.82,88.9,40.583794,-3.550609,616.6,3,5,112.1,2.812
32.2,1,-0.13,-0.005,-0.054,-0.062,0.012,-0.068,-1.58,-0.042,-0.337,31.82,88.9,40.583794,-3.550609,616.6,3,5,112.1,2.812
32.3,1,0.027,-0.003,-0.037,-0.056,-0.001,-0.054,-1.578,-0.041,-0.339,31.82,88.9,40.583794,-3.550609,616.6,3,5,112.1,2.812
32.4,1,0.056,-0.002,-0.07,0.012,-0.002,-0.052,-1.576,-0.038,-0.34,31.82,88.9,40.583794,-3.550609,616.6,3,5,112.1,2.812
32.51,1,-0.041,-0.023,-0.059,0.003,-0.011,-0.063,-1.572,-0.036,-0.342,31.82,88.9,40.583794,-3.550609,616.6,3,5,112.1,2.812
32.6,1,0.002,-0.015,-0.086,0.003,-0.012,-0.067,-1.562,-0.038,-0.343,31.82,88.9,40.583794,-3.550609,616.6,3,5,112.1,2.812
32.7,1,-0.041,-0.016,-0.08,-0.019,-0.018,-0.085,-1.55,-0.036,-0.343,31.82,88.9,40.583794,-3.550609,616.6,3,5,112.1,2.812
32.8,1,-0.035,-0.009,-0.026,-0.04,-0.011,-0.058,-1.549,-0.037,-0.343,31.82,88.9,40.583794,-3.550609,616.6,3,5,112.1,2.812
32.91,1,0.003,-0.043,-0.022,-0.007,-0.024,-0.037,-1.545,-0.034,-0.344,32.77,89.4,40.583702,-3.550339,617.0,3,5,113.9,3.164
33.01,1,0.0,-0.02,0.003,-0.005,-0.026,-0.019,-1.545,-0.036,-0.344,32.77,89.4,40.583702,-3.550339,617.0,3,5,113.9,3.164
33.1,1,0.024,-0.028,0.031,0.005,-0.026,0.011,-1.549,-0.034,-0.344,32.77,89.4,40.583702,-3.550339,617.0,3,5,113.9,3.164
33.2,1,-0.01,-0.033,0.034,0.012,-0.027,0.026,-1.552,-0.029,-0.344,32.77,89.4,40.583702,-3.550339,617.0,3,5,113.9,3.164
33.3,1,0.014,-0.018,0.018,-0.001,-0.025,0.021,-1.556,-0.028,-0.344,32.77,89.4,40.583702,-3.550339,617.0,3,5,113.9,3.164
33.4,1,-0.031,-0.014,0.024,-0.003,-0.016,0.028,-1.556,-0.026,-0.345,32.77,89.4,40.583702,-3.550339,617.0,3,5,113.9,3.164
33.5,1,-0.033,-0.029,0.059,-0.028,-0.019,0.036,-1.558,-0.021,-0.345,32.77,89.4,40.583702,-3.550339,617.0,3,5,113.9,3.164
33.6,1,-0.002,-0.013,0.053,-0.012,-0.023,0.049,-1.561,-0.019,-0.346,32.77,89.4,40.583702,-3.550339,617.0,3,5,113.9,3.164
33.72,1,-0.01,-0.009,0.04,-0.014,-0.016,0.049,-1.563,-0.02,-0.346,32.77,89.4,40.583702,-3.550339,617.0,3,5,113.9,3.164
33.8,1,0.008,-0.012,0.023,-0.001,-0.013,0.033,-1.564,-0.02,-0.346,32.77,89.4,40.583702,-3.550339,617.0,3,5,113.9,3.164
33.9,1,-0.04,-0.011,0.011,-0.015,-0.015,0.025,-1.567,-0.016,-0.346,33.81,87.9,40.583607,-3.550081,617.0,3,5,115.3,3.164
34.0,1,-0.039,-0.032,0.021,-0.029,-0.019,0.019,-1.567,-0.016,-0.346,33.81,87.9,40.583607,-3.550081,617.0,3,5,115.3,3.164
34.1,1,0.027,0.006,0.026,-0.013,-0.01,0.023,-1.568,-0.017,-0.346,33.81,87.9,40.583607,-3.550081,617.0,3,5,115.3,3.164
34.21,1,0.014,-0.035,0.018,0.005,-0.02,0.021,-1.569,-0.015,-0.347,33.81,87.9,40.583607,-3.550081,617.0,3,5,115.3,3.164
34.3,1,-0.005,0.018,-0.003,-0.007,-0.014,0.011,-1.569,-0.014,-0.347,33.81,87.9,40.583607,-3.550081,617.0,3,5,115.3,3.164
34.41,1,0.016,0.014,0.027,0.017,0.011,0.013,-1.57,-0.015,-0.348,33.81,87.9,40.583607,-3.550081,617.0,3,5,115.3,3.164
34.5,1,-0.019,0.056,0.024,-0.003,0.03,0.021,-1.571,-0.017,-0.349,33.81,87.9,40.583607,-3.550081,617.0,3,5,115.3,3.164
34.6,1,-0.004,0.012,-0.018,-0.01,0.026,0.01,-1.571,-0.021,-0.35,33.81,87.9,40.583607,-3.550081,617.0,3,5,115.3,3.164
34.7,1,-0.121,-0.007,0.022,-0.048,0.008,0.005,-1.572,-0.024,-0.351,33.81,87.9,40.583607,-3.550081,617.0,3,5,115.3,3.164
34.8,1,0.037,-0.004,0.023,-0.025,0.004,0.021,-1.573,-0.025,-0.352,33.81,87.9,40.583607,-3.550081,617.0,3,5,115.3,3.164
34.9,1,0.033,-0.005,0.015,0.009,-0.001,0.014,-1.572,-0.026,-0.353,34.75,88.2,40.583508,-3.549819,617.6,3,5,116.4,2.461
35.0,1,-0.055,0.017,0.014,-0.011,0.005,0.014,-1.573,-0.03,-0.354,34.75,88.2,40.583508,-3.549819,617.6,3,5,116.4,2.461
35.11,1,0.003,0.0,0.035,-0.028,0.008,0.02,-1.575,-0.034,-0.355,34.75,88.2,40.583508,-3.549819,617.6,3,5,116.4,2.461
35.21,1,0.024,-0.001,0.025,0.012,-0.003,0.031,-1.575,-0.036,-0.357,34.75,88.2,40.583508,-3.549819,617.6,3,5,116.4,2.461
35.31,1,-0.006,0.046,0.004,0.007,0.021,0.015,-1.576,-0.037,-0.359,34.75,88.2,40.583508,-3.549819,617.6,3,5,116.4,2.461
35.41,1,0.002,-0.005,0.035,-0.003,0.018,0.022,-1.58,-0.037,-0.361,34.75,88.2,40.583508,-3.549819,617.6,3,5,116.4,2.461
35.51,1,0.017,0.026,0.0,0.015,0.017,0.017,-1.581,-0.038,-0.362,34.75,88.2,40.583508,-3.549819,617.6,3,5,116.4,2.461
35.61,1,0.016,0.05,-0.026,0.007,0.034,-0.004,-1.578,-0.04,-0.364,34.75,88.2,40.583508,-3.549819,617.6,3,5,116.4,2.461
35.71,1,-0.05,0.046,-0.048,-0.004,0.042,-0.023,-1.576,-0.04,-0.366,34.75,88.2,40.583508,-3.549819,617.6,3,5,116.4,2.461
35.81,1,-0.096,0.034,-0.053,-0.058,0.035,-0.046,-1.573,-0.039,-0.368,34.75,88.2,40.583508,-3.549819,617.6,3,5,116.4,2.461
35.91,1,-0.02,0.046,-0.029,-0.047,0.039,-0.04,-1.571,-0.043,-0.37,35.77,89.2,40.583401,-3.549566,618.1,3,5,117.8,2.461
36.01,1,-0.047,0.028,-0.04,-0.047,0.036,-0.037,-1.565,-0.045,-0.372,35.77,89.2,40.583401,-3.549566,618.1,3,5,117.8,2.461
36.12,1,-0.003,0.05,-0.035,-0.028,0.041,-0.04,-1.564,-0.049,-0.375,35.77,89.2,40.583401,-3.549566,618.1,3,5,117.8,2.461
36.22,1,0.028,0.044,-0.065,-0.001,0.045,-0.046,-1.56,-0.053,-0.378,35.77,89.2,40.583401,-3.549566,618.1,3,5,117.8,2.461
36.32,1,0.023,0.03,-0.074,0.018,0.04,-0.062,-1.553,-0.057,-0.381,35.77,89.2,40.583401,-3.549566,618.1,3,5,117.8,2.461
36.41,1,-0.02,0.021,-0.05,0.005,0.026,-0.057,-1.551,-0.058,-0.384,35.77,89.2,40.583401,-3.549566,618.1,3,5,117.8,2.461
36.51,1,-0.029,0.035,-0.054,-0.019,0.028,-0.057,-1.548,-0.06,-0.386,35.77,89.2,40.583401,-3.549566,618.1,3,5,117.8,2.461
36.61,1,-0.035,0.031,-0.041,-0.026,0.033,-0.049,-1.545,-0.06,-0.388,35.77,89.2,40.583401,-3.549566,618.1,3,5,117.8,2.461
36.71,1,-0.008,0.015,-0.041,-0.026,0.029,-0.046,-1.541,-0.063,-0.39,35.77,89.2,40.583401,-3.549566,618.1,3,5,117.8,2.461
36.82,1,0.027,0.033,-0.057,0.004,0.029,-0.048,-1.537,-0.063,-0.393,35.77,89.2,40.583401,-3.549566,618.1,3,5,117.8,2.461
36.91,1,-0.045,0.012,-0.062,-0.004,0.017,-0.055,-1.537,-0.063,-0.395,36.76,89.6,40.583286,-3.549311,618.2,3,5,119.5,3.164
37.01,1,-0.015,0.005,-0.038,-0.027,0.014,-0.049,-1.537,-0.066,-0.397,36.76,89.6,40.583286,-3.549311,618.2,3,5,119.5,3.164
37.11,1,0.039,-0.015,-0.046,0.01,-0.002,-0.049,-1.533,-0.064,-0.398,36.76,89.6,40.583286,-3.549311,618.2,3,5,119.5,3.164
37.21,1,-0.02,-0.028,-0.03,-0.001,-0.013,-0.037,-1.53,-0.061,-0.398,36.76,89.6,40.583286,-3.549311,618.2,3,5,119.5,3.164
37.31,1,0.026,-0.032,-0.035,0.018,-0.027,-0.036,-1.529,-0.058,-0.398,36.76,89.6,40.583286,-3.549311,618.2,3,5,119.5,3.164
37.41,1,-0.039,-0.033,-0.036,-0.012,-0.027,-0.034,-1.529,-0.054,-0.398,36.76,89.6,40.583286,-3.549311,618.2,3,5,119.5,3.164
37.52,1,0.019,-0.033,-0.03,-0.007,-0.031,-0.032,-1.529,-0.049,-0.398,36.76,89.6,40.583286,-3.549311,618.2,3,5,119.5,3.164
37.61,1,-0.011,-0.025,-0.041,0.001,-0.03,-0.037,-1.526,-0.042,-0.398,36.76,89.6,40.583286,-3.549311,618.2,3,5,119.5,3.164
37.71,1,-0.001,-0.034,-0.02,-0.006,-0.038,-0.03,-1.524,-0.036,-0.398,36.76,89.6,40.583286,-3.549311,618.2,3,5,119.5,3.164
37.81,1,0.009,-0.018,-0.001,-0.002,-0.026,-0.021,-1.523,-0.037,-0.398,36.76,89.6,40.583286,-3.549311,618.2,3,5,119.5,3.164
37.91,1,-0.016,-0.041,0.002,-0.001,-0.027,0.002,-1.525,-0.036,-0.397,37.76,87.9,40.583164,-3.549064,618.2,3,5,122.0,4.219
38.01,1,0.012,-0.046,0.008,0.002,-0.04,-0.005,-1.526,-0.035,-0.396,37.76,87.9,40.583164,-3.549064,618.2,3,5,122.0,4.219
38.11,1,-0.014,-0.048,0.024,0.002,-0.045,0.011,-1.53,-0.031,-0.395,37.76,87.9,40.583164,-3.549064,618.2,3,5,122.0,4.219
38.21,1,-0.029,-0.032,0.018,-0.021,-0.038,0.018,-1.533,-0.028,-0.394,37.76,87.9,40.583164,-3.549064,618.2,3,5,122.0,4.219
38.31,1,0.013,-0.046,0.015,-0.005,-0.036,0.016,-1.535,-0.026,-0.393,37.76,87.9,40.583164,-3.549064,618.2,3,5,122.0,4.219
38.41,1,-0.038,-0.032,-0.003,-0.012,-0.042,0.008,-1.535,-0.023,-0.392,37.76,87.9,40.583164,-3.549064,618.2,3,5,122.0,4.219
38.52,1,-0.009,-0.038,0.024,-0.019,-0.04,0.015,-1.535,-0.02,-0.391,37.76,87.9,40.583164,-3.549064,618.2,3,5,122.0,4.219
38.61,1,-0.013,-0.035,0.007,-0.02,-0.041,0.011,-1.536,-0.017,-0.39,37.76,87.9,40.583164,-3.549064,618.2,3,5,122.0,4.219
38.72,1,-0.021,-0.04,0.033,-0.016,-0.033,0.02,-1.537,-0.009,-0.389,37.76,87.9,40.583164,-3.549064,618.2,3,5,122.0,4.219
38.81,1,-0.028,-0.03,0.014,-0.023,-0.035,0.021,-1.541,-0.006,-0.388,37.76,87.9,40.583164,-3.549064,618.2,3,5,122.0,4.219
38.92,1,0.004,-0.011,0.043,-0.016,-0.024,0.028,-1.544,-0.005,-0.387,38.76,86.0,40.583042,-3.548828,618.2,3,5,123.8,4.219
39.01,1,0.006,0.017,0.031,-0.003,-0.002,0.029,-1.547,-0.004,-0.386,38.76,86.0,40.583042,-3.548828,618.2,3,5,123.8,4.219
39.11,1,-0.035,0.006,0.057,-0.012,0.007,0.041,-1.549,-0.004,-0.385,38.76,86.0,40.583042,-3.548828,618.2,3,5,123.8,4.219
39.22,1,-0.02,0.014,0.021,-0.013,0.012,0.041,-1.552,-0.005,-0.386,38.76,86.0,40.583042,-3.548828,618.2,3,5,123.8,4.219
39.32,1,-0.063,-0.006,0.043,-0.037,0.008,0.038,-1.555,-0.008,-0.387,38.76,86.0,40.583042,-3.548828,618.2,3,5,123.8,4.219
39.43,1,-0.004,0.071,0.071,-0.038,0.027,0.051,-1.557,-0.008,-0.388,38.76,86.0,40.583042,-3.548828,618.2,3,5,123.8,4.219
39.52,1,-0.004,0.077,0.07,-0.005,0.055,0.066,-1.556,-0.01,-0.39,38.76,86.0,40.583042,-3.548828,618.2,3,5,123.8,4.219
39.62,1,0.038,0.089,0.016,0.012,0.07,0.043,-1.555,-0.013,-0.392,38.76,86.0,40.583042,-3.548828,618.2,3,5,123.8,4.219
39.72,1,-0.066,0.071,0.024,-0.017,0.076,0.028,-1.557,-0.018,-0.394,38.76,86.0,40.583042,-3.548828,618.2,3,5,123.8,4.219
39.82,1,0.008,0.019,0.024,-0.019,0.052,0.03,-1.563,-0.023,-0.396,38.76,86.0,40.583042,-3.548828,618.2,3,5,123.8,4.219
39.92,1,-0.01,0.052,0.02,-0.012,0.046,0.019,-1.565,-0.028,-0.399,39.75,85.3,40.582924,-3.548599,618.1,3,5,124.5,2.461
40.02,1,-0.023,0.019,0.01,-0.014,0.038,0.015,-1.566,-0.032,-0.4,39.75,85.3,40.582924,-3.548599,618.1,3,5,124.5,2.461
40.12,1,-0.024,0.03,0.03,-0.023,0.031,0.019,-1.57,-0.033,-0.402,39.75,85.3,40.582924,-3.548599,618.1,3,5,124.5,2.461
40.22,1,0.037,0.04,0.009,-0.004,0.032,0.02,-1.573,-0.038,-0.403,39.75,85.3,40.582924,-3.548599,618.1,3,5,124.5,2.461
40.32,1,0.022,0.032,-0.01,0.023,0.029,0.011,-1.571,-0.041,-0.405,39.75,85.3,40.582924,-3.548599,618.1,3,5,124.5,2.461
40.42,1,0.008,0.022,-0.008,0.019,0.032,-0.008,-1.572,-0.042,-0.407,39.75,85.3,40.582924,-3.548599,618.1,3,5,124.5,2.461
40.52,1,-0.036,-0.027,0.005,-0.007,0.014,-0.006,-1.575,-0.039,-0.408,39.75,85.3,40.582924,-3.548599,618.1,3,5,124.5,2.461
40.62,1,-0.014,0.004,0.031,-0.016,-0.004,0.014,-1.579,-0.036,-0.407,39.75,85.3,40.582924,-3.548599,618.1,3,5,124.5,2.461
40.72,1,0.027,-0.024,-0.001,0.002,-0.014,0.012,-1.578,-0.034,-0.407,39.75,85.3,40.582924,-3.548599,618.1,3,5,124.5,2.461
40.82,1,0.018,-0.03,-0.012,0.016,-0.023,0.004,-1.577,-0.03,-0.407,39.75,85.3,40.582924,-3.548599,618.1,3,5,124.5,2.461
40.92,1,0.017,-0.008,-0.001,0.018,-0.02,-0.002,-1.575,-0.029,-0.407,40.79,85.8,40.582794,-3.548377,618.4,3,5,126.2,2.461
41.02,1,-0.036,-0.012,-0.009,-0.006,-0.01,-0.006,-1.574,-0.028,-0.407,40.79,85.8,40.582794,-3.548377,618.4,3,5,126.2,2.461
41.12,1,-0.038,0.01,0.032,-0.034,-0.005,0.007,-1.575,-0.026,-0.407,40.79,85.8,40.582794,-3.548377,618.4,3,5,126.2,2.461
41.22,1,0.002,0.015,-0.016,-0.015,0.003,0.005,-1.578,-0.026,-0.407,40.79,85.8,40.582794,-3.548377,618.4,3,5,126.2,2.461
41.32,1,0.011,-0.008,0.014,-0.004,0.004,0.004,-1.577,-0.026,-0.408,40.79,85.8,40.582794,-3.548377,618.4,3,5,126.2,2.461
41.42,1,0.004,-0.018,0.038,0.009,-0.006,0.016,-1.579,-0.025,-0.408,40.79,85.8,40.582794,-3.548377,618.4,3,5,126.2,2.461
41.52,1,0.052,0.04,0.001,0.02,0.007,0.016,-1.582,-0.026,-0.408,40.79,85.8,40.582794,-3.548377,618.4,3,5,126.2,2.461
41.62,1,0.023,0.012,-0.01,0.024,0.015,0.001,-1.582,-0.026,-0.408,40.79,85.8,40.582794,-3.548377,618.4,3,5,126.2,2.461
41.72,1,0.001,0.01,-0.011,0.017,0.018,-0.0,-1.584,-0.026,-0.408,40.79,85.8,40.582794,-3.548377,618.4,3,5,126.2,2.461
41.83,1,0.008,0.005,-0.009,0.014,0.011,-0.011,-1.583,-0.026,-0.408,40.79,85.8,40.582794,-3.548377,618.4,3,5,126.2,2.461
41.92,1,0.031,-0.001,-0.023,0.013,-0.001,-0.011,-1.582,-0.025,-0.409,41.76,86.8,40.582661,-3.548153,619.2,3,5,128.0,3.516
42.02,1,0.029,-0.006,0.004,0.033,-0.004,-0.011,-1.581,-0.028,-0.409,41.76,86.8,40.582661,-3.548153,619.2,3,5,128.0,3.516
42.12,1,-0.03,-0.015,-0.021,0.006,-0.004,-0.012,-1.578,-0.028,-0.409,41.76,86.8,40.582661,-3.548153,619.2,3,5,128.0,3.516
42.22,1,-0.042,-0.005,-0.013,-0.021,-0.013,-0.01,-1.58,-0.026,-0.409,41.76,86.8,40.582661,-3.548153,619.2,3,5,128.0,3.516
42.33,1,-0.019,0.005,0.007,-0.021,-0.0,-0.009,-1.581,-0.025,-0.408,41.76,86.8,40.582661,-3.548153,619.2,3,5,128.0,3.516
42.43,1,-0.036,0.021,0.037,-0.039,0.014,0.012,-1.582,-0.025,-0.408,41.76,86.8,40.582661,-3.548153,619.2,3,5,128.0,3.516
42.53,1,-0.031,-0.01,0.011,-0.029,0.005,0.02,-1.584,-0.027,-0.409,41.76,86.8,40.582661,-3.548153,619.2,3,5,128.0,3.516
42.63,1,-0.006,0.0,0.06,-0.015,-0.004,0.03,-1.581,-0.029,-0.409,41.76,86.8,40.582661,-3.548153,619.2,3,5,128.0,3.516
42.72,1,-0.012,-0.011,-0.021,-0.022,-0.005,0.025,-1.581,-0.027,-0.408,41.76,86.8,40.582661,-3.548153,619.2,3,5,128.0,3.516
42.82,1,-0.038,-0.01,-0.002,-0.02,-0.01,-0.001,-1.58,-0.027,-0.408,41.76,86.8,40.582661,-3.548153,619.2,3,5,128.0,3.516
42.93,1,0.027,-0.006,-0.026,-0.001,-0.007,-0.016,-1.58,-0.027,-0.408,42.8,87.7,40.58252,-3.547934,619.2,3,5,129.4,3.164
43.03,1,-0.014,0.006,0.002,-0.011,-0.005,-0.007,-1.579,-0.029,-0.408,42.8,87.7,40.58252,-3.547934,619.2,3,5,129.4,3.164
43.12,1,-0.004,0.003,0.014,-0.004,0.006,0.001,-1.581,-0.033,-0.409,42.8,87.7,40.58252,-3.547934,619.2,3,5,129.4,3.164
43.23,1,-0.018,-0.013,-0.024,-0.015,-0.007,-0.005,-1.582,-0.034,-0.409,42.8,87.7,40.58252,-3.547934,619.2,3,5,129.4,3.164
43.33,1,-0.056,-0.05,0.011,-0.034,-0.02,-0.001,-1.582,-0.034,-0.41,42.8,87.7,40.58252,-3.547934,619.2,3,5,129.4,3.164
43.43,1,0.006,0.027,-0.007,-0.014,-0.01,-0.002,-1.581,-0.035,-0.41,42.8,87.7,40.58252,-3.547934,619.2,3,5,129.4,3.164
43.53,1,-0.005,-0.008,0.04,-0.006,0.001,0.017,-1.575,-0.035,-0.409,42.8,87.7,40.58252,-3.547934,619.2,3,5,129.4,3.164
43.63,1,-0.074,-0.017,-0.004,-0.038,-0.011,0.011,-1.576,-0.034,-0.409,42.8,87.7,40.58252,-3.547934,619.2,3,5,129.4,3.164
43.74,1,-0.059,-0.041,0.028,-0.057,-0.023,0.017,-1.575,-0.036,-0.408,42.8,87.7,40.58252,-3.547934,619.2,3,5,129.4,3.164
43.84,1,0.04,-0.025,0.028,-0.011,-0.024,0.019,-1.576,-0.038,-0.408,42.8,87.7,40.58252,-3.547934,619.2,3,5,129.4,3.164
43.93,1,0.029,-0.02,0.009,0.011,-0.031,0.023,-1.572,-0.036,-0.407,43.76,88.5,40.582371,-3.547712,619.8,3,5,130.8,2.812
44.03,1,0.022,-0.033,0.012,0.018,-0.031,0.011,-1.572,-0.034,-0.406,43.76,88.5,40.582371,-3.547712,619.8,3,5,130.8,2.812
44.13,1,0.013,-0.035,0.002,0.019,-0.029,0.006,-1.572,-0.034,-0.406,43.76,88.5,40.582371,-3.547712,619.8,3,5,130.8,2.812
44.23,1,-0.01,-0.018,0.028,0.013,-0.029,0.016,-1.57,-0.029,-0.405,43.76,88.5,40.582371,-3.547712,619.8,3,5,130.8,2.812
44.33,1,-0.048,0.013,-0.008,-0.021,-0.004,0.012,-1.572,-0.027,-0.405,43.76,88.5,40.582371,-3.547712,619.8,3,5,130.8,2.812
44.43,1,0.029,-0.007,0.037,-0.008,0.0,0.013,-1.572,-0.026,-0.405,43.76,88.5,40.582371,-3.547712,619.8,3,5,130.8,2.812
44.53,1,-0.049,-0.009,0.015,-0.012,-0.008,0.024,-1.573,-0.026,-0.405,43.76,88.5,40.582371,-3.547712,619.8,3,5,130.8,2.812
44.63,1,0.004,-0.005,-0.04,-0.021,-0.002,-0.007,-1.571,-0.025,-0.405,43.76,88.5,40.582371,-3.547712,619.8,3,5,130.8,2.812
44.73,1,0.004,-0.003,-0.038,-0.002,-0.011,-0.022,-1.568,-0.026,-0.405,43.76,88.5,40.582371,-3.547712,619.8,3,5,130.8,2.812
44.83,1,-0.062,-0.008,-0.049,-0.02,-0.002,-0.039,-1.562,-0.029,-0.404,43.76,88.5,40.582371,-3.547712,619.8,3,5,130.8,2.812
44.94,1,0.017,-0.001,-0.038,-0.021,-0.009,-0.044,-1.56,-0.031,-0.404,44.75,89.2,40.582218,-3.547497,619.7,3,5,131.8,2.461
45.03,1,0.02,-0.014,-0.056,-0.002,-0.007,-0.046,-1.554,-0.03,-0.404,44.75,89.2,40.582218,-3.547497,619.7,3,5,131.8,2.461
45.13,1,-0.002,-0.014,-0.053,0.012,-0.01,-0.052,-1.549,-0.029,-0.404,44.75,89.2,40.582218,-3.547497,619.7,3,5,131.8,2.461
45.23,1,-0.111,-0.036,-0.074,-0.038,-0.018,-0.058,-1.546,-0.026,-0.404,44.75,89.2,40.582218,-3.547497,619.7,3,5,131.8,2.461
45.33,1,0.028,0.032,-0.048,-0.03,-0.005,-0.053,-1.547,-0.03,-0.403,44.75,89.2,40.582218,-3.547497,619.7,3,5,131.8,2.461
45.44,1,-0.009,0.032,-0.033,-0.008,0.018,-0.047,-1.547,-0.031,-0.403,44.75,89.2,40.582218,-3.547497,619.7,3,5,131.8,2.461
45.53,1,0.022,0.01,-0.015,-0.001,0.017,-0.032,-1.543,-0.029,-0.403,44.75,89.2,40.582218,-3.547497,619.7,3,5,131.8,2.461
45.63,1,0.03,0.005,-0.048,0.023,0.01,-0.037,-1.54,-0.028,-0.402,44.75,89.2,40.582218,-3.547497,619.7,3,5,131.8,2.461
45.73,1,-0.039,0.017,-0.057,-0.004,0.017,-0.045,-1.534,-0.027,-0.402,44.75,89.2,40.582218,-3.547497,619.7,3,5,131.8,2.461
45.83,1,-0.02,0.013,-0.015,-0.019,0.009,-0.04,-1.533,-0.027,-0.401,44.75,89.2,40.582218,-3.547497,619.7,3,5,131.8,2.461
45.93,1,0.002,-0.011,-0.063,-0.018,0.004,-0.042,-1.532,-0.03,-0.4,45.8,89.3,40.582066,-3.547287,619.7,3,5,133.2,2.461
46.03,1,0.008,0.0,-0.006,-0.002,-0.004,-0.033,-1.53,-0.032,-0.4,45.8,89.3,40.582066,-3.547287,619.7,3,5,133.2,2.461
46.13,1,0.042,-0.005,-0.037,0.019,-0.001,-0.026,-1.528,-0.03,-0.399,45.8,89.3,40.582066,-3.547287,619.7,3,5,133.2,2.461
46.23,1,0.02,0.002,-0.003,0.031,0.003,-0.019,-1.531,-0.026,-0.398,45.8,89.3,40.582066,-3.547287,619.7,3,5,133.2,2.461
46.33,1,-0.012,-0.04,-0.028,0.009,-0.015,-0.022,-1.528,-0.024,-0.397,45.8,89.3,40.582066,-3.547287,619.7,3,5,133.2,2.461
46.43,1,-0.014,-0.061,-0.002,-0.006,-0.044,-0.013,-1.529,-0.019,-0.394,45.8,89.3,40.582066,-3.547287,619.7,3,5,133.2,2.461
46.53,1,-0.024,-0.015,0.047,-0.013,-0.033,0.011,-1.53,-0.019,-0.392,45.8,89.3,40.582066,-3.547287,619.7,3,5,133.2,2.461
46.63,1,0.056,-0.015,0.049,0.026,-0.022,0.04,-1.529,-0.016,-0.39,45.8,89.3,40.582066,-3.547287,619.7,3,5,133.2,2.461
46.73,1,0.024,-0.038,0.04,0.024,-0.025,0.035,-1.53,-0.012,-0.388,45.8,89.3,40.582066,-3.547287,619.7,3,5,133.2,2.461
46.84,1,-0.009,-0.047,0.043,0.005,-0.038,0.042,-1.537,-0.004,-0.386,45.8,89.3,40.582066,-3.547287,619.7,3,5,133.2,2.461
46.94,1,0.0,-0.038,0.057,-0.0,-0.038,0.044,-1.543,-0.001,-0.382,46.76,86.7,40.581905,-3.547087,619.9,3,5,134.6,2.812
47.03,1,-0.006,-0.039,0.029,-0.005,-0.04,0.043,-1.544,0.003,-0.379,46.76,86.7,40.581905,-3.547087,619.9,3,5,134.6,2.812
47.13,1,-0.058,-0.049,0.048,-0.023,-0.048,0.043,-1.547,0.005,-0.376,46.76,86.7,40.581905,-3.547087,619.9,3,5,134.6,2.812
47.23,1,-0.002,-0.039,0.021,-0.036,-0.045,0.037,-1.548,0.008,-0.373,46.76,86.7,40.581905,-3.547087,619.9,3,5,134.6,2.812
47.34,1,0.07,-0.032,0.063,0.025,-0.033,0.044,-1.548,0.008,-0.369,46.76,86.7,40.581905,-3.547087,619.9,3,5,134.6,2.812
47.44,1,-0.078,-0.048,0.047,0.005,-0.04,0.049,-1.548,0.008,-0.366,46.76,86.7,40.581905,-3.547087,619.9,3,5,134.6,2.812
47.54,1,-0.061,-0.014,0.026,-0.05,-0.03,0.038,-1.549,0.01,-0.363,46.76,86.7,40.581905,-3.547087,619.9,3,5,134.6,2.812
47.64,1,0.027,-0.056,0.039,-0.028,-0.037,0.039,-1.551,0.011,-0.359,46.76,86.7,40.581905,-3.547087,619.9,3,5,134.6,2.812
47.74,1,-0.03,-0.035,0.021,-0.003,-0.04,0.029,-1.55,0.011,-0.356,46.76,86.7,40.581905,-3.547087,619.9,3,5,134.6,2.812
47.84,1,0.012,-0.038,0.034,0.001,-0.036,0.03,-1.55,0.013,-0.352,46.76,86.7,40.581905,-3.547087,619.9,3,5,134.6,2.812
47.94,1,0.021,-0.014,0.037,0.001,-0.03,0.032,-1.55,0.015,-0.349,47.76,87.2,40.581753,-3.546878,620.2,3,5,134.3,1.055
48.04,1,0.066,-0.029,0.029,0.028,-0.026,0.032,-1.552,0.016,-0.346,47.76,87.2,40.581753,-3.546878,620.2,3,5,134.3,1.055
48.14,1,-0.047,-0.013,0.022,0.009,-0.024,0.031,-1.555,0.013,-0.344,47.76,87.2,40.581753,-3.546878,620.2,3,5,134.3,1.055
48.24,1,0.048,-0.008,0.055,0.013,-0.015,0.042,-1.558,0.011,-0.341,47.76,87.2,40.581753,-3.546878,620.2,3,5,134.3,1.055
48.34,1,-0.072,-0.01,-0.0,-0.021,-0.007,0.026,-1.555,0.011,-0.338,47.76,87.2,40.581753,-3.546878,620.2,3,5,134.3,1.055
48.44,1,-0.049,0.02,0.006,-0.033,0.003,0.013,-1.555,0.01,-0.336,47.76,87.2,40.581753,-3.546878,620.2,3,5,134.3,1.055
48.55,1,-0.072,-0.009,0.023,-0.061,0.001,0.014,-1.556,0.009,-0.333,47.76,87.2,40.581753,-3.546878,620.2,3,5,134.3,1.055
48.64,1,-0.045,-0.018,-0.001,-0.046,-0.007,0.005,-1.553,0.009,-0.331,47.76,87.2,40.581753,-3.546878,620.2,3,5,134.3,1.055
48.74,1,-0.033,-0.002,-0.005,-0.051,-0.011,-0.001,-1.551,0.008,-0.328,47.76,87.2,40.581753,-3.546878,620.2,3,5,134.3,1.055
48.85,1,-0.022,0.009,-0.017,-0.039,-0.002,-0.006,-1.55,0.009,-0.326,47.76,87.2,40.581753,-3.546878,620.2,3,5,134.3,1.055
48.94,1,0.022,0.019,-0.044,0.002,0.012,-0.021,-1.546,0.011,-0.324,48.78,87.8,40.581608,-3.546663,620.4,3,5,133.6,1.055
49.04,1,-0.018,-0.005,-0.059,-0.004,0.005,-0.046,-1.54,0.01,-0.322,48.78,87.8,40.581608,-3.546663,620.4,3,5,133.6,1.055
49.14,1,0.081,-0.024,-0.031,0.033,-0.009,-0.04,-1.541,0.008,-0.32,48.78,87.8,40.581608,-3.546663,620.4,3,5,133.6,1.055
49.24,1,0.025,-0.02,-0.056,0.036,-0.015,-0.044,-1.543,0.004,-0.318,48.78,87.8,40.581608,-3.546663,620.4,3,5,133.6,1.055
49.35,1,0.038,0.018,-0.035,0.025,-0.004,-0.041,-1.54,0.002,-0.316,48.78,87.8,40.581608,-3.546663,620.4,3,5,133.6,1.055
49.44,1,0.041,0.021,-0.054,0.036,0.011,-0.044,-1.535,0.001,-0.314,48.78,87.8,40.581608,-3.546663,620.4,3,5,133.6,1.055
49.54,1,0.037,-0.001,-0.036,0.045,0.007,-0.05,-1.535,0.001,-0.312,48.78,87.8,40.581608,-3.546663,620.4,3,5,133.6,1.055
49.65,1,0.03,-0.003,-0.035,0.031,0.001,-0.037,-1.532,0.004,-0.311,48.78,87.8,40.581608,-3.546663,620.4,3,5,133.6,1.055
49.74,1,0.015,0.015,-0.053,0.032,0.006,-0.043,-1.528,0.004,-0.31,48.78,87.8,40.581608,-3.546663,620.4,3,5,133.6,1.055
49.84,1,-0.021,0.034,-0.053,0.004,0.02,-0.05,-1.524,0.002,-0.309,48.78,87.8,40.581608,-3.546663,620.4,3,5,133.6,1.055
49.95,1,0.026,0.023,-0.018,0.004,0.023,-0.042,-1.523,-0.0,-0.308,49.77,87.2,40.581455,-3.546454,620.3,3,5,133.6,0.703
50.04,1,0.014,0.024,-0.017,0.017,0.025,-0.024,-1.522,-0.001,-0.307,49.77,87.2,40.581455,-3.546454,620.3,3,5,133.6,0.703
50.14,1,0.008,0.012,0.023,0.011,0.018,-0.001,-1.524,-0.002,-0.307,49.77,87.2,40.581455,-3.546454,620.3,3,5,133.6,0.703
50.24,1,0.034,0.023,0.025,0.013,0.017,0.013,-1.526,-0.003,-0.306,49.77,87.2,40.581455,-3.546454,620.3,3,5,133.6,0.703
50.35,1,0.022,0.01,0.027,0.027,0.016,0.02,-1.53,-0.007,-0.305,49.77,87.2,40.581455,-3.546454,620.3,3,5,133.6,0.703
50.44,1,-0.019,0.041,0.031,0.002,0.025,0.025,-1.532,-0.011,-0.305,49.77,87.2,40.581455,-3.546454,620.3,3,5,133.6,0.703
50.55,1,0.038,0.012,0.043,0.013,0.025,0.038,-1.535,-0.011,-0.304,49.77,87.2,40.581455,-3.546454,620.3,3,5,133.6,0.703
50.65,1,-0.009,-0.004,0.048,0.013,0.015,0.04,-1.536,-0.011,-0.303,49.77,87.2,40.581455,-3.546454,620.3,3,5,133.6,0.703
50.75,1,-0.01,0.006,0.045,0.006,0.005,0.041,-1.537,-0.009,-0.302,49.77,87.2,40.581455,-3.546454,620.3,3,5,133.6,0.703
50.84,1,0.002,0.003,0.045,-0.004,0.005,0.047,-1.541,-0.009,-0.3,49.77,87.2,40.581455,-3.546454,620.3,3,5,133.6,0.703
50.94,1,0.008,0.006,0.067,0.004,0.004,0.055,-1.548,-0.008,-0.3,50.83,86.3,40.58131,-3.546249,620.5,3,5,133.9,0.352
51.05,1,-0.007,-0.006,0.046,0.002,-0.0,0.053,-1.552,-0.007,-0.298,50.83,86.3,40.58131,-3.546249,620.5,3,5,133.9,0.352
51.15,1,-0.081,0.008,0.028,-0.038,-0.001,0.043,-1.554,-0.007,-0.297,50.83,86.3,40.58131,-3.546249,620.5,3,5,133.9,0.352
51.26,1,-0.067,-0.018,0.047,-0.057,-0.003,0.038,-1.556,-0.004,-0.296,50.83,86.3,40.58131,-3.546249,620.5,3,5,133.9,0.352
51.34,1,-0.023,-0.019,0.031,-0.049,-0.016,0.04,-1.558,-0.003,-0.294,50.83,86.3,40.58131,-3.546249,620.5,3,5,133.9,0.352
51.45,1,-0.043,-0.004,0.019,-0.039,-0.009,0.026,-1.56,-0.004,-0.293,50.83,86.3,40.58131,-3.546249,620.5,3,5,133.9,0.352
51.55,1,-0.045,-0.001,0.008,-0.044,0.0,0.021,-1.562,-0.007,-0.292,50.83,86.3,40.58131,-3.546249,620.5,3,5,133.9,0.352
51.65,1,0.007,0.017,0.037,-0.023,0.002,0.022,-1.567,-0.008,-0.291,50.83,86.3,40.58131,-3.546249,620.5,3,5,133.9,0.352
51.75,1,-0.009,-0.014,0.027,-0.011,-0.002,0.029,-1.57,-0.004,-0.29,50.83,86.3,40.58131,-3.546249,620.5,3,5,133.9,0.352
51.86,1,0.014,-0.025,0.024,0.005,-0.012,0.027,-1.57,-0.003,-0.289,50.83,86.3,40.58131,-3.546249,620.5,3,5,133.9,0.352
51.96,1,-0.053,-0.017,0.014,-0.019,-0.019,0.017,-1.571,-0.004,-0.287,51.79,86.6,40.581158,-3.546045,620.9,3,5,134.3,0.703
52.05,1,-0.038,0.006,-0.003,-0.033,-0.011,0.011,-1.574,-0.005,-0.286,51.79,86.6,40.581158,-3.546045,620.9,3,5,134.3,0.703
52.15,1,-0.028,-0.026,0.017,-0.038,-0.011,0.014,-1.578,-0.003,-0.285,51.79,86.6,40.581158,-3.546045,620.9,3,5,134.3,0.703
52.25,1,0.005,-0.028,0.03,-0.015,-0.023,0.018,-1.579,-0.0,-0.283,51.79,86.6,40.581158,-3.546045,620.9,3,5,134.3,0.703
52.35,1,-0.027,-0.018,0.008,-0.013,-0.017,0.014,-1.582,0.0,-0.282,51.79,86.6,40.581158,-3.546045,620.9,3,5,134.3,0.703
52.46,1,-0.004,0.004,-0.004,-0.019,-0.013,0.011,-1.58,0.003,-0.281,51.79,86.6,40.581158,-3.546045,620.9,3,5,134.3,0.703
52.55,1,0.006,-0.005,0.018,0.002,-0.006,0.012,-1.58,0.003,-0.279,51.79,86.6,40.581158,-3.546045,620.9,3,5,134.3,0.703
52.65,1,-0.055,0.008,0.013,-0.021,0.001,0.008,-1.581,0.003,-0.278,51.79,86.6,40.581158,-3.546045,620.9,3,5,134.3,0.703
52.75,1,-0.017,-0.008,0.023,-0.03,0.005,0.02,-1.581,0.007,-0.276,51.79,86.6,40.581158,-3.546045,620.9,3,5,134.3,0.703
52.85,1,-0.035,-0.025,-0.015,-0.03,-0.012,0.006,-1.582,0.011,-0.274,51.79,86.6,40.581158,-3.546045,620.9,3,5,134.3,0.703
52.95,1,-0.051,-0.025,0.003,-0.04,-0.02,-0.003,-1.581,0.012,-0.272,52.76,87.4,40.581005,-3.545839,621.0,3,5,134.3,0.352
53.05,1,-0.01,-0.004,-0.033,-0.042,-0.016,-0.013,-1.58,0.017,-0.27,52.76,87.4,40.581005,-3.545839,621.0,3,5,134.3,0.352
53.15,1,-0.011,-0.008,-0.008,-0.009,-0.011,-0.018,-1.577,0.02,-0.268,52.76,87.4,40.581005,-3.545839,621.0,3,5,134.3,0.352
53.25,1,0.018,-0.015,-0.014,-0.009,-0.009,-0.011,-1.576,0.021,-0.267,52.76,87.4,40.581005,-3.545839,621.0,3,5,134.3,0.352
53.35,1,-0.008,0.002,-0.032,0.011,-0.008,-0.022,-1.572,0.021,-0.266,52.76,87.4,40.581005,-3.545839,621.0,3,5,134.3,0.352
53.45,1,-0.055,0.02,-0.029,-0.023,0.006,-0.022,-1.57,0.018,-0.266,52.76,87.4,40.581005,-3.545839,621.0,3,5,134.3,0.352
53.56,1,0.009,0.052,-0.028,-0.018,0.026,-0.031,-1.57,0.016,-0.265,52.76,87.4,40.581005,-3.545839,621.0,3,5,134.3,0.352
53.65,1,-0.087,0.064,-0.021,-0.037,0.051,-0.029,-1.571,0.014,-0.265,52.76,87.4,40.581005,-3.545839,621.0,3,5,134.3,0.352
53.77,1,0.018,0.037,-0.011,-0.032,0.045,-0.016,-1.572,0.016,-0.264,52.76,87.4,40.581005,-3.545839,621.0,3,5,134.3,0.352
53.86,1,0.002,0.01,-0.037,-0.004,0.023,-0.025,-1.572,0.01,-0.264,52.76,87.4,40.581005,-3.545839,621.0,3,5,134.3,0.352
53.95,1,0.007,0.061,-0.033,0.0,0.039,-0.035,-1.571,0.006,-0.264,53.76,87.4,40.580856,-3.545637,621.6,3,5,133.9,0.352
54.05,1,0.013,0.024,-0.005,-0.0,0.041,-0.018,-1.569,0.006,-0.264,53.76,87.4,40.580856,-3.545637,621.6,3,5,133.9,0.352
54.15,1,-0.03,0.035,-0.054,-0.003,0.029,-0.031,-1.566,0.003,-0.264,53.76,87.4,40.580856,-3.545637,621.6,3,5,133.9,0.352
54.25,1,0.028,0.007,-0.005,0.001,0.028,-0.025,-1.565,0.001,-0.263,53.76,87.4,40.580856,-3.545637,621.6,3,5,133.9,0.352
54.36,1,-0.045,0.009,-0.005,-0.012,0.015,-0.012,-1.567,-0.001,-0.262,53.76,87.4,40.580856,-3.545637,621.6,3,5,133.9,0.352
54.45,1,0.012,-0.01,-0.017,-0.01,0.0,-0.015,-1.564,-0.001,-0.26,53.76,87.4,40.580856,-3.545637,621.6,3,5,133.9,0.352
54.55,1,0.052,-0.024,-0.016,0.023,-0.014,-0.013,-1.564,-0.001,-0.258,53.76,87.4,40.580856,-3.545637,621.6,3,5,133.9,0.352
54.65,1,-0.027,0.001,0.006,0.006,-0.007,-0.009,-1.563,-0.001,-0.256,53.76,87.4,40.580856,-3.545637,621.6,3,5,133.9,0.352
54.75,1,0.061,-0.03,-0.022,0.025,-0.011,-0.008,-1.565,-0.001,-0.254,53.76,87.4,40.580856,-3.545637,621.6,3,5,133.9,0.352
54.85,1,0.003,-0.015,-0.055,0.028,-0.019,-0.028,-1.564,0.001,-0.252,53.76,87.4,40.580856,-3.545637,621.6,3,5,133.9,0.352
54.96,1,0.016,-0.013,0.012,0.009,-0.016,-0.022,-1.563,0.006,-0.25,54.84,87.0,40.580708,-3.545434,622.1,3,5,134.3,0.352
55.05,1,-0.011,-0.044,-0.023,0.003,-0.026,-0.016,-1.565,0.007,-0.248,54.84,87.0,40.580708,-3.545434,622.1,3,5,134.3,0.352
55.15,1,-0.027,-0.019,-0.022,-0.01,-0.031,-0.019,-1.565,0.01,-0.245,54.84,87.0,40.580708,-3.545434,622.1,3,5,134.3,0.352
55.25,1,-0.0,-0.04,-0.004,-0.012,-0.027,-0.015,-1.565,0.01,-0.242,54.84,87.0,40.580708,-3.545434,622.1,3,5,134.3,0.352
55.36,1,0.017,-0.029,-0.015,0.015,-0.034,-0.008,-1.561,0.012,-0.239,54.84,87.0,40.580708,-3.545434,622.1,3,5,134.3,0.352
55.46,1,-0.006,-0.055,-0.007,-0.006,-0.041,-0.014,-1.561,0.015,-0.237,54.84,87.0,40.580708,-3.545434,622.1,3,5,134.3,0.352
55.56,1,0.061,-0.01,-0.032,0.025,-0.032,-0.018,-1.557,0.015,-0.234,54.84,87.0,40.580708,-3.545434,622.1,3,5,134.3,0.352
55.66,1,-0.022,-0.033,0.006,0.01,-0.025,-0.011,-1.554,0.014,-0.231,54.84,87.0,40.580708,-3.545434,622.1,3,5,134.3,0.352
55.76,1,0.03,-0.033,-0.005,0.012,-0.033,-0.004,-1.555,0.014,-0.228,54.84,87.0,40.580708,-3.545434,622.1,3,5,134.3,0.352
55.86,1,-0.071,-0.019,-0.019,-0.018,-0.027,-0.011,-1.554,0.013,-0.225,54.84,87.0,40.580708,-3.545434,622.1,3,5,134.3,0.352
55.96,1,-0.017,-0.036,0.003,-0.032,-0.025,-0.008,-1.555,0.011,-0.224,55.75,86.4,40.580559,-3.545226,622.3,3,5,133.9,0.352
56.06,1,-0.035,0.002,0.016,-0.026,-0.019,0.008,-1.555,0.009,-0.222,55.75,86.4,40.580559,-3.545226,622.3,3,5,133.9,0.352
56.16,1,-0.022,-0.007,-0.021,-0.024,-0.011,-0.005,-1.551,0.006,-0.22,55.75,86.4,40.580559,-3.545226,622.3,3,5,133.9,0.352
56.27,1,0.047,0.002,-0.014,0.002,-0.001,-0.013,-1.547,0.005,-0.219,55.75,86.4,40.580559,-3.545226,622.3,3,5,133.9,0.352
56.36,1,0.014,-0.018,-0.019,0.023,-0.012,-0.015,-1.547,0.004,-0.217,55.75,86.4,40.580559,-3.545226,622.3,3,5,133.9,0.352
56.46,1,-0.001,-0.016,-0.005,0.007,-0.014,-0.011,-1.549,0.003,-0.216,55.75,86.4,40.580559,-3.545226,622.3,3,5,133.9,0.352
56.56,1,-0.001,-0.001,0.012,-0.001,-0.007,-0.0,-1.552,0.003,-0.214,55.75,86.4,40.580559,-3.545226,622.3,3,5,133.9,0.352
56.66,1,-0.014,0.006,0.016,-0.001,0.001,0.006,-1.551,-0.0,-0.212,55.75,86.4,40.580559,-3.545226,622.3,3,5,133.9,0.352
56.77,1,0.004,0.039,0.036,-0.0,0.016,0.022,-1.553,-0.004,-0.211,55.75,86.4,40.580559,-3.545226,622.3,3,5,133.9,0.352
56.87,1,-0.009,-0.009,0.051,-0.003,0.01,0.038,-1.556,-0.003,-0.21,55.75,86.4,40.580559,-3.545226,622.3,3,5,133.9,0.352
56.97,1,-0.001,-0.009,0.04,-0.007,-0.005,0.039,-1.56,-0.002,-0.209,56.78,86.6,40.580406,-3.545016,622.7,3,5,133.2,1.055
57.06,1,-0.059,-0.033,0.069,-0.022,-0.014,0.055,-1.558,-0.001,-0.207,56.78,86.6,40.580406,-3.545016,622.7,3,5,133.2,1.055
57.16,1,-0.037,0.017,0.028,-0.039,-0.003,0.049,-1.558,-0.0,-0.206,56.78,86.6,40.580406,-3.545016,622.7,3,5,133.2,1.055
57.26,1,-0.004,0.018,0.037,-0.025,0.008,0.037,-1.558,-0.002,-0.204,56.78,86.6,40.580406,-3.545016,622.7,3,5,133.2,1.055
57.36,1,-0.056,-0.02,0.028,-0.037,-0.003,0.039,-1.563,-0.003,-0.203,56.78,86.6,40.580406,-3.545016,622.7,3,5,133.2,1.055
57.46,1,0.031,-0.01,0.011,-0.012,-0.008,0.023,-1.568,-0.005,-0.202,56.78,86.6,40.580406,-3.545016,622.7,3,5,133.2,1.055
57.56,1,0.021,-0.025,-0.02,0.016,-0.016,-0.001,-1.568,-0.004,-0.2,56.78,86.6,40.580406,-3.545016,622.7,3,5,133.2,1.055
57.66,1,0.001,-0.001,-0.018,0.014,-0.01,-0.016,-1.566,-0.001,-0.198,56.78,86.6,40.580406,-3.545016,622.7,3,5,133.2,1.055
57.76,1,0.003,-0.002,0.006,-0.0,-0.007,-0.005,-1.564,-0.001,-0.197,56.78,86.6,40.580406,-3.545016,622.7,3,5,133.2,1.055
57.86,1,0.015,0.015,-0.035,0.006,0.006,-0.012,-1.564,-0.003,-0.196,56.78,86.6,40.580406,-3.545016,622.7,3,5,133.2,1.055
57.96,1,0.016,-0.021,0.009,0.016,-0.005,-0.006,-1.565,-0.001,-0.194,57.78,86.2,40.580261,-3.544807,623.4,3,5,132.5,1.406
58.06,1,-0.03,0.009,-0.019,-0.001,-0.006,-0.01,-1.564,-0.001,-0.193,57.78,86.2,40.580261,-3.544807,623.4,3,5,132.5,1.406
58.16,1,0.03,0.002,-0.004,0.003,0.002,-0.01,-1.562,-0.001,-0.191,57.78,86.2,40.580261,-3.544807,623.4,3,5,132.5,1.406
58.26,1,-0.05,-0.037,0.014,-0.01,-0.018,0.002,-1.561,-0.001,-0.189,57.78,86.2,40.580261,-3.544807,623.4,3,5,132.5,1.406
58.36,1,-0.094,0.008,-0.008,-0.055,-0.015,-0.001,-1.563,-0.001,-0.188,57.78,86.2,40.580261,-3.544807,623.4,3,5,132.5,1.406
58.46,1,0.103,-0.011,-0.009,0.004,0.001,-0.01,-1.566,-0.001,-0.187,57.78,86.2,40.580261,-3.544807,623.4,3,5,132.5,1.406
58.57,1,0.002,-0.018,-0.025,0.026,-0.01,-0.017,-1.559,-0.001,-0.185,57.78,86.2,40.580261,-3.544807,623.4,3,5,132.5,1.406
58.67,1,-0.037,-0.019,0.005,-0.013,-0.012,-0.007,-1.561,-0.002,-0.184,57.78,86.2,40.580261,-3.544807,623.4,3,5,132.5,1.406
58.77,1,-0.047,-0.01,-0.02,-0.029,-0.018,-0.005,-1.56,-0.001,-0.182,57.78,86.2,40.580261,-3.544807,623.4,3,5,132.5,1.406
58.86,1,-0.045,-0.002,-0.038,-0.034,-0.01,-0.026,-1.557,-0.002,-0.181,57.78,86.2,40.580261,-3.544807,623.4,3,5,132.5,1.406
58.96,1,-0.003,0.0,-0.003,-0.039,-0.004,-0.021,-1.557,-0.003,-0.18,58.77,86.6,40.580116,-3.544611,624.3,3,5,132.2,1.055
59.06,1,0.057,-0.009,-0.037,0.021,0.002,-0.025,-1.558,-0.004,-0.179,58.77,86.6,40.580116,-3.544611,624.3,3,5,132.2,1.055
59.16,1,-0.047,-0.026,-0.009,0.002,-0.007,-0.018,-1.556,-0.002,-0.178,58.77,86.6,40.580116,-3.544611,624.3,3,5,132.2,1.055
59.26,1,0.049,-0.019,-0.033,0.005,-0.021,-0.02,-1.556,0.002,-0.176,58.77,86.6,40.580116,-3.544611,624.3,3,5,132.2,1.055
59.37,1,-0.022,-0.005,-0.029,0.007,-0.012,-0.027,-1.553,0.004,-0.174,58.77,86.6,40.580116,-3.544611,624.3,3,5,132.2,1.055
59.46,1,-0.067,-0.022,-0.026,-0.044,-0.017,-0.03,-1.554,0.003,-0.172,58.77,86.6,40.580116,-3.544611,624.3,3,5,132.2,1.055
59.56,1,0.031,0.015,0.002,-0.003,-0.008,-0.017,-1.553,0.003,-0.171,58.77,86.6,40.580116,-3.544611,624.3,3,5,132.2,1.055
59.66,1,-0.07,-0.0,0.01,-0.018,0.002,0.002,-1.558,0.004,-0.17,58.77,86.6,40.580116,-3.544611,624.3,3,5,132.2,1.055
59.76,1,-0.012,0.0,-0.003,-0.034,-0.001,0.003,-1.56,0.004,-0.168,58.77,86.6,40.580116,-3.544611,624.3,3,5,132.2,1.055
59.87,1,-0.034,-0.021,0.047,-0.031,-0.011,0.013,-1.56,0.007,-0.167,58.77,86.6,40.580116,-3.544611,624.3,3,5,132.2,1.055
59.97,1,-0.06,0.007,0.004,-0.041,-0.007,0.02,-1.562,0.009,-0.166,59.77,85.1,40.579975,-3.544401,624.7,3,5,131.5,1.055
60.07,1,0.01,0.004,0.02,-0.026,0.003,0.016,-1.561,0.008,-0.165,59.77,85.1,40.579975,-3.544401,624.7,3,5,131.5,1.055
60.17,1,-0.035,-0.02,0.004,-0.015,-0.003,0.011,-1.56,0.011,-0.164,59.77,85.1,40.579975,-3.544401,624.7,3,5,131.5,1.055
60.27,1,0.012,-0.002,-0.008,-0.015,-0.011,0.003,-1.56,0.014,-0.163,59.77,85.1,40.579975,-3.544401,624.7,3,5,131.5,1.055
60.37,1,0.004,-0.008,0.017,0.002,-0.009,0.004,-1.561,0.016,-0.161,59.77,85.1,40.579975,-3.544401,624.7,3,5,131.5,1.055
60.47,1,-0.053,-0.006,-0.029,-0.02,0.0,-0.007,-1.56,0.019,-0.159,59.77,85.1,40.579975,-3.544401,624.7,3,5,131.5,1.055
60.57,1,-0.059,0.019,0.019,-0.04,0.004,-0.006,-1.561,0.019,-0.158,59.77,85.1,40.579975,-3.544401,624.7,3,5,131.5,1.055
60.67,1,-0.006,-0.017,0.008,-0.04,-0.002,0.013,-1.56,0.021,-0.157,59.77,85.1,40.579975,-3.544401,624.7,3,5,131.5,1.055
60.77,1,0.014,0.008,-0.01,-0.009,-0.002,0.001,-1.559,0.02,-0.155,59.77,85.1,40.579975,-3.544401,624.7,3,5,131.5,1.055
60.87,1,0.048,-0.009,0.011,0.024,-0.004,0.001,-1.558,0.021,-0.154,59.77,85.1,40.579975,-3.544401,624.7,3,5,131.5,1.055
60.97,1,-0.008,0.006,-0.023,0.01,0.0,-0.004,-1.556,0.022,-0.153,60.79,85.2,40.579834,-3.544194,624.9,3,5,130.8,1.406
61.07,1,-0.029,-0.004,-0.025,-0.011,-0.003,-0.019,-1.553,0.023,-0.151,60.79,85.2,40.579834,-3.544194,624.9,3,5,130.8,1.406
61.17,1,0.029,-0.004,-0.003,0.0,-0.0,-0.017,-1.552,0.021,-0.149,60.79,85.2,40.579834,-3.544194,624.9,3,5,130.8,1.406
61.28,1,0.004,0.025,0.004,0.017,0.007,0.0,-1.548,0.021,-0.148,60.79,85.2,40.579834,-3.544194,624.9,3,5,130.8,1.406
61.37,1,0.011,0.02,0.021,0.004,0.02,0.008,-1.545,0.022,-0.147,60.79,85.2,40.579834,-3.544194,624.9,3,5,130.8,1.406
61.47,1,-0.002,0.012,0.009,0.011,0.017,0.011,-1.546,0.021,-0.146,60.79,85.2,40.579834,-3.544194,624.9,3,5,130.8,1.406
61.57,1,-0.022,0.005,0.025,-0.013,0.016,0.012,-1.546,0.022,-0.145,60.79,85.2,40.579834,-3.544194,624.9,3,5,130.8,1.406
61.67,1,-0.045,0.005,0.01,-0.024,0.003,0.021,-1.546,0.024,-0.143,60.79,85.2,40.579834,-3.544194,624.9,3,5,130.8,1.406
61.88,1,-0.015,-0.021,-0.014,-0.007,-0.004,-0.004,-1.548,0.02,-0.14,60.79,85.2,40.579834,-3.544194,624.9,3,5,130.8,1.406
61.98,1,-0.022,-0.022,-0.001,-0.018,-0.012,-0.002,-1.546,0.021,-0.138,60.79,85.2,40.579834,-3.544194,624.9,3,5,130.8,1.406
62.07,1,-0.042,-0.036,0.017,-0.026,-0.027,0.005,-1.545,0.022,-0.135,61.77,84.5,40.579689,-3.543983,625.3,4,5,130.1,1.406
62.17,1,0.019,-0.026,0.009,-0.015,-0.025,0.007,-1.543,0.022,-0.132,61.77,84.5,40.579689,-3.543983,625.3,4,5,130.1,1.406
62.27,1,0.051,-0.02,0.03,0.019,-0.027,0.016,-1.543,0.025,-0.129,61.77,84.5,40.579689,-3.543983,625.3,4,5,130.1,1.406
62.37,1,0.042,-0.027,-0.02,0.027,-0.023,0.008,-1.541,0.027,-0.126,61.77,84.5,40.579689,-3.543983,625.3,4,5,130.1,1.406
62.47,1,0.016,-0.008,-0.015,0.041,-0.019,-0.011,-1.54,0.03,-0.123,61.77,84.5,40.579689,-3.543983,625.3,4,5,130.1,1.406
62.57,1,0.017,-0.027,0.004,0.021,-0.02,-0.004,-1.54,0.034,-0.121,61.77,84.5,40.579689,-3.543983,625.3,4,5,130.1,1.406
62.67,1,-0.017,0.004,-0.016,0.006,-0.016,-0.006,-1.539,0.036,-0.119,61.77,84.5,40.579689,-3.543983,625.3,4,5,130.1,1.406
62.77,1,0.011,0.029,-0.001,0.005,0.011,-0.006,-1.536,0.036,-0.117,61.77,84.5,40.579689,-3.543983,625.3,4,5,130.1,1.406
62.87,1,-0.032,0.008,0.01,-0.012,0.016,-0.001,-1.535,0.035,-0.115,61.77,84.5,40.579689,-3.543983,625.3,4,5,130.1,1.406
62.98,1,-0.015,-0.005,0.012,-0.019,0.002,0.01,-1.536,0.036,-0.113,61.77,84.5,40.579689,-3.543983,625.3,4,5,130.1,1.406
63.08,1,0.01,0.027,0.024,-0.002,0.006,0.015,-1.535,0.036,-0.112,62.75,83.9,40.579567,-3.543779,625.8,4,5,129.0,1.758
63.18,1,0.006,0.021,0.011,0.001,0.021,0.016,-1.533,0.035,-0.11,62.75,83.9,40.579567,-3.543779,625.8,4,5,129.0,1.758
63.27,1,-0.009,0.054,0.016,0.004,0.036,0.011,-1.534,0.035,-0.11,62.75,83.9,40.579567,-3.543779,625.8,4,5,129.0,1.758
63.38,1,-0.036,0.009,0.021,-0.022,0.03,0.019,-1.536,0.034,-0.109,62.75,83.9,40.579567,-3.543779,625.8,4,5,129.0,1.758
63.47,1,0.025,0.048,0.041,-0.007,0.031,0.029,-1.539,0.032,-0.109,62.75,83.9,40.579567,-3.543779,625.8,4,5,129.0,1.758
63.58,1,-0.01,0.013,0.031,-0.001,0.029,0.028,-1.541,0.029,-0.108,62.75,83.9,40.579567,-3.543779,625.8,4,5,129.0,1.758
63.68,1,-0.002,0.021,0.031,0.001,0.016,0.037,-1.543,0.031,-0.108,62.75,83.9,40.579567,-3.543779,625.8,4,5,129.0,1.758
63.78,1,-0.029,0.051,0.037,-0.013,0.037,0.032,-1.542,0.03,-0.107,62.75,83.9,40.579567,-3.543779,625.8,4,5,129.0,1.758
63.88,1,-0.001,0.023,0.035,-0.002,0.034,0.036,-1.541,0.031,-0.107,62.75,83.9,40.579567,-3.543779,625.8,4,5,129.0,1.758
63.98,1,-0.04,0.032,0.034,-0.028,0.029,0.034,-1.547,0.031,-0.107,62.75,83.9,40.579567,-3.543779,625.8,4,5,129.0,1.758
64.08,1,0.021,0.061,0.053,-0.015,0.043,0.041,-1.551,0.028,-0.107,63.77,83.2,40.579437,-3.54357,626.0,4,5,128.0,2.109
64.18,1,0.025,0.046,0.05,0.008,0.05,0.045,-1.553,0.022,-0.107,63.77,83.2,40.579437,-3.54357,626.0,4,5,128.0,2.109
64.28,1,-0.074,0.017,0.012,-0.016,0.034,0.037,-1.554,0.019,-0.107,63.77,83.2,40.579437,-3.54357,626.0,4,5,128.0,2.109
64.38,1,-0.01,0.028,0.038,-0.029,0.027,0.029,-1.558,0.018,-0.107,63.77,83.2,40.579437,-3.54357,626.0,4,5,128.0,2.109
64.48,1,0.001,0.037,0.042,-0.013,0.033,0.04,-1.56,0.018,-0.107,63.77,83.2,40.579437,-3.54357,626.0,4,5,128.0,2.109
64.58,1,0.03,0.022,0.032,0.009,0.03,0.036,-1.562,0.018,-0.107,63.77,83.2,40.579437,-3.54357,626.0,4,5,128.0,2.109
64.68,1,0.01,0.001,0.03,0.014,0.014,0.027,-1.562,0.013,-0.107,63.77,83.2,40.579437,-3.54357,626.0,4,5,128.0,2.109
64.78,1,-0.016,0.021,0.018,0.001,0.015,0.027,-1.561,0.011,-0.106,63.77,83.2,40.579437,-3.54357,626.0,4,5,128.0,2.109
64.88,1,-0.011,0.015,0.004,-0.011,0.01,0.019,-1.563,0.011,-0.106,63.77,83.2,40.579437,-3.54357,626.0,4,5,128.0,2.109
64.98,1,-0.082,-0.014,0.005,-0.032,0.008,0.007,-1.562,0.009,-0.105,63.77,83.2,40.579437,-3.54357,626.0,4,5,128.0,2.109
65.09,1,-0.063,-0.019,0.029,-0.064,-0.012,0.015,-1.564,0.007,-0.104,64.75,83.7,40.579308,-3.543355,626.1,4,5,127.6,1.406
65.18,1,-0.023,-0.003,0.051,-0.046,-0.006,0.037,-1.568,0.005,-0.104,64.75,83.7,40.579308,-3.543355,626.1,4,5,127.6,1.406
65.28,1,-0.039,0.003,0.009,-0.033,-0.005,0.024,-1.569,0.005,-0.103,64.75,83.7,40.579308,-3.543355,626.1,4,5,127.6,1.406
65.38,1,0.008,-0.009,0.037,-0.022,-0.004,0.028,-1.57,0.005,-0.102,64.75,83.7,40.579308,-3.543355,626.1,4,5,127.6,1.406
65.49,1,-0.022,-0.011,0.008,-0.006,-0.005,0.019,-1.573,0.008,-0.101,64.75,83.7,40.579308,-3.543355,626.1,4,5,127.6,1.406
65.58,1,-0.039,-0.024,0.05,-0.03,-0.013,0.031,-1.574,0.009,-0.1,64.75,83.7,40.579308,-3.543355,626.1,4,5,127.6,1.406
65.69,1,-0.025,-0.012,0.027,-0.031,-0.018,0.033,-1.573,0.009,-0.099,64.75,83.7,40.579308,-3.543355,626.1,4,5,127.6,1.406
65.79,1,-0.009,-0.002,0.045,-0.016,-0.009,0.041,-1.573,0.01,-0.098,64.75,83.7,40.579308,-3.543355,626.1,4,5,127.6,1.406
65.88,1,-0.003,-0.002,0.028,-0.008,-0.008,0.036,-1.572,0.008,-0.097,64.75,83.7,40.579308,-3.543355,626.1,4,5,127.6,1.406
65.98,1,-0.035,-0.009,0.031,-0.02,-0.006,0.027,-1.572,0.007,-0.095,64.75,83.7,40.579308,-3.543355,626.1,4,5,127.6,1.406
66.08,1,-0.027,-0.002,0.01,-0.029,-0.002,0.027,-1.576,0.007,-0.094,65.78,84.7,40.579182,-3.543139,626.9,4,5,127.3,0.703
66.18,1,-0.065,-0.03,0.025,-0.041,-0.013,0.02,-1.577,0.009,-0.093,65.78,84.7,40.579182,-3.543139,626.9,4,5,127.3,0.703
66.3,1,-0.058,-0.016,0.019,-0.055,-0.02,0.02,-1.576,0.01,-0.093,65.78,84.7,40.579182,-3.543139,626.9,4,5,127.3,0.703
66.38,1,-0.015,-0.023,0.04,-0.039,-0.018,0.024,-1.576,0.009,-0.092,65.78,84.7,40.579182,-3.543139,626.9,4,5,127.3,0.703
66.48,1,-0.047,0.003,-0.005,-0.029,-0.016,0.022,-1.579,0.011,-0.091,65.78,84.7,40.579182,-3.543139,626.9,4,5,127.3,0.703
66.58,1,-0.054,-0.012,0.032,-0.044,-0.01,0.02,-1.58,0.012,-0.09,65.78,84.7,40.579182,-3.543139,626.9,4,5,127.3,0.703
66.68,1,0.017,0.009,0.034,-0.031,0.0,0.027,-1.58,0.01,-0.089,65.78,84.7,40.579182,-3.543139,626.9,4,5,127.3,0.703
66.79,1,-0.037,-0.001,0.02,-0.024,0.001,0.028,-1.579,0.01,-0.088,65.78,84.7,40.579182,-3.543139,626.9,4,5,127.3,0.703
66.88,1,-0.038,-0.008,0.029,-0.016,0.005,0.021,-1.579,0.011,-0.088,65.78,84.7,40.579182,-3.543139,626.9,4,5,127.3,0.703
66.99,1,-0.01,0.011,0.022,-0.039,-0.0,0.026,-1.578,0.013,-0.087,65.78,84.7,40.579182,-3.543139,626.9,4,5,127.3,0.703
67.08,1,-0.007,-0.005,-0.0,-0.007,-0.001,0.01,-1.576,0.013,-0.086,66.77,85.8,40.579048,-3.542922,627.2,3,5,126.6,1.055
67.18,1,-0.011,-0.008,0.011,-0.019,-0.008,0.01,-1.576,0.011,-0.085,66.77,85.8,40.579048,-3.542922,627.2,3,5,126.6,1.055
67.28,1,-0.006,-0.015,0.018,-0.007,-0.007,0.01,-1.575,0.013,-0.084,66.77,85.8,40.579048,-3.542922,627.2,3,5,126.6,1.055
67.38,1,-0.0,0.022,0.029,-0.014,-0.003,0.018,-1.575,0.014,-0.083,66.77,85.8,40.579048,-3.542922,627.2,3,5,126.6,1.055
67.48,1,0.042,-0.014,0.008,0.024,0.007,0.023,-1.578,0.014,-0.082,66.77,85.8,40.579048,-3.542922,627.2,3,5,126.6,1.055
67.58,1,-0.026,-0.024,0.033,0.008,-0.014,0.023,-1.578,0.016,-0.081,66.77,85.8,40.579048,-3.542922,627.2,3,5,126.6,1.055
67.68,1,-0.073,-0.024,0.026,-0.032,-0.023,0.026,-1.579,0.016,-0.08,66.77,85.8,40.579048,-3.542922,627.2,3,5,126.6,1.055
67.79,1,-0.044,0.005,0.024,-0.052,-0.01,0.024,-1.579,0.019,-0.079,66.77,85.8,40.579048,-3.542922,627.2,3,5,126.6,1.055
67.88,1,0.013,0.015,0.019,-0.014,-0.003,0.024,-1.581,0.021,-0.077,66.77,85.8,40.579048,-3.542922,627.2,3,5,126.6,1.055
67.99,1,-0.037,-0.021,0.03,-0.012,0.003,0.024,-1.577,0.026,-0.075,66.77,85.8,40.579048,-3.542922,627.2,3,5,126.6,1.055
68.08,1,-0.057,-0.007,0.012,-0.045,-0.012,0.02,-1.578,0.029,-0.073,67.78,87.0,40.57893,-3.542699,627.5,4,5,125.9,1.406
68.19,1,-0.005,-0.03,0.014,-0.036,-0.023,0.019,-1.579,0.029,-0.071,67.78,87.0,40.57893,-3.542699,627.5,4,5,125.9,1.406
68.28,1,-0.036,-0.012,0.02,-0.021,-0.012,0.018,-1.58,0.03,-0.069,67.78,87.0,40.57893,-3.542699,627.5,4,5,125.9,1.406
68.39,1,-0.012,-0.022,0.006,-0.028,-0.018,0.012,-1.578,0.033,-0.068,67.78,87.0,40.57893,-3.542699,627.5,4,5,125.9,1.406
68.49,1,-0.023,0.004,0.007,-0.016,-0.01,0.01,-1.577,0.033,-0.066,67.78,87.0,40.57893,-3.542699,627.5,4,5,125.9,1.406
68.59,1,0.016,-0.031,0.026,-0.004,-0.011,0.013,-1.578,0.031,-0.065,67.78,87.0,40.57893,-3.542699,627.5,4,5,125.9,1.406
68.69,1,-0.027,-0.019,0.013,-0.014,-0.025,0.018,-1.579,0.034,-0.064,67.78,87.0,40.57893,-3.542699,627.5,4,5,125.9,1.406
68.79,1,0.015,-0.012,0.015,-0.009,-0.02,0.014,-1.58,0.036,-0.063,67.78,87.0,40.57893,-3.542699,627.5,4,5,125.9,1.406
68.89,1,-0.016,0.049,0.004,0.002,0.013,0.01,-1.58,0.034,-0.062,67.78,87.0,40.57893,-3.542699,627.5,4,5,125.9,1.406
68.99,1,-0.01,0.024,0.0,-0.012,0.023,0.007,-1.579,0.036,-0.061,67.78,87.0,40.57893,-3.542699,627.5,4,5,125.9,1.406
69.09,1,-0.058,0.009,-0.006,-0.031,0.023,-0.006,-1.579,0.035,-0.06,68.76,88.2,40.578808,-3.542468,627.9,4,5,124.8,1.758
69.19,1,-0.038,-0.019,0.016,-0.029,-0.0,0.012,-1.582,0.035,-0.059,68.76,88.2,40.578808,-3.542468,627.9,4,5,124.8,1.758
69.29,1,0.022,-0.014,-0.016,-0.006,-0.008,-0.001,-1.581,0.038,-0.058,68.76,88.2,40.578808,-3.542468,627.9,4,5,124.8,1.758
69.39,1,-0.067,0.005,-0.007,-0.037,-0.006,-0.008,-1.579,0.038,-0.056,68.76,88.2,40.578808,-3.542468,627.9,4,5,124.8,1.758
69.49,1,-0.005,0.006,0.006,-0.035,0.002,-0.004,-1.579,0.039,-0.055,68.76,88.2,40.578808,-3.542468,627.9,4,5,124.8,1.758
69.59,1,0.007,0.02,-0.025,-0.007,0.013,-0.009,-1.579,0.038,-0.054,68.76,88.2,40.578808,-3.542468,627.9,4,5,124.8,1.758
69.69,1,-0.099,0.01,-0.019,-0.042,0.005,-0.014,-1.579,0.036,-0.054,68.76,88.2,40.578808,-3.542468,627.9,4,5,124.8,1.758
69.79,1,0.036,0.02,0.001,-0.022,0.018,-0.016,-1.577,0.034,-0.053,68.76,88.2,40.578808,-3.542468,627.9,4,5,124.8,1.758
69.89,1,-0.023,0.014,0.01,-0.007,0.017,0.003,-1.573,0.035,-0.051,68.76,88.2,40.578808,-3.542468,627.9,4,5,124.8,1.758
69.99,1,-0.015,0.009,0.032,-0.024,0.012,0.016,-1.573,0.036,-0.05,68.76,88.2,40.578808,-3.542468,627.9,4,5,124.8,1.758
70.09,1,0.009,0.0,-0.012,-0.004,0.007,0.013,-1.573,0.039,-0.048,69.76,89.0,40.578686,-3.542233,628.3,4,5,123.8,2.109
70.19,1,0.004,0.007,0.008,0.004,0.006,-0.001,-1.572,0.037,-0.047,69.76,89.0,40.578686,-3.542233,628.3,4,5,123.8,2.109
70.29,1,0.009,0.012,-0.024,0.002,0.009,-0.005,-1.572,0.036,-0.046,69.76,89.0,40.578686,-3.542233,628.3,4,5,123.8,2.109
70.39,1,-0.002,-0.015,0.019,0.006,-0.0,-0.004,-1.572,0.035,-0.045,69.76,89.0,40.578686,-3.542233,628.3,4,5,123.8,2.109
70.49,1,-0.05,-0.004,-0.033,-0.017,-0.007,0.001,-1.574,0.034,-0.044,69.76,89.0,40.578686,-3.542233,628.3,4,5,123.8,2.109
70.59,1,-0.073,0.021,0.025,-0.049,0.005,-0.007,-1.575,0.034,-0.043,69.76,89.0,40.578686,-3.542233,628.3,4,5,123.8,2.109
70.69,1,-0.041,-0.009,0.022,-0.057,0.007,0.015,-1.578,0.034,-0.042,69.76,89.0,40.578686,-3.542233,628.3,4,5,123.8,2.109
70.79,1,0.034,0.035,0.024,-0.009,0.011,0.02,-1.58,0.03,-0.042,69.76,89.0,40.578686,-3.542233,628.3,4,5,123.8,2.109
70.9,1,-0.032,0.025,0.008,-0.014,0.026,0.018,-1.582,0.03,-0.041,69.76,89.0,40.578686,-3.542233,628.3,4,5,123.8,2.109
70.99,1,-0.023,0.01,0.03,-0.021,0.018,0.016,-1.582,0.031,-0.041,69.76,89.0,40.578686,-3.542233,628.3,4,5,123.8,2.109
71.09,1,0.008,0.018,-0.011,-0.005,0.015,0.009,-1.581,0.029,-0.04,70.78,88.7,40.578568,-3.541988,628.8,4,5,123.0,1.758
71.19,1,-0.053,0.01,0.005,-0.029,0.02,0.002,-1.582,0.029,-0.039,70.78,88.7,40.578568,-3.541988,628.8,4,5,123.0,1.758
71.3,1,0.065,0.014,-0.006,-0.002,0.012,0.0,-1.583,0.032,-0.039,70.78,88.7,40.578568,-3.541988,628.8,4,5,123.0,1.758
71.39,1,0.025,0.041,0.014,0.035,0.023,0.003,-1.584,0.03,-0.038,70.78,88.7,40.578568,-3.541988,628.8,4,5,123.0,1.758
71.5,1,0.037,0.033,-0.006,0.029,0.03,0.006,-1.586,0.025,-0.038,70.78,88.7,40.578568,-3.541988,628.8,4,5,123.0,1.758
71.59,1,0.012,0.021,-0.024,0.032,0.026,-0.013,-1.584,0.023,-0.038,70.78,88.7,40.578568,-3.541988,628.8,4,5,123.0,1.758
71.69,1,-0.005,-0.014,-0.016,0.01,0.012,-0.014,-1.581,0.02,-0.037,70.78,88.7,40.578568,-3.541988,628.8,4,5,123.0,1.758
71.8,1,-0.018,0.022,-0.017,-0.005,0.01,-0.017,-1.577,0.021,-0.037,70.78,88.7,40.578568,-3.541988,628.8,4,5,123.0,1.758
71.89,1,-0.081,-0.015,-0.031,-0.032,0.006,-0.021,-1.575,0.022,-0.036,70.78,88.7,40.578568,-3.541988,628.8,4,5,123.0,1.758
71.99,1,-0.029,-0.017,-0.034,-0.051,-0.014,-0.029,-1.574,0.022,-0.036,70.78,88.7,40.578568,-3.541988,628.8,4,5,123.0,1.758
72.09,1,-0.031,0.006,-0.018,-0.034,-0.01,-0.025,-1.571,0.022,-0.036,71.76,89.8,40.578453,-3.541736,628.9,4,5,122.0,1.758
72.19,1,0.08,-0.01,-0.025,0.006,-0.002,-0.025,-1.572,0.023,-0.035,71.76,89.8,40.578453,-3.541736,628.9,4,5,122.0,1.758
72.29,1,-0.008,0.03,-0.054,0.021,0.007,-0.034,-1.572,0.022,-0.035,71.76,89.8,40.578453,-3.541736,628.9,4,5,122.0,1.758
72.39,1,0.027,-0.0,-0.02,0.014,0.012,-0.034,-1.573,0.021,-0.034,71.76,89.8,40.578453,-3.541736,628.9,4,5,122.0,1.758
72.51,1,-0.009,0.02,-0.018,0.017,0.011,-0.025,-1.571,0.021,-0.034,71.76,89.8,40.578453,-3.541736,628.9,4,5,122.0,1.758
72.61,1,-0.04,0.013,-0.015,-0.02,0.015,-0.019,-1.569,0.023,-0.033,71.76,89.8,40.578453,-3.541736,628.9,4,5,122.0,1.758
72.71,1,-0.032,0.014,-0.028,-0.024,0.012,-0.02,-1.567,0.024,-0.033,71.76,89.8,40.578453,-3.541736,628.9,4,5,122.0,1.758
72.8,1,0.008,0.005,-0.012,-0.023,0.011,-0.019,-1.567,0.02,-0.033,71.76,89.8,40.578453,-3.541736,628.9,4,5,122.0,1.758
72.9,1,0.06,0.013,0.016,0.022,0.009,-0.003,-1.567,0.019,-0.033,71.76,89.8,40.578453,-3.541736,628.9,4,5,122.0,1.758
73.0,1,0.087,0.049,0.01,0.051,0.026,0.006,-1.566,0.019,-0.033,71.76,89.8,40.578453,-3.541736,628.9,4,5,122.0,1.758
73.1,1,-0.043,0.006,0.032,0.021,0.024,0.015,-1.564,0.02,-0.032,72.79,90.2,40.578342,-3.541488,629.3,4,5,121.3,1.758
73.2,1,-0.025,0.034,0.03,0.002,0.023,0.025,-1.568,0.019,-0.032,72.79,90.2,40.578342,-3.541488,629.3,4,5,121.3,1.758
73.3,1,-0.077,0.003,0.007,-0.043,0.023,0.022,-1.568,0.021,-0.032,72.79,90.2,40.578342,-3.541488,629.3,4,5,121.3,1.758
73.4,1,-0.0,0.015,0.011,-0.036,0.008,0.017,-1.566,0.026,-0.032,72.79,90.2,40.578342,-3.541488,629.3,4,5,121.3,1.758
73.5,1,-0.026,0.015,-0.015,-0.024,0.019,-0.002,-1.567,0.021,-0.032,72.79,90.2,40.578342,-3.541488,629.3,4,5,121.3,1.758
73.6,1,0.043,0.023,0.0,0.002,0.018,-0.003,-1.57,0.015,-0.032,72.79,90.2,40.578342,-3.541488,629.3,4,5,121.3,1.758
73.7,1,-0.019,0.011,0.007,0.019,0.014,0.001,-1.572,0.013,-0.031,72.79,90.2,40.578342,-3.541488,629.3,4,5,121.3,1.758
73.8,1,-0.034,0.002,-0.0,-0.027,0.007,-0.002,-1.57,0.015,-0.032,72.79,90.2,40.578342,-3.541488,629.3,4,5,121.3,1.758
73.9,1,-0.025,0.019,0.007,-0.027,0.014,0.01,-1.569,0.012,-0.032,72.79,90.2,40.578342,-3.541488,629.3,4,5,121.3,1.758
74.01,1,-0.02,0.003,-0.035,-0.02,0.008,-0.01,-1.565,0.011,-0.032,72.79,90.2,40.578342,-3.541488,629.3,4,5,121.3,1.758
74.1,1,-0.016,0.022,-0.016,-0.028,0.017,-0.021,-1.563,0.014,-0.032,73.8,90.7,40.578224,-3.541231,629.4,4,5,120.6,1.406
74.2,1,0.034,0.033,-0.011,0.003,0.027,-0.015,-1.564,0.018,-0.032,73.8,90.7,40.578224,-3.541231,629.4,4,5,120.6,1.406
74.3,1,0.024,0.023,-0.031,0.027,0.024,-0.016,-1.564,0.02,-0.032,73.8,90.7,40.578224,-3.541231,629.4,4,5,120.6,1.406
74.41,1,-0.037,0.024,-0.018,-0.006,0.022,-0.024,-1.563,0.017,-0.032,73.8,90.7,40.578224,-3.541231,629.4,4,5,120.6,1.406
74.5,1,0.003,0.019,-0.021,-0.005,0.023,-0.023,-1.56,0.016,-0.033,73.8,90.7,40.578224,-3.541231,629.4,4,5,120.6,1.406
74.6,1,-0.009,0.034,-0.004,-0.007,0.024,-0.016,-1.558,0.014,-0.034,73.8,90.7,40.578224,-3.541231,629.4,4,5,120.6,1.406
74.7,1,-0.088,0.048,0.004,-0.038,0.035,-0.0,-1.555,0.011,-0.036,73.8,90.7,40.578224,-3.541231,629.4,4,5,120.6,1.406
74.8,1,-0.08,0.037,-0.024,-0.083,0.04,-0.012,-1.554,0.011,-0.036,73.8,90.7,40.578224,-3.541231,629.4,4,5,120.6,1.406
74.9,1,-0.077,0.022,-0.004,-0.071,0.033,-0.009,-1.552,0.011,-0.037,73.8,90.7,40.578224,-3.541231,629.4,4,5,120.6,1.406
75.0,1,-0.054,0.023,-0.035,-0.053,0.026,-0.017,-1.549,0.009,-0.039,73.8,90.7,40.578224,-3.541231,629.4,4,5,120.6,1.406
75.11,1,0.0,0.017,-0.009,-0.048,0.023,-0.02,-1.546,0.006,-0.04,74.82,91.2,40.578106,-3.540969,629.4,3,5,119.9,1.406
75.21,1,0.037,0.007,-0.014,0.009,0.016,-0.016,-1.544,0.004,-0.041,74.82,91.2,40.578106,-3.540969,629.4,3,5,119.9,1.406
75.3,1,0.005,0.027,-0.027,0.01,0.014,-0.019,-1.539,0.002,-0.041,74.82,91.2,40.578106,-3.540969,629.4,3,5,119.9,1.406
75.4,1,0.029,0.028,-0.01,0.018,0.027,-0.017,-1.537,0.001,-0.043,74.82,91.2,40.578106,-3.540969,629.4,3,5,119.9,1.406
75.5,1,-0.018,0.008,-0.006,0.01,0.019,-0.014,-1.534,-0.0,-0.044,74.82,91.2,40.578106,-3.540969,629.4,3,5,119.9,1.406
75.61,1,-0.05,-0.008,0.008,-0.025,0.001,-0.003,-1.53,-0.0,-0.044,74.82,91.2,40.578106,-3.540969,629.4,3,5,119.9,1.406
75.7,1,-0.014,0.011,0.021,-0.024,0.007,0.008,-1.531,-0.003,-0.045,74.82,91.2,40.578106,-3.540969,629.4,3,5,119.9,1.406
75.81,1,-0.032,0.025,0.042,-0.022,0.013,0.027,-1.537,-0.006,-0.046,74.82,91.2,40.578106,-3.540969,629.4,3,5,119.9,1.406
75.91,1,-0.042,0.018,0.014,-0.038,0.019,0.026,-1.541,-0.009,-0.046,74.82,91.2,40.578106,-3.540969,629.4,3,5,119.9,1.406
76.0,1,0.035,-0.003,0.037,-0.011,0.008,0.022,-1.546,-0.011,-0.047,74.82,91.2,40.578106,-3.540969,629.4,3,5,119.9,1.406
76.1,1,0.011,0.007,0.01,0.01,0.008,0.022,-1.55,-0.012,-0.048,75.76,89.5,40.577995,-3.540713,629.9,3,5,119.9,0.703
76.2,1,-0.005,0.022,0.038,0.004,0.009,0.025,-1.551,-0.011,-0.049,75.76,89.5,40.577995,-3.540713,629.9,3,5,119.9,0.703
76.3,1,-0.021,0.006,0.037,0.001,0.014,0.033,-1.552,-0.01,-0.049,75.76,89.5,40.577995,-3.540713,629.9,3,5,119.9,0.703
76.4,1,-0.042,-0.008,0.049,-0.03,0.001,0.045,-1.555,-0.008,-0.05,75.76,89.5,40.577995,-3.540713,629.9,3,5,119.9,0.703
76.5,1,-0.015,0.018,0.054,-0.034,0.011,0.047,-1.557,-0.006,-0.051,75.76,89.5,40.577995,-3.540713,629.9,3,5,119.9,0.703
76.6,1,-0.0,-0.016,0.03,-0.007,0.0,0.049,-1.56,-0.003,-0.051,75.76,89.5,40.577995,-3.540713,629.9,3,5,119.9,0.703
76.7,1,-0.034,0.015,0.009,-0.019,0.0,0.025,-1.561,-0.0,-0.052,75.76,89.5,40.577995,-3.540713,629.9,3,5,119.9,0.703
76.8,1,0.002,-0.006,0.027,-0.013,0.006,0.02,-1.564,-0.001,-0.052,75.76,89.5,40.577995,-3.540713,629.9,3,5,119.9,0.703
76.91,1,0.009,0.014,0.02,-0.005,0.004,0.019,-1.567,0.001,-0.052,75.76,89.5,40.577995,-3.540713,629.9,3,5,119.9,0.703
77.01,1,0.016,0.007,0.042,0.015,0.005,0.034,-1.568,0.003,-0.052,75.76,89.5,40.577995,-3.540713,629.9,3,5,119.9,0.703
77.11,1,0.02,-0.005,0.01,0.001,-0.004,0.021,-1.57,0.004,-0.051,76.83,89.5,40.577885,-3.540453,629.8,3,5,119.9,0.0
77.21,1,0.026,0.018,0.019,0.033,0.01,0.018,-1.568,0.007,-0.051,76.83,89.5,40.577885,-3.540453,629.8,3,5,119.9,0.0
77.31,1,-0.036,-0.038,-0.015,-0.007,-0.005,0.009,-1.567,0.012,-0.051,76.83,89.5,40.577885,-3.540453,629.8,3,5,119.9,0.0
77.41,1,-0.021,-0.009,0.024,-0.014,-0.017,0.009,-1.567,0.011,-0.05,76.83,89.5,40.577885,-3.540453,629.8,3,5,119.9,0.0
77.51,1,-0.001,0.011,0.017,-0.004,-0.003,0.015,-1.566,0.014,-0.05,76.83,89.5,40.577885,-3.540453,629.8,3,5,119.9,0.0
77.61,1,0.0,0.013,0.008,-0.01,0.008,0.012,-1.564,0.015,-0.05,76.83,89.5,40.577885,-3.540453,629.8,3,5,119.9,0.0
77.73,1,-0.011,-0.022,0.002,-0.003,-0.003,0.004,-1.563,0.014,-0.05,76.83,89.5,40.577885,-3.540453,629.8,3,5,119.9,0.0
77.81,1,-0.016,-0.009,-0.007,-0.016,-0.007,0.002,-1.563,0.018,-0.049,76.83,89.5,40.577885,-3.540453,629.8,3,5,119.9,0.0
77.91,1,0.02,-0.001,0.011,-0.014,-0.003,0.0,-1.562,0.019,-0.048,76.83,89.5,40.577885,-3.540453,629.8,3,5,119.9,0.0
78.01,1,-0.051,-0.022,0.021,-0.013,-0.012,0.015,-1.563,0.019,-0.047,76.83,89.5,40.577885,-3.540453,629.8,3,5,119.9,0.0
78.11,1,-0.034,-0.001,0.001,-0.021,-0.017,0.011,-1.562,0.021,-0.047,77.76,90.1,40.577778,-3.540204,629.9,3,5,119.5,0.352
78.21,1,0.017,-0.022,0.016,-0.01,-0.008,0.008,-1.562,0.023,-0.046,77.76,90.1,40.577778,-3.540204,629.9,3,5,119.5,0.352
78.32,1,0.047,-0.019,0.007,0.02,-0.02,0.017,-1.564,0.025,-0.044,77.76,90.1,40.577778,-3.540204,629.9,3,5,119.5,0.352
78.41,1,0.014,0.018,0.006,0.031,0.001,0.001,-1.564,0.027,-0.043,77.76,90.1,40.577778,-3.540204,629.9,3,5,119.5,0.352
78.51,1,-0.052,-0.03,0.035,-0.011,-0.011,0.022,-1.562,0.028,-0.042,77.76,90.1,40.577778,-3.540204,629.9,3,5,119.5,0.352
78.61,1,-0.043,-0.015,0.026,-0.038,-0.016,0.025,-1.561,0.03,-0.041,77.76,90.1,40.577778,-3.540204,629.9,3,5,119.5,0.352
78.71,1,-0.079,-0.031,0.002,-0.057,-0.021,0.019,-1.562,0.03,-0.04,77.76,90.1,40.577778,-3.540204,629.9,3,5,119.5,0.352
78.81,1,0.101,-0.019,0.02,-0.007,-0.022,0.01,-1.563,0.03,-0.038,77.76,90.1,40.577778,-3.540204,629.9,3,5,119.5,0.352
78.92,1,-0.017,-0.032,0.016,0.029,-0.029,0.016,-1.562,0.03,-0.037,77.76,90.1,40.577778,-3.540204,629.9,3,5,119.5,0.352
79.01,1,0.017,-0.014,0.013,0.002,-0.022,0.012,-1.56,0.03,-0.035,77.76,90.1,40.577778,-3.540204,629.9,3,5,119.5,0.352
79.11,1,-0.009,-0.005,0.032,0.011,-0.017,0.024,-1.562,0.03,-0.034,78.77,90.4,40.577671,-3.539945,630.2,3,5,118.5,1.406
79.21,1,-0.029,-0.018,0.019,-0.027,-0.013,0.026,-1.563,0.029,-0.032,78.77,90.4,40.577671,-3.539945,630.2,3,5,118.5,1.406
79.31,1,0.008,-0.01,-0.044,0.0,-0.011,-0.003,-1.559,0.031,-0.031,78.77,90.4,40.577671,-3.539945,630.2,3,5,118.5,1.406
79.42,1,0.012,-0.029,-0.019,0.01,-0.018,-0.023,-1.554,0.033,-0.03,78.77,90.4,40.577671,-3.539945,630.2,3,5,118.5,1.406
79.51,1,0.038,-0.015,-0.036,0.017,-0.023,-0.025,-1.553,0.037,-0.028,78.77,90.4,40.577671,-3.539945,630.2,3,5,118.5,1.406
79.62,1,-0.062,0.004,-0.035,0.01,-0.009,-0.032,-1.552,0.038,-0.027,78.77,90.4,40.577671,-3.539945,630.2,3,5,118.5,1.406
79.72,1,-0.021,-0.018,0.003,-0.036,-0.006,-0.024,-1.552,0.039,-0.026,78.77,90.4,40.577671,-3.539945,630.2,3,5,118.5,1.406
79.81,1,-0.052,0.03,-0.042,-0.041,0.002,-0.021,-1.552,0.038,-0.025,78.77,90.4,40.577671,-3.539945,630.2,3,5,118.5,1.406
79.91,1,-0.039,0.017,-0.011,-0.038,0.016,-0.024,-1.548,0.037,-0.025,78.77,90.4,40.577671,-3.539945,630.2,3,5,118.5,1.406
80.02,1,0.07,0.007,-0.038,0.004,0.012,-0.023,-1.546,0.038,-0.024,78.77,90.4,40.577671,-3.539945,630.2,3,5,118.5,1.406
80.11,1,0.032,0.031,-0.042,0.031,0.017,-0.032,-1.54,0.035,-0.024,79.77,90.9,40.577557,-3.539685,630.1,3,5,117.4,2.109
80.22,1,0.006,-0.018,-0.006,0.022,0.012,-0.026,-1.538,0.033,-0.024,79.77,90.9,40.577557,-3.539685,630.1,3,5,117.4,2.109
80.31,1,-0.005,0.022,-0.016,0.002,0.0,-0.018,-1.538,0.035,-0.023,79.77,90.9,40.577557,-3.539685,630.1,3,5,117.4,2.109
80.42,1,-0.073,0.048,0.014,-0.024,0.032,-0.003,-1.536,0.035,-0.023,79.77,90.9,40.577557,-3.539685,630.1,3,5,117.4,2.109
80.51,1,-0.069,0.049,0.007,-0.056,0.029,0.007,-1.536,0.037,-0.023,79.77,90.9,40.577557,-3.539685,630.1,3,5,117.4,2.109
80.62,1,0.01,0.036,-0.054,-0.033,0.041,-0.019,-1.534,0.038,-0.023,79.77,90.9,40.577557,-3.539685,630.1,3,5,117.4,2.109
80.72,1,-0.013,-0.001,-0.022,-0.016,0.026,-0.031,-1.533,0.037,-0.024,79.77,90.9,40.577557,-3.539685,630.1,3,5,117.4,2.109
80.82,1,0.0,0.02,-0.014,-0.007,0.021,-0.02,-1.534,0.034,-0.024,79.77,90.9,40.577557,-3.539685,630.1,3,5,117.4,2.109
80.92,1,0.038,0.028,-0.023,0.013,0.022,-0.021,-1.533,0.029,-0.024,79.77,90.9,40.577557,-3.539685,630.1,3,5,117.4,2.109
81.02,1,0.017,0.008,0.004,0.013,0.022,-0.012,-1.531,0.031,-0.024,79.77,90.9,40.577557,-3.539685,630.1,3,5,117.4,2.109
81.11,1,-0.011,0.015,-0.009,0.01,0.01,-0.007,-1.53,0.029,-0.024,80.76,90.0,40.57745,-3.539417,630.4,3,5,116.4,2.109
81.22,1,-0.076,0.039,0.01,-0.028,0.026,-0.003,-1.529,0.026,-0.024,80.76,90.0,40.57745,-3.539417,630.4,3,5,116.4,2.109
81.32,1,-0.036,0.032,0.003,-0.052,0.032,0.008,-1.526,0.028,-0.024,80.76,90.0,40.57745,-3.539417,630.4,3,5,116.4,2.109
81.42,1,-0.06,-0.003,0.012,-0.038,0.02,0.005,-1.526,0.028,-0.025,80.76,90.0,40.57745,-3.539417,630.4,3,5,116.4,2.109
81.52,1,0.006,0.019,0.0,-0.036,0.007,0.003,-1.526,0.026,-0.025,80.76,90.0,40.57745,-3.539417,630.4,3,5,116.4,2.109
81.62,1,-0.015,-0.023,-0.009,-0.012,-0.002,0.001,-1.525,0.02,-0.025,80.76,90.0,40.57745,-3.539417,630.4,3,5,116.4,2.109
81.72,1,-0.035,-0.008,-0.029,-0.026,-0.003,-0.011,-1.522,0.021,-0.024,80.76,90.0,40.57745,-3.539417,630.4,3,5,116.4,2.109
81.82,1,-0.032,0.028,0.013,-0.024,0.003,-0.009,-1.523,0.02,-0.023,80.76,90.0,40.57745,-3.539417,630.4,3,5,116.4,2.109
82.02,1,-0.043,0.006,0.01,-0.031,-0.008,-0.001,-1.523,0.026,-0.022,80.76,90.0,40.57745,-3.539417,630.4,3,5,116.4,2.109
82.12,1,-0.051,-0.006,0.002,-0.05,-0.005,0.004,-1.524,0.027,-0.021,80.76,90.0,40.57745,-3.539417,630.4,3,5,116.4,2.109
82.22,1,-0.027,-0.013,-0.006,-0.039,-0.009,0.001,-1.523,0.027,-0.021,81.79,88.8,40.577358,-3.539146,630.3,3,5,116.0,1.406
82.32,1,-0.029,0.026,0.012,-0.031,0.006,0.002,-1.521,0.03,-0.02,81.79,88.8,40.577358,-3.539146,630.3,3,5,116.0,1.406
82.42,1,-0.008,0.029,0.006,-0.023,0.021,0.008,-1.521,0.034,-0.019,81.79,88.8,40.577358,-3.539146,630.3,3,5,116.0,1.406
82.53,1,-0.036,-0.003,-0.002,-0.021,0.013,0.002,-1.521,0.033,-0.019,81.79,88.8,40.577358,-3.539146,630.3,3,5,116.0,1.406
82.62,1,0.018,-0.005,-0.012,-0.013,-0.001,-0.003,-1.521,0.034,-0.019,81.79,88.8,40.577358,-3.539146,630.3,3,5,116.0,1.406
82.72,1,0.031,0.009,-0.008,0.019,0.009,-0.01,-1.52,0.032,-0.019,81.79,88.8,40.577358,-3.539146,630.3,3,5,116.0,1.406
82.82,1,0.011,-0.009,0.007,0.012,-0.002,-0.0,-1.522,0.03,-0.019,81.79,88.8,40.577358,-3.539146,630.3,3,5,116.0,1.406
82.92,1,-0.006,0.016,-0.019,-0.002,-0.0,-0.007,-1.521,0.03,-0.018,81.79,88.8,40.577358,-3.539146,630.3,3,5,116.0,1.406
83.02,1,0.011,0.005,-0.025,0.02,0.01,-0.013,-1.52,0.03,-0.018,81.79,88.8,40.577358,-3.539146,630.3,3,5,116.0,1.406
83.12,1,0.009,0.018,0.001,0.01,0.013,-0.018,-1.521,0.03,-0.018,81.79,88.8,40.577358,-3.539146,630.3,3,5,116.0,1.406
83.23,1,-0.028,-0.008,-0.009,-0.006,0.006,-0.009,-1.521,0.03,-0.018,82.8,88.0,40.577271,-3.538879,630.5,3,5,115.3,1.055
83.33,1,-0.016,0.003,0.019,-0.022,-0.005,0.004,-1.526,0.032,-0.017,82.8,88.0,40.577271,-3.538879,630.5,3,5,115.3,1.055
83.42,1,-0.049,0.02,0.037,-0.035,0.012,0.02,-1.528,0.032,-0.017,82.8,88.0,40.577271,-3.538879,630.5,3,5,115.3,1.055
83.52,1,0.058,0.017,0.065,-0.006,0.011,0.041,-1.531,0.031,-0.017,82.8,88.0,40.577271,-3.538879,630.5,3,5,115.3,1.055
83.62,1,0.044,0.0,0.021,0.043,0.017,0.045,-1.533,0.032,-0.017,82.8,88.0,40.577271,-3.538879,630.5,3,5,115.3,1.055
83.72,1,0.022,0.024,0.066,0.025,0.01,0.042,-1.533,0.033,-0.018,82.8,88.0,40.577271,-3.538879,630.5,3,5,115.3,1.055
83.82,1,-0.024,-0.022,0.044,0.019,-0.011,0.053,-1.536,0.032,-0.018,82.8,88.0,40.577271,-3.538879,630.5,3,5,115.3,1.055
83.92,1,-0.111,-0.012,0.105,-0.048,-0.004,0.073,-1.537,0.032,-0.018,82.8,88.0,40.577271,-3.538879,630.5,3,5,115.3,1.055
84.03,1,0.017,0.018,0.084,-0.039,0.007,0.083,-1.537,0.032,-0.018,82.8,88.0,40.577271,-3.538879,630.5,3,5,115.3,1.055
84.12,1,0.002,0.015,0.044,-0.001,0.008,0.067,-1.538,0.03,-0.018,82.8,88.0,40.577271,-3.538879,630.5,3,5,115.3,1.055
84.22,1,0.008,0.018,0.022,-0.004,0.02,0.041,-1.539,0.029,-0.019,83.76,86.7,40.577183,-3.538621,630.6,3,5,114.6,1.406
84.32,1,-0.012,-0.002,0.069,-0.001,0.011,0.052,-1.543,0.032,-0.019,83.76,86.7,40.577183,-3.538621,630.6,3,5,114.6,1.406
84.43,1,-0.033,-0.006,0.043,-0.023,-0.0,0.049,-1.547,0.031,-0.019,83.76,86.7,40.577183,-3.538621,630.6,3,5,114.6,1.406
84.53,1,-0.059,-0.007,0.035,-0.028,-0.002,0.039,-1.548,0.03,-0.02,83.76,86.7,40.577183,-3.538621,630.6,3,5,114.6,1.406
84.63,1,-0.048,-0.045,0.04,-0.054,-0.022,0.042,-1.55,0.028,-0.02,83.76,86.7,40.577183,-3.538621,630.6,3,5,114.6,1.406
84.73,1,-0.083,0.016,0.051,-0.061,-0.014,0.044,-1.552,0.026,-0.02,83.76,86.7,40.577183,-3.538621,630.6,3,5,114.6,1.406
84.82,1,0.01,0.038,0.079,-0.042,0.023,0.056,-1.552,0.026,-0.021,83.76,86.7,40.577183,-3.538621,630.6,3,5,114.6,1.406
84.93,1,-0.067,-0.015,0.052,-0.031,0.005,0.063,-1.553,0.026,-0.021,83.76,86.7,40.577183,-3.538621,630.6,3,5,114.6,1.406
85.02,1,-0.062,-0.006,0.06,-0.058,-0.002,0.058,-1.553,0.026,-0.021,83.76,86.7,40.577183,-3.538621,630.6,3,5,114.6,1.406
85.12,1,0.056,0.015,0.057,-0.022,0.0,0.059,-1.556,0.028,-0.022,83.76,86.7,40.577183,-3.538621,630.6,3,5,114.6,1.406
85.22,1,0.025,0.027,0.006,0.024,0.014,0.039,-1.559,0.026,-0.022,84.78,87.1,40.577084,-3.538357,631.0,3,5,113.9,1.406
85.33,1,-0.011,0.011,0.006,0.008,0.014,0.017,-1.56,0.022,-0.023,84.78,87.1,40.577084,-3.538357,631.0,3,5,113.9,1.406
85.42,1,-0.03,-0.001,0.033,-0.011,0.009,0.016,-1.562,0.022,-0.023,84.78,87.1,40.577084,-3.538357,631.0,3,5,113.9,1.406
85.53,1,-0.03,0.004,0.009,-0.022,0.004,0.022,-1.565,0.023,-0.023,84.78,87.1,40.577084,-3.538357,631.0,3,5,113.9,1.406
85.62,1,0.006,0.026,0.043,-0.018,0.011,0.03,-1.568,0.02,-0.023,84.78,87.1,40.577084,-3.538357,631.0,3,5,113.9,1.406
85.73,1,0.012,0.008,-0.004,0.003,0.02,0.019,-1.567,0.02,-0.025,84.78,87.1,40.577084,-3.538357,631.0,3,5,113.9,1.406
85.82,1,0.017,-0.004,0.027,0.013,0.004,0.014,-1.568,0.015,-0.026,84.78,87.1,40.577084,-3.538357,631.0,3,5,113.9,1.406
85.93,1,-0.01,0.024,0.012,0.003,0.013,0.017,-1.568,0.012,-0.027,84.78,87.1,40.577084,-3.538357,631.0,3,5,113.9,1.406
86.03,1,-0.043,0.046,0.026,-0.02,0.025,0.016,-1.569,0.013,-0.028,84.78,87.1,40.577084,-3.538357,631.0,3,5,113.9,1.406
86.13,1,-0.069,0.033,0.02,-0.049,0.036,0.023,-1.574,0.014,-0.029,84.78,87.1,40.577084,-3.538357,631.0,3,5,113.9,1.406
86.23,1,0.003,0.05,0.009,-0.025,0.04,0.018,-1.575,0.012,-0.03,85.76,88.1,40.576992,-3.538095,631.2,3,5,113.6,1.055
86.33,1,0.006,-0.008,0.026,-0.001,0.022,0.019,-1.575,0.009,-0.031,85.76,88.1,40.576992,-3.538095,631.2,3,5,113.6,1.055
86.43,1,-0.022,0.009,0.011,-0.019,0.008,0.021,-1.574,0.01,-0.033,85.76,88.1,40.576992,-3.538095,631.2,3,5,113.6,1.055
86.54,1,-0.034,0.04,0.002,-0.027,0.022,0.009,-1.573,0.009,-0.034,85.76,88.1,40.576992,-3.538095,631.2,3,5,113.6,1.055
86.64,1,0.035,0.007,0.002,0.007,0.022,0.003,-1.572,0.005,-0.035,85.76,88.1,40.576992,-3.538095,631.2,3,5,113.6,1.055
86.73,1,-0.033,-0.012,-0.015,-0.015,0.002,-0.003,-1.573,0.009,-0.036,85.76,88.1,40.576992,-3.538095,631.2,3,5,113.6,1.055
86.83,1,0.063,0.015,-0.002,0.024,0.003,-0.005,-1.571,0.011,-0.038,85.76,88.1,40.576992,-3.538095,631.2,3,5,113.6,1.055
86.93,1,-0.053,0.016,-0.014,-0.006,0.008,-0.002,-1.569,0.011,-0.039,85.76,88.1,40.576992,-3.538095,631.2,3,5,113.6,1.055
87.03,1,-0.013,0.048,0.001,-0.013,0.028,-0.011,-1.569,0.01,-0.04,85.76,88.1,40.576992,-3.538095,631.2,3,5,113.6,1.055
87.14,1,-0.056,0.019,-0.022,-0.031,0.033,-0.012,-1.571,0.009,-0.041,85.76,88.1,40.576992,-3.538095,631.2,3,5,113.6,1.055
87.23,1,-0.049,-0.004,-0.026,-0.05,0.01,-0.02,-1.571,0.011,-0.042,86.77,88.8,40.576908,-3.537827,631.6,3,5,113.6,0.352
87.33,1,-0.016,-0.006,-0.01,-0.032,-0.001,-0.016,-1.57,0.009,-0.043,86.77,88.8,40.576908,-3.537827,631.6,3,5,113.6,0.352
87.43,1,0.061,0.006,-0.013,0.008,0.001,-0.012,-1.571,0.008,-0.045,86.77,88.8,40.576908,-3.537827,631.6,3,5,113.6,0.352
87.53,1,0.063,0.019,-0.028,0.05,0.014,-0.017,-1.569,0.007,-0.046,86.77,88.8,40.576908,-3.537827,631.6,3,5,113.6,0.352
87.63,1,-0.031,0.005,-0.035,0.019,0.012,-0.033,-1.567,0.007,-0.047,86.77,88.8,40.576908,-3.537827,631.6,3,5,113.6,0.352
87.73,1,-0.121,0.001,0.007,-0.047,0.006,-0.012,-1.567,0.009,-0.048,86.77,88.8,40.576908,-3.537827,631.6,3,5,113.6,0.352
87.83,1,-0.077,0.022,-0.015,-0.075,0.007,-0.01,-1.569,0.009,-0.049,86.77,88.8,40.576908,-3.537827,631.6,3,5,113.6,0.352
87.93,1,-0.113,0.009,-0.004,-0.097,0.013,-0.009,-1.568,0.01,-0.049,86.77,88.8,40.576908,-3.537827,631.6,3,5,113.6,0.352
88.03,1,0.143,0.025,0.005,0.002,0.013,0.001,-1.561,0.01,-0.05,86.77,88.8,40.576908,-3.537827,631.6,3,5,113.6,0.352
88.13,1,-0.057,-0.011,-0.033,0.009,0.012,-0.018,-1.559,0.011,-0.05,86.77,88.8,40.576908,-3.537827,631.6,3,5,113.6,0.352
88.24,1,0.093,-0.042,-0.001,0.018,-0.019,-0.017,-1.557,0.01,-0.051,87.76,89.7,40.576817,-3.537564,632.2,3,5,113.6,0.0
88.34,1,0.058,-0.02,0.012,0.063,-0.018,0.004,-1.558,0.01,-0.051,87.76,89.7,40.576817,-3.537564,632.2,3,5,113.6,0.0
88.44,1,-0.03,-0.001,-0.014,0.016,-0.017,-0.0,-1.557,0.011,-0.052,87.76,89.7,40.576817,-3.537564,632.2,3,5,113.6,0.0
88.53,1,-0.027,0.013,0.009,-0.003,0.003,-0.005,-1.552,0.011,-0.053,87.76,89.7,40.576817,-3.537564,632.2,3,5,113.6,0.0
88.63,1,-0.021,0.01,0.025,-0.013,-0.0,0.012,-1.549,0.009,-0.054,87.76,89.7,40.576817,-3.537564,632.2,3,5,113.6,0.0
88.73,1,-0.024,-0.026,0.015,-0.032,-0.006,0.021,-1.546,0.009,-0.055,87.76,89.7,40.576817,-3.537564,632.2,3,5,113.6,0.0
88.83,1,-0.016,0.029,0.021,-0.02,0.005,0.014,-1.547,0.012,-0.056,87.76,89.7,40.576817,-3.537564,632.2,3,5,113.6,0.0
88.93,1,-0.019,-0.005,0.038,-0.032,0.011,0.026,-1.549,0.013,-0.057,87.76,89.7,40.576817,-3.537564,632.2,3,5,113.6,0.0
89.04,1,-0.041,-0.003,0.01,-0.02,-0.004,0.026,-1.549,0.014,-0.057,87.76,89.7,40.576817,-3.537564,632.2,3,5,113.6,0.0
89.13,1,0.0,0.007,0.019,-0.013,-0.003,0.02,-1.549,0.015,-0.058,87.76,89.7,40.576817,-3.537564,632.2,3,5,113.6,0.0
89.23,1,-0.013,0.038,-0.035,-0.009,0.018,0.001,-1.55,0.014,-0.06,88.76,89.7,40.576725,-3.537294,632.3,3,5,113.6,0.0
89.33,1,-0.065,-0.001,-0.02,-0.031,0.023,-0.029,-1.55,0.015,-0.061,88.76,89.7,40.576725,-3.537294,632.3,3,5,113.6,0.0
89.43,1,-0.086,-0.05,-0.02,-0.084,-0.015,-0.017,-1.551,0.018,-0.062,88.76,89.7,40.576725,-3.537294,632.3,3,5,113.6,0.0
89.53,1,0.082,0.043,-0.001,-0.003,-0.005,-0.013,-1.549,0.015,-0.065,88.76,89.7,40.576725,-3.537294,632.3,3,5,113.6,0.0
89.63,1,0.062,0.032,-0.053,0.046,0.027,-0.019,-1.546,0.01,-0.067,88.76,89.7,40.576725,-3.537294,632.3,3,5,113.6,0.0
89.74,1,0.039,0.066,-0.018,0.041,0.046,-0.035,-1.543,0.009,-0.069,88.76,89.7,40.576725,-3.537294,632.3,3,5,113.6,0.0
89.83,1,-0.024,0.012,-0.002,0.01,0.032,-0.012,-1.544,0.01,-0.07,88.76,89.7,40.576725,-3.537294,632.3,3,5,113.6,0.0
89.93,1,-0.103,-0.004,0.01,-0.031,0.017,-0.002,-1.544,0.009,-0.071,88.76,89.7,40.576725,-3.537294,632.3,3,5,113.6,0.0
90.03,1,-0.047,0.027,-0.002,-0.069,0.009,-0.003,-1.545,0.004,-0.073,88.76,89.7,40.576725,-3.537294,632.3,3,5,113.6,0.0
90.13,1,-0.029,-0.001,0.015,-0.047,0.015,0.001,-1.545,-0.002,-0.075,88.76,89.7,40.576725,-3.537294,632.3,3,5,113.6,0.0
90.24,1,-0.055,0.007,-0.015,-0.049,0.012,0.011,-1.544,-0.002,-0.077,89.82,89.2,40.576633,-3.537015,632.4,3,5,113.2,0.352
90.34,1,0.04,-0.03,0.065,-0.009,-0.009,0.017,-1.548,-0.0,-0.077,89.82,89.2,40.576633,-3.537015,632.4,3,5,113.2,0.352
90.44,1,0.051,-0.0,0.027,0.042,-0.014,0.036,-1.551,-0.001,-0.078,89.82,89.2,40.576633,-3.537015,632.4,3,5,113.2,0.352
90.54,1,-0.019,-0.012,0.021,0.013,-0.009,0.031,-1.555,-0.004,-0.08,89.82,89.2,40.576633,-3.537015,632.4,3,5,113.2,0.352
90.64,1,0.037,0.015,0.027,0.014,-0.0,0.023,-1.557,-0.005,-0.082,89.82,89.2,40.576633,-3.537015,632.4,3,5,113.2,0.352
90.74,1,-0.037,-0.001,0.023,0.008,0.006,0.027,-1.559,-0.006,-0.084,89.82,89.2,40.576633,-3.537015,632.4,3,5,113.2,0.352
90.84,1,-0.076,0.005,0.036,-0.049,0.001,0.025,-1.561,-0.006,-0.085,89.82,89.2,40.576633,-3.537015,632.4,3,5,113.2,0.352
90.94,1,-0.017,-0.003,0.044,-0.04,-0.001,0.038,-1.565,-0.006,-0.087,89.82,89.2,40.576633,-3.537015,632.4,3,5,113.2,0.352
91.04,1,0.018,0.023,0.019,-0.017,0.008,0.03,-1.564,-0.007,-0.09,89.82,89.2,40.576633,-3.537015,632.4,3,5,113.2,0.352
91.14,1,0.013,0.021,0.01,0.015,0.014,0.02,-1.564,-0.011,-0.094,89.82,89.2,40.576633,-3.537015,632.4,3,5,113.2,0.352
91.24,1,-0.058,0.061,-0.034,-0.017,0.04,-0.004,-1.567,-0.017,-0.098,90.76,89.0,40.576542,-3.536751,632.5,3,5,113.9,0.703
91.34,1,-0.033,0.018,0.059,-0.036,0.036,0.017,-1.572,-0.022,-0.101,90.76,89.0,40.576542,-3.536751,632.5,3,5,113.9,0.703
91.45,1,-0.033,0.05,0.025,-0.029,0.034,0.031,-1.572,-0.023,-0.104,90.76,89.0,40.576542,-3.536751,632.5,3,5,113.9,0.703
91.54,1,-0.069,0.094,0.024,-0.055,0.066,0.015,-1.573,-0.027,-0.108,90.76,89.0,40.576542,-3.536751,632.5,3,5,113.9,0.703
91.65,1,-0.016,0.03,0.045,-0.034,0.054,0.04,-1.576,-0.031,-0.111,90.76,89.0,40.576542,-3.536751,632.5,3,5,113.9,0.703
91.74,1,0.022,0.013,0.017,-0.02,0.036,0.029,-1.575,-0.032,-0.115,90.76,89.0,40.576542,-3.536751,632.5,3,5,113.9,0.703
91.84,1,0.041,0.012,0.015,0.025,0.021,0.025,-1.578,-0.034,-0.119,90.76,89.0,40.576542,-3.536751,632.5,3,5,113.9,0.703
91.94,1,0.01,-0.007,0.012,0.019,0.009,0.013,-1.577,-0.035,-0.122,90.76,89.0,40.576542,-3.536751,632.5,3,5,113.9,0.703
92.04,1,-0.027,0.01,0.011,0.008,0.007,0.014,-1.577,-0.035,-0.125,90.76,89.0,40.576542,-3.536751,632.5,3,5,113.9,0.703
92.14,1,-0.037,-0.009,0.016,-0.025,-0.003,0.014,-1.581,-0.035,-0.127,90.76,89.0,40.576542,-3.536751,632.5,3,5,113.9,0.703
92.25,1,-0.032,-0.024,0.036,-0.034,-0.008,0.021,-1.583,-0.033,-0.129,91.76,89.5,40.576439,-3.536476,632.7,3,5,114.6,1.406
92.34,1,-0.038,-0.038,0.027,-0.031,-0.031,0.031,-1.586,-0.03,-0.129,91.76,89.5,40.576439,-3.536476,632.7,3,5,114.6,1.406
92.44,1,-0.022,-0.063,0.0,-0.032,-0.042,0.019,-1.586,-0.029,-0.13,91.76,89.5,40.576439,-3.536476,632.7,3,5,114.6,1.406
92.54,1,-0.014,-0.063,0.005,-0.018,-0.06,0.006,-1.586,-0.028,-0.131,91.76,89.5,40.576439,-3.536476,632.7,3,5,114.6,1.406
92.65,1,-0.02,-0.041,-0.037,-0.021,-0.048,-0.013,-1.585,-0.026,-0.132,91.76,89.5,40.576439,-3.536476,632.7,3,5,114.6,1.406
92.74,1,-0.0,-0.032,-0.019,-0.015,-0.039,-0.023,-1.585,-0.029,-0.133,91.76,89.5,40.576439,-3.536476,632.7,3,5,114.6,1.406
92.85,1,-0.026,-0.039,0.019,-0.02,-0.042,0.0,-1.583,-0.032,-0.135,91.76,89.5,40.576439,-3.536476,632.7,3,5,114.6,1.406
92.94,1,0.041,-0.034,-0.014,0.006,-0.034,-0.004,-1.582,-0.031,-0.137,91.76,89.5,40.576439,-3.536476,632.7,3,5,114.6,1.406
93.04,1,-0.021,0.01,-0.032,0.011,-0.023,-0.017,-1.577,-0.03,-0.138,91.76,89.5,40.576439,-3.536476,632.7,3,5,114.6,1.406
93.14,1,-0.031,-0.018,-0.01,-0.021,-0.008,-0.021,-1.575,-0.029,-0.139,91.76,89.5,40.576439,-3.536476,632.7,3,5,114.6,1.406
93.24,1,-0.061,-0.039,-0.017,-0.034,-0.026,-0.013,-1.574,-0.025,-0.14,92.76,90.7,40.576344,-3.536204,633.1,3,5,116.0,2.109
93.35,1,-0.011,-0.041,0.004,-0.046,-0.035,-0.006,-1.574,-0.025,-0.141,92.76,90.7,40.576344,-3.536204,633.1,3,5,116.0,2.109
93.44,1,0.015,-0.032,-0.021,-0.005,-0.033,-0.01,-1.574,-0.024,-0.142,92.76,90.7,40.576344,-3.536204,633.1,3,5,116.0,2.109
93.54,1,-0.086,-0.039,-0.057,-0.036,-0.036,-0.033,-1.57,-0.024,-0.143,92.76,90.7,40.576344,-3.536204,633.1,3,5,116.0,2.109
93.64,1,-0.028,0.014,-0.033,-0.042,-0.018,-0.042,-1.564,-0.021,-0.144,92.76,90.7,40.576344,-3.536204,633.1,3,5,116.0,2.109
93.74,1,-0.025,-0.004,-0.007,-0.03,-0.002,-0.026,-1.565,-0.021,-0.145,92.76,90.7,40.576344,-3.536204,633.1,3,5,116.0,2.109
93.84,1,-0.07,0.01,-0.037,-0.037,-0.001,-0.02,-1.564,-0.019,-0.147,92.76,90.7,40.576344,-3.536204,633.1,3,5,116.0,2.109
93.95,1,0.021,-0.014,-0.044,-0.023,0.0,-0.036,-1.563,-0.018,-0.148,92.76,90.7,40.576344,-3.536204,633.1,3,5,116.0,2.109
94.05,1,-0.0,-0.042,-0.051,-0.008,-0.025,-0.047,-1.56,-0.014,-0.149,92.76,90.7,40.576344,-3.536204,633.1,3,5,116.0,2.109
94.14,1,0.001,-0.019,-0.027,-0.0,-0.026,-0.038,-1.559,-0.012,-0.151,92.76,90.7,40.576344,-3.536204,633.1,3,5,116.0,2.109
94.24,1,-0.022,0.012,0.008,-0.015,-0.008,-0.02,-1.56,-0.012,-0.152,93.76,91.4,40.576248,-3.535932,633.5,3,5,116.7,2.109
94.34,1,0.004,0.014,-0.013,-0.0,0.008,-0.009,-1.559,-0.011,-0.153,93.76,91.4,40.576248,-3.535932,633.5,3,5,116.7,2.109
94.44,1,-0.043,-0.029,-0.052,-0.022,-0.01,-0.019,-1.557,-0.011,-0.154,93.76,91.4,40.576248,-3.535932,633.5,3,5,116.7,2.109
94.54,1,-0.008,-0.018,-0.041,-0.022,-0.016,-0.041,-1.556,-0.012,-0.155,93.76,91.4,40.576248,-3.535932,633.5,3,5,116.7,2.109
94.64,1,-0.036,-0.0,-0.05,-0.028,-0.008,-0.048,-1.553,-0.011,-0.157,93.76,91.4,40.576248,-3.535932,633.5,3,5,116.7,2.109
94.75,1,-0.022,0.012,-0.038,-0.019,0.0,-0.044,-1.55,-0.01,-0.158,93.76,91.4,40.576248,-3.535932,633.5,3,5,116.7,2.109
94.84,1,-0.046,-0.018,-0.04,-0.044,-0.003,-0.044,-1.55,-0.012,-0.16,93.76,91.4,40.576248,-3.535932,633.5,3,5,116.7,2.109
94.94,1,0.052,0.004,-0.002,0.003,-0.009,-0.025,-1.55,-0.013,-0.162,93.76,91.4,40.576248,-3.535932,633.5,3,5,116.7,2.109
95.04,1,-0.111,0.003,-0.053,-0.038,0.006,-0.031,-1.548,-0.014,-0.165,93.76,91.4,40.576248,-3.535932,633.5,3,5,116.7,2.109
95.14,1,-0.034,0.036,-0.046,-0.047,0.01,-0.037,-1.541,-0.017,-0.167,93.76,91.4,40.576248,-3.535932,633.5,3,5,116.7,2.109
95.25,1,-0.024,0.013,-0.05,-0.03,0.023,-0.047,-1.536,-0.024,-0.169,94.75,89.7,40.576138,-3.535672,633.6,3,5,116.7,0.703
95.35,1,-0.078,0.031,-0.023,-0.046,0.018,-0.035,-1.535,-0.026,-0.172,94.75,89.7,40.576138,-3.535672,633.6,3,5,116.7,0.703
95.45,1,-0.027,0.006,-0.019,-0.052,0.02,-0.022,-1.536,-0.026,-0.174,94.75,89.7,40.576138,-3.535672,633.6,3,5,116.7,0.703
95.55,1,-0.029,0.027,-0.03,-0.037,0.019,-0.03,-1.534,-0.028,-0.176,94.75,89.7,40.576138,-3.535672,633.6,3,5,116.7,0.703
95.65,1,-0.045,0.037,-0.031,-0.046,0.027,-0.03,-1.53,-0.03,-0.178,94.75,89.7,40.576138,-3.535672,633.6,3,5,116.7,0.703
95.75,1,0.042,0.025,-0.039,0.003,0.034,-0.034,-1.529,-0.028,-0.18,94.75,89.7,40.576138,-3.535672,633.6,3,5,116.7,0.703
95.85,1,-0.08,-0.034,-0.015,-0.013,-0.007,-0.025,-1.528,-0.027,-0.182,94.75,89.7,40.576138,-3.535672,633.6,3,5,116.7,0.703
95.95,1,-0.043,-0.017,-0.069,-0.045,-0.01,-0.042,-1.528,-0.024,-0.184,94.75,89.7,40.576138,-3.535672,633.6,3,5,116.7,0.703
96.05,1,0.014,-0.001,-0.018,-0.025,-0.004,-0.039,-1.528,-0.023,-0.185,94.75,89.7,40.576138,-3.535672,633.6,3,5,116.7,0.703
96.15,1,-0.069,-0.052,-0.007,-0.042,-0.025,-0.021,-1.528,-0.023,-0.186,94.75,89.7,40.576138,-3.535672,633.6,3,5,116.7,0.703
96.25,1,-0.021,-0.025,-0.04,-0.038,-0.035,-0.024,-1.524,-0.022,-0.188,95.76,87.4,40.576046,-3.535404,634.1,3,5,117.4,0.703
96.35,1,0.037,-0.006,0.028,-0.002,-0.021,-0.01,-1.522,-0.021,-0.189,95.76,87.4,40.576046,-3.535404,634.1,3,5,117.4,0.703
96.46,1,0.023,-0.014,0.008,0.017,-0.01,0.004,-1.523,-0.022,-0.191,95.76,87.4,40.576046,-3.535404,634.1,3,5,117.4,0.703
96.55,1,-0.011,-0.013,0.013,0.01,-0.009,0.014,-1.523,-0.024,-0.192,95.76,87.4,40.576046,-3.535404,634.1,3,5,117.4,0.703
96.65,1,0.035,-0.03,0.036,0.019,-0.018,0.018,-1.524,-0.025,-0.193,95.76,87.4,40.576046,-3.535404,634.1,3,5,117.4,0.703
96.75,1,0.006,-0.005,0.053,0.022,-0.016,0.041,-1.53,-0.025,-0.194,95.76,87.4,40.576046,-3.535404,634.1,3,5,117.4,0.703
96.85,1,-0.02,-0.004,0.038,-0.01,-0.007,0.037,-1.543,-0.022,-0.195,95.76,87.4,40.576046,-3.535404,634.1,3,5,117.4,0.703
96.95,1,0.005,-0.026,0.024,-0.006,-0.016,0.031,-1.549,-0.018,-0.196,95.76,87.4,40.576046,-3.535404,634.1,3,5,117.4,0.703
97.05,1,0.021,0.012,0.032,0.013,-0.01,0.031,-1.555,-0.014,-0.197,95.76,87.4,40.576046,-3.535404,634.1,3,5,117.4,0.703
97.16,1,0.019,-0.02,0.027,0.013,-0.01,0.028,-1.558,-0.014,-0.198,95.76,87.4,40.576046,-3.535404,634.1,3,5,117.4,0.703
97.25,1,-0.003,-0.005,0.072,0.011,-0.016,0.049,-1.559,-0.014,-0.198,96.79,84.9,40.575939,-3.535159,634.6,3,5,118.5,1.758
97.35,1,-0.03,-0.014,0.037,-0.022,-0.007,0.049,-1.561,-0.01,-0.199,96.79,84.9,40.575939,-3.535159,634.6,3,5,118.5,1.758
97.45,1,0.051,-0.017,0.016,0.019,-0.015,0.034,-1.566,-0.008,-0.2,96.79,84.9,40.575939,-3.535159,634.6,3,5,118.5,1.758
97.55,1,-0.014,-0.006,0.002,0.009,-0.006,0.015,-1.57,-0.007,-0.201,96.79,84.9,40.575939,-3.535159,634.6,3,5,118.5,1.758
97.65,1,0.01,0.003,-0.006,0.009,-0.003,0.005,-1.574,-0.008,-0.202,96.79,84.9,40.575939,-3.535159,634.6,3,5,118.5,1.758
97.75,1,-0.072,-0.041,0.025,-0.031,-0.024,0.015,-1.58,-0.009,-0.202,96.79,84.9,40.575939,-3.535159,634.6,3,5,118.5,1.758
97.85,1,0.023,-0.048,-0.014,-0.027,-0.031,0.003,-1.58,-0.01,-0.202,96.79,84.9,40.575939,-3.535159,634.6,3,5,118.5,1.758
97.95,1,0.001,-0.022,0.004,0.006,-0.034,-0.003,-1.582,-0.01,-0.203,96.79,84.9,40.575939,-3.535159,634.6,3,5,118.5,1.758
98.05,1,-0.016,-0.036,0.0,-0.011,-0.03,0.002,-1.585,-0.007,-0.204,96.79,84.9,40.575939,-3.535159,634.6,3,5,118.5,1.758
98.15,1,-0.04,0.012,-0.006,-0.013,-0.016,-0.002,-1.587,-0.006,-0.205,96.79,84.9,40.575939,-3.535159,634.6,3,5,118.5,1.758
98.25,1,-0.028,-0.031,0.003,-0.024,-0.017,-0.004,-1.586,-0.003,-0.206,97.77,85.7,40.575836,-3.534919,634.9,3,5,119.2,1.758
98.35,1,-0.029,0.018,-0.006,-0.027,-0.004,-0.007,-1.587,-0.005,-0.208,97.77,85.7,40.575836,-3.534919,634.9,3,5,119.2,1.758
98.45,1,-0.002,0.008,0.015,-0.021,0.01,0.005,-1.587,-0.004,-0.209,97.77,85.7,40.575836,-3.534919,634.9,3,5,119.2,1.758
98.56,1,-0.002,-0.006,-0.0,-0.015,-0.002,0.012,-1.586,-0.005,-0.211,97.77,85.7,40.575836,-3.534919,634.9,3,5,119.2,1.758
98.65,1,0.038,0.026,-0.015,0.016,0.011,-0.004,-1.585,-0.009,-0.212,97.77,85.7,40.575836,-3.534919,634.9,3,5,119.2,1.758
98.75,1,-0.045,-0.026,0.003,0.002,-0.002,-0.004,-1.589,-0.011,-0.214,97.77,85.7,40.575836,-3.534919,634.9,3,5,119.2,1.758
98.85,1,0.077,-0.001,0.009,0.018,-0.012,0.005,-1.591,-0.012,-0.215,97.77,85.7,40.575836,-3.534919,634.9,3,5,119.2,1.758
98.96,1,-0.09,0.007,-0.003,-0.008,-0.002,-0.004,-1.592,-0.016,-0.216,97.77,85.7,40.575836,-3.534919,634.9,3,5,119.2,1.758
99.06,1,0.015,0.009,0.01,-0.032,0.01,0.002,-1.59,-0.018,-0.217,97.77,85.7,40.575836,-3.534919,634.9,3,5,119.2,1.758
99.16,1,0.037,-0.008,0.027,0.022,0.003,0.015,-1.587,-0.018,-0.218,97.77,85.7,40.575836,-3.534919,634.9,3,5,119.2,1.758
99.26,1,-0.031,-0.026,-0.005,-0.004,-0.015,0.014,-1.583,-0.019,-0.219,98.75,85.4,40.575729,-3.534675,635.6,3,5,119.5,1.055
99.36,1,-0.006,-0.0,0.059,-0.021,-0.008,0.025,-1.587,-0.02,-0.221,98.75,85.4,40.575729,-3.534675,635.6,3,5,119.5,1.055
99.45,1,-0.033,-0.017,0.045,-0.007,-0.009,0.046,-1.588,-0.021,-0.223,98.75,85.4,40.575729,-3.534675,635.6,3,5,119.5,1.055
99.55,1,-0.021,0.007,-0.004,-0.022,-0.003,0.024,-1.586,-0.025,-0.225,98.75,85.4,40.575729,-3.534675,635.6,3,5,119.5,1.055
99.65,1,-0.044,0.035,0.04,-0.034,0.012,0.021,-1.588,-0.026,-0.227,98.75,85.4,40.575729,-3.534675,635.6,3,5,119.5,1.055
99.75,1,0.01,0.039,0.031,-0.007,0.028,0.034,-1.587,-0.026,-0.229,98.75,85.4,40.575729,-3.534675,635.6,3,5,119.5,1.055
99.85,1,0.079,-0.009,0.017,0.022,0.014,0.024,-1.585,-0.025,-0.231,98.75,85.4,40.575729,-3.534675,635.6,3,5,119.5,1.055
99.96,1,-0.015,0.01,-0.006,0.025,0.009,0.007,-1.586,-0.023,-0.233,98.75,85.4,40.575729,-3.534675,635.6,3,5,119.5,1.055
100.06,1,0.009,0.018,0.016,0.002,0.012,0.005,-1.587,-0.024,-0.236,98.75,85.4,40.575729,-3.534675,635.6,3,5,119.5,1.055
100.16,1,-0.042,-0.025,-0.018,-0.006,-0.0,0.002,-1.588,-0.027,-0.238,98.75,85.4,40.575729,-3.534675,635.6,3,5,119.5,1.055
100.26,1,-0.106,0.005,0.011,-0.061,-0.003,0.002,-1.591,-0.033,-0.239,99.81,86.6,40.575619,-3.534431,636.4,3,5,120.6,1.406
100.36,1,-0.027,-0.004,-0.007,-0.059,-0.003,0.001,-1.592,-0.033,-0.241,99.81,86.6,40.575619,-3.534431,636.4,3,5,120.6,1.406
100.47,1,-0.01,0.001,-0.013,-0.03,0.0,-0.009,-1.592,-0.032,-0.243,99.81,86.6,40.575619,-3.534431,636.4,3,5,120.6,1.406
100.56,1,0.043,-0.004,0.028,0.006,-0.007,0.008,-1.592,-0.037,-0.245,99.81,86.6,40.575619,-3.534431,636.4,3,5,120.6,1.406
100.66,1,0.034,0.007,0.019,0.027,0.008,0.018,-1.591,-0.04,-0.247,99.81,86.6,40.575619,-3.534431,636.4,3,5,120.6,1.406
100.76,1,-0.031,-0.033,-0.004,0.007,-0.012,0.008,-1.591,-0.039,-0.248,99.81,86.6,40.575619,-3.534431,636.4,3,5,120.6,1.406
100.86,1,-0.117,-0.046,0.002,-0.064,-0.033,0.001,-1.592,-0.035,-0.249,99.81,86.6,40.575619,-3.534431,636.4,3,5,120.6,1.406
100.96,1,0.002,-0.04,0.032,-0.048,-0.036,0.008,-1.596,-0.034,-0.249,99.81,86.6,40.575619,-3.534431,636.4,3,5,120.6,1.406
101.06,1,-0.026,-0.034,0.021,-0.022,-0.041,0.029,-1.597,-0.033,-0.249,99.81,86.6,40.575619,-3.534431,636.4,3,5,120.6,1.406
101.17,1,0.094,-0.059,0.045,0.023,-0.044,0.03,-1.592,-0.03,-0.248,99.81,86.6,40.575619,-3.534431,636.4,3,5,120.6,1.406
101.26,1,-0.003,-0.057,-0.026,0.04,-0.054,0.013,-1.588,-0.025,-0.247,100.82,87.0,40.575512,-3.534186,637.1,3,5,121.6,2.109
101.36,1,-0.119,-0.053,-0.1,-0.064,-0.056,-0.051,-1.589,-0.022,-0.247,100.82,87.0,40.575512,-3.534186,637.1,3,5,121.6,2.109
101.46,1,-0.064,-0.041,0.121,-0.083,-0.051,0.008,-1.599,-0.026,-0.246,100.82,87.0,40.575512,-3.534186,637.1,3,5,121.6,2.109
101.56,1,0.001,0.031,0.03,-0.06,-0.01,0.056,-1.593,-0.029,-0.247,100.82,87.0,40.575512,-3.534186,637.1,3,5,121.6,2.109
101.66,1,0.259,-0.02,0.006,0.109,-0.002,0.025,-1.585,-0.028,-0.248,100.82,87.0,40.575512,-3.534186,637.1,3,5,121.6,2.109
101.76,1,-0.004,-0.024,-0.051,0.125,-0.019,-0.019,-1.584,-0.027,-0.248,100.82,87.0,40.575512,-3.534186,637.1,3,5,121.6,2.109
101.96,1,-0.067,-0.025,0.079,-0.035,-0.027,0.036,-1.6,-0.024,-0.248,100.82,87.0,40.575512,-3.534186,637.1,3,5,121.6,2.109
102.06,1,-0.114,-0.023,0.008,-0.084,-0.022,0.037,-1.6,-0.02,-0.248,100.82,87.0,40.575512,-3.534186,637.1,3,5,121.6,2.109
102.16,1,0.011,-0.043,0.005,-0.049,-0.028,0.018,-1.599,-0.015,-0.248,100.82,87.0,40.575512,-3.534186,637.1,3,5,121.6,2.109
102.27,1,0.036,-0.035,-0.01,0.007,-0.037,-0.0,-1.598,-0.016,-0.248,100.82,87.0,40.575512,-3.534186,637.1,3,5,121.6,2.109
102.36,1,-0.024,-0.03,-0.03,-0.004,-0.033,-0.015,-1.6,-0.014,-0.248,101.77,88.3,40.575397,-3.533937,637.6,3,5,122.7,2.109
102.46,1,0.021,-0.017,-0.011,0.01,-0.028,-0.015,-1.6,-0.013,-0.247,101.77,88.3,40.575397,-3.533937,637.6,3,5,122.7,2.109
102.56,1,-0.013,-0.021,0.009,-0.002,-0.019,-0.004,-1.604,-0.011,-0.247,101.77,88.3,40.575397,-3.533937,637.6,3,5,122.7,2.109
102.66,1,0.02,-0.008,-0.027,-0.002,-0.02,-0.013,-1.601,-0.007,-0.247,101.77,88.3,40.575397,-3.533937,637.6,3,5,122.7,2.109
102.76,1,0.051,-0.018,0.024,0.029,-0.015,0.003,-1.6,-0.007,-0.247,101.77,88.3,40.575397,-3.533937,637.6,3,5,122.7,2.109
102.86,1,-0.04,-0.015,-0.001,0.015,-0.018,0.005,-1.6,-0.005,-0.246,101.77,88.3,40.575397,-3.533937,637.6,3,5,122.7,2.109
102.96,1,-0.106,-0.035,0.008,-0.046,-0.02,0.008,-1.601,-0.002,-0.245,101.77,88.3,40.575397,-3.533937,637.6,3,5,122.7,2.109
103.07,1,-0.061,0.015,0.017,-0.075,-0.011,0.005,-1.604,0.001,-0.245,101.77,88.3,40.575397,-3.533937,637.6,3,5,122.7,2.109
103.17,1,0.015,0.037,0.026,-0.043,0.013,0.019,-1.603,-0.003,-0.246,101.77,88.3,40.575397,-3.533937,637.6,3,5,122.7,2.109
103.26,1,-0.005,0.028,-0.022,0.003,0.028,0.005,-1.599,-0.006,-0.247,101.77,88.3,40.575397,-3.533937,637.6,3,5,122.7,2.109
103.36,1,0.052,0.003,-0.014,0.013,0.015,-0.012,-1.597,-0.007,-0.246,102.76,87.6,40.575283,-3.533703,638.2,3,5,123.4,1.758
103.46,1,0.051,-0.002,-0.017,0.042,0.009,-0.014,-1.598,-0.005,-0.246,102.76,87.6,40.575283,-3.533703,638.2,3,5,123.4,1.758
103.56,1,-0.054,-0.008,0.007,0.007,0.0,-0.003,-1.599,-0.002,-0.245,102.76,87.6,40.575283,-3.533703,638.2,3,5,123.4,1.758
103.67,1,0.003,-0.005,-0.012,-0.019,-0.012,-0.006,-1.601,-0.002,-0.245,102.76,87.6,40.575283,-3.533703,638.2,3,5,123.4,1.758
103.76,1,0.019,0.006,-0.003,0.015,0.006,-0.006,-1.598,-0.005,-0.245,102.76,87.6,40.575283,-3.533703,638.2,3,5,123.4,1.758
103.86,1,0.05,-0.012,-0.002,0.021,-0.007,-0.002,-1.599,-0.006,-0.245,102.76,87.6,40.575283,-3.533703,638.2,3,5,123.4,1.758
103.96,1,0.016,0.002,-0.005,0.034,-0.001,-0.004,-1.597,-0.003,-0.244,102.76,87.6,40.575283,-3.533703,638.2,3,5,123.4,1.758
104.06,1,0.003,0.007,0.004,0.019,0.011,-0.004,-1.598,-0.003,-0.244,102.76,87.6,40.575283,-3.533703,638.2,3,5,123.4,1.758
104.17,1,-0.079,-0.028,-0.02,-0.035,-0.019,-0.015,-1.595,-0.004,-0.243,102.76,87.6,40.575283,-3.533703,638.2,3,5,123.4,1.758
104.27,1,-0.037,-0.027,0.051,-0.047,-0.017,0.016,-1.598,-0.0,-0.243,102.76,87.6,40.575283,-3.533703,638.2,3,5,123.4,1.758
104.37,1,-0.034,-0.011,0.009,-0.036,-0.024,0.023,-1.598,-0.001,-0.243,103.75,89.7,40.575161,-3.533453,638.9,3,5,123.0,0.352
104.46,1,0.021,0.014,-0.037,-0.015,0.0,-0.002,-1.597,-0.001,-0.242,103.75,89.7,40.575161,-3.533453,638.9,3,5,123.0,0.352
104.56,1,0.019,0.008,0.032,0.001,0.001,0.003,-1.599,-0.0,-0.241,103.75,89.7,40.575161,-3.533453,638.9,3,5,123.0,0.352
104.66,1,0.007,-0.012,0.001,0.011,-0.001,0.011,-1.601,0.0,-0.241,103.75,89.7,40.575161,-3.533453,638.9,3,5,123.0,0.352
104.77,1,0.022,0.018,0.002,0.025,0.006,-0.002,-1.599,-0.001,-0.241,103.75,89.7,40.575161,-3.533453,638.9,3,5,123.0,0.352
104.87,1,-0.064,0.002,0.002,-0.019,0.006,0.002,-1.598,-0.003,-0.241,103.75,89.7,40.575161,-3.533453,638.9,3,5,123.0,0.352
104.98,1,0.005,-0.007,-0.003,-0.025,0.001,-0.001,-1.599,-0.005,-0.241,103.75,89.7,40.575161,-3.533453,638.9,3,5,123.0,0.352
105.08,1,0.054,0.008,-0.026,0.021,-0.003,-0.008,-1.599,-0.008,-0.241,103.75,89.7,40.575161,-3.533453,638.9,3,5,123.0,0.352
105.17,1,-0.01,0.002,-0.041,0.014,0.01,-0.029,-1.598,-0.008,-0.241,103.75,89.7,40.575161,-3.533453,638.9,3,5,123.0,0.352
105.27,1,-0.007,0.032,-0.019,0.003,0.009,-0.026,-1.597,-0.009,-0.24,103.75,89.7,40.575161,-3.533453,638.9,3,5,123.0,0.352
105.37,1,-0.065,0.008,0.006,-0.035,0.022,-0.013,-1.596,-0.013,-0.24,104.75,90.3,40.575031,-3.533212,639.6,3,5,123.0,0.352
105.47,1,-0.02,-0.01,-0.03,-0.02,0.0,-0.011,-1.592,-0.015,-0.24,104.75,90.3,40.575031,-3.533212,639.6,3,5,123.0,0.352
105.57,1,0.011,-0.006,-0.02,-0.019,-0.002,-0.025,-1.591,-0.016,-0.239,104.75,90.3,40.575031,-3.533212,639.6,3,5,123.0,0.352
105.67,1,-0.007,0.006,-0.034,0.003,-0.007,-0.026,-1.593,-0.013,-0.239,104.75,90.3,40.575031,-3.533212,639.6,3,5,123.0,0.352
105.77,1,-0.073,-0.009,-0.053,-0.039,0.005,-0.035,-1.592,-0.009,-0.239,104.75,90.3,40.575031,-3.533212,639.6,3,5,123.0,0.352
105.87,1,0.024,-0.006,-0.047,-0.026,-0.009,-0.053,-1.587,-0.007,-0.238,104.75,90.3,40.575031,-3.533212,639.6,3,5,123.0,0.352
105.97,1,-0.043,0.013,-0.028,-0.014,0.003,-0.032,-1.586,-0.006,-0.238,104.75,90.3,40.575031,-3.533212,639.6,3,5,123.0,0.352
106.07,1,0.029,-0.018,-0.061,-0.008,-0.005,-0.047,-1.582,-0.004,-0.237,104.75,90.3,40.575031,-3.533212,639.6,3,5,123.0,0.352
106.17,1,0.015,-0.008,-0.039,0.023,-0.004,-0.044,-1.577,-0.003,-0.237,104.75,90.3,40.575031,-3.533212,639.6,3,5,123.0,0.352
106.27,1,0.015,0.011,-0.043,-0.002,-0.005,-0.046,-1.572,-0.007,-0.236,104.75,90.3,40.575031,-3.533212,639.6,3,5,123.0,0.352
106.37,1,0.051,0.005,-0.066,0.038,0.01,-0.053,-1.567,-0.01,-0.236,105.77,90.7,40.574913,-3.532968,639.8,3,5,123.0,0.0
106.47,1,-0.073,-0.021,-0.05,-0.0,-0.009,-0.049,-1.562,-0.01,-0.235,105.77,90.7,40.574913,-3.532968,639.8,3,5,123.0,0.0
106.57,1,0.005,0.0,-0.029,-0.02,-0.009,-0.042,-1.558,-0.011,-0.234,105.77,90.7,40.574913,-3.532968,639.8,3,5,123.0,0.0
106.67,1,-0.04,-0.001,-0.036,-0.016,0.003,-0.038,-1.554,-0.011,-0.233,105.77,90.7,40.574913,-3.532968,639.8,3,5,123.0,0.0
106.77,1,-0.025,-0.021,-0.019,-0.033,-0.011,-0.035,-1.548,-0.006,-0.232,105.77,90.7,40.574913,-3.532968,639.8,3,5,123.0,0.0
106.87,1,0.008,-0.027,-0.023,-0.014,-0.023,-0.022,-1.548,-0.002,-0.231,105.77,90.7,40.574913,-3.532968,639.8,3,5,123.0,0.0
106.97,1,-0.038,-0.006,-0.032,-0.02,-0.013,-0.03,-1.542,0.002,-0.23,105.77,90.7,40.574913,-3.532968,639.8,3,5,123.0,0.0
107.07,1,-0.06,-0.016,0.0,-0.043,-0.015,-0.02,-1.543,0.003,-0.23,105.77,90.7,40.574913,-3.532968,639.8,3,5,123.0,0.0
107.17,1,0.003,0.011,0.049,-0.021,-0.006,0.017,-1.55,0.001,-0.229,105.77,90.7,40.574913,-3.532968,639.8,3,5,123.0,0.0
107.27,1,0.024,0.017,-0.003,-0.007,0.01,0.017,-1.549,0.0,-0.229,105.77,90.7,40.574913,-3.532968,639.8,3,5,123.0,0.0
107.38,1,0.043,0.017,0.028,0.042,0.018,0.017,-1.547,-0.003,-0.23,106.78,90.0,40.574787,-3.532721,640.8,3,5,123.4,0.352
107.48,1,-0.032,0.002,0.035,-0.002,0.008,0.024,-1.546,-0.005,-0.23,106.78,90.0,40.574787,-3.532721,640.8,3,5,123.4,0.352
107.57,1,-0.048,0.004,0.046,-0.037,-0.003,0.037,-1.55,-0.007,-0.23,106.78,90.0,40.574787,-3.532721,640.8,3,5,123.4,0.352
107.67,1,0.031,0.006,0.065,-0.013,0.008,0.047,-1.552,-0.009,-0.23,106.78,90.0,40.574787,-3.532721,640.8,3,5,123.4,0.352
107.77,1,-0.053,0.013,0.055,-0.018,0.012,0.058,-1.553,-0.013,-0.23,106.78,90.0,40.574787,-3.532721,640.8,3,5,123.4,0.352
107.87,1,0.02,-0.015,0.068,-0.011,-0.002,0.063,-1.557,-0.017,-0.23,106.78,90.0,40.574787,-3.532721,640.8,3,5,123.4,0.352
107.97,1,-0.015,0.017,0.021,0.008,0.008,0.042,-1.558,-0.017,-0.229,106.78,90.0,40.574787,-3.532721,640.8,3,5,123.4,0.352
108.08,1,-0.025,-0.003,0.023,-0.02,-0.0,0.035,-1.56,-0.015,-0.229,106.78,90.0,40.574787,-3.532721,640.8,3,5,123.4,0.352
108.18,1,-0.048,0.001,0.023,-0.032,0.002,0.022,-1.562,-0.012,-0.228,106.78,90.0,40.574787,-3.532721,640.8,3,5,123.4,0.352
108.27,1,-0.065,-0.006,0.027,-0.051,-0.003,0.024,-1.566,-0.01,-0.227,106.78,90.0,40.574787,-3.532721,640.8,3,5,123.4,0.352
108.37,1,-0.006,-0.023,0.055,-0.033,-0.007,0.04,-1.572,-0.012,-0.227,107.75,88.3,40.574677,-3.53248,641.1,4,5,123.4,0.352
108.47,1,-0.008,0.006,-0.01,-0.012,-0.008,0.024,-1.575,-0.01,-0.226,107.75,88.3,40.574677,-3.53248,641.1,4,5,123.4,0.352
108.58,1,-0.008,-0.021,-0.014,-0.012,-0.013,0.0,-1.577,-0.009,-0.225,107.75,88.3,40.574677,-3.53248,641.1,4,5,123.4,0.352
108.68,1,-0.033,-0.018,0.029,-0.017,-0.014,0.007,-1.583,-0.009,-0.223,107.75,88.3,40.574677,-3.53248,641.1,4,5,123.4,0.352
108.77,1,0.021,-0.026,0.003,-0.017,-0.02,0.015,-1.587,-0.009,-0.222,107.75,88.3,40.574677,-3.53248,641.1,4,5,123.4,0.352
108.88,1,0.077,-0.036,0.025,0.045,-0.027,0.008,-1.587,-0.005,-0.22,107.75,88.3,40.574677,-3.53248,641.1,4,5,123.4,0.352
108.97,1,-0.082,-0.056,-0.014,-0.007,-0.045,0.012,-1.586,-0.003,-0.219,107.75,88.3,40.574677,-3.53248,641.1,4,5,123.4,0.352
109.07,1,0.005,-0.026,0.037,-0.017,-0.036,0.01,-1.587,-0.002,-0.217,107.75,88.3,40.574677,-3.53248,641.1,4,5,123.4,0.352
109.18,1,-0.006,-0.052,0.005,-0.006,-0.043,0.018,-1.588,0.005,-0.214,107.75,88.3,40.574677,-3.53248,641.1,4,5,123.4,0.352
109.28,1,0.037,0.005,0.007,-0.008,-0.028,0.007,-1.587,0.005,-0.212,107.75,88.3,40.574677,-3.53248,641.1,4,5,123.4,0.352
109.39,1,0.005,-0.048,-0.004,0.021,-0.026,0.008,-1.592,0.004,-0.21,108.84,88.5,40.574558,-3.532244,641.5,3,5,123.8,0.352
109.48,1,-0.051,-0.059,-0.009,-0.008,-0.04,-0.008,-1.593,0.007,-0.207,108.84,88.5,40.574558,-3.532244,641.5,3,5,123.8,0.352
109.58,1,-0.005,-0.081,-0.015,-0.027,-0.066,-0.007,-1.595,0.009,-0.203,108.84,88.5,40.574558,-3.532244,641.5,3,5,123.8,0.352
109.68,1,0.042,-0.066,0.015,0.01,-0.07,-0.004,-1.593,0.01,-0.199,108.84,88.5,40.574558,-3.532244,641.5,3,5,123.8,0.352
109.78,1,-0.048,-0.093,-0.008,-0.005,-0.078,0.008,-1.595,0.009,-0.194,108.84,88.5,40.574558,-3.532244,641.5,3,5,123.8,0.352
109.88,1,0.026,-0.072,0.015,-0.004,-0.078,-0.001,-1.595,0.014,-0.19,108.84,88.5,40.574558,-3.532244,641.5,3,5,123.8,0.352
109.99,1,0.009,-0.056,0.009,0.016,-0.066,0.014,-1.595,0.017,-0.186,108.84,88.5,40.574558,-3.532244,641.5,3,5,123.8,0.352
110.09,1,-0.01,-0.008,-0.034,-0.005,-0.04,-0.01,-1.593,0.019,-0.183,108.84,88.5,40.574558,-3.532244,641.5,3,5,123.8,0.352
110.18,1,0.048,-0.078,-0.03,0.024,-0.046,-0.021,-1.595,0.018,-0.18,108.84,88.5,40.574558,-3.532244,641.5,3,5,123.8,0.352
110.28,1,-0.039,-0.07,-0.0,-0.002,-0.067,-0.019,-1.594,0.024,-0.177,108.84,88.5,40.574558,-3.532244,641.5,3,5,123.8,0.352
110.38,1,0.016,-0.048,-0.001,-0.001,-0.056,-0.004,-1.595,0.029,-0.173,109.75,89.4,40.574444,-3.531996,642.1,3,5,123.0,0.703
110.48,1,-0.038,-0.033,-0.004,-0.011,-0.048,-0.006,-1.592,0.034,-0.169,109.75,89.4,40.574444,-3.531996,642.1,3,5,123.0,0.703
110.58,1,-0.006,-0.009,0.017,-0.024,-0.034,0.006,-1.591,0.036,-0.166,109.75,89.4,40.574444,-3.531996,642.1,3,5,123.0,0.703
110.69,1,-0.019,-0.0,-0.011,-0.012,-0.011,0.0,-1.589,0.034,-0.163,109.75,89.4,40.574444,-3.531996,642.1,3,5,123.0,0.703
110.78,1,-0.065,-0.036,0.005,-0.036,-0.019,-0.002,-1.587,0.032,-0.161,109.75,89.4,40.574444,-3.531996,642.1,3,5,123.0,0.703
110.88,1,-0.046,0.016,0.01,-0.043,-0.008,0.005,-1.586,0.033,-0.158,109.75,89.4,40.574444,-3.531996,642.1,3,5,123.0,0.703
110.98,1,-0.066,-0.015,-0.006,-0.052,-0.001,0.003,-1.588,0.031,-0.155,109.75,89.4,40.574444,-3.531996,642.1,3,5,123.0,0.703
111.08,1,-0.05,-0.007,0.004,-0.047,-0.011,0.002,-1.588,0.03,-0.153,109.75,89.4,40.574444,-3.531996,642.1,3,5,123.0,0.703
111.18,1,-0.022,-0.022,-0.024,-0.052,-0.01,-0.011,-1.589,0.031,-0.151,109.75,89.4,40.574444,-3.531996,642.1,3,5,123.0,0.703
111.29,1,0.037,-0.004,-0.003,-0.0,-0.015,-0.011,-1.586,0.027,-0.149,109.75,89.4,40.574444,-3.531996,642.1,3,5,123.0,0.703
111.38,1,0.014,0.011,-0.024,0.011,0.001,-0.009,-1.583,0.027,-0.148,110.82,90.4,40.574318,-3.531744,642.6,3,5,121.6,2.109
111.48,1,0.011,0.007,-0.013,0.007,0.004,-0.023,-1.581,0.024,-0.147,110.82,90.4,40.574318,-3.531744,642.6,3,5,121.6,2.109
111.58,1,-0.025,0.016,0.001,0.002,0.007,-0.004,-1.582,0.018,-0.146,110.82,90.4,40.574318,-3.531744,642.6,3,5,121.6,2.109
111.68,1,-0.028,0.056,-0.06,-0.018,0.028,-0.033,-1.575,0.016,-0.145,110.82,90.4,40.574318,-3.531744,642.6,3,5,121.6,2.109
111.78,1,-0.033,-0.002,-0.038,-0.025,0.023,-0.036,-1.572,0.015,-0.144,110.82,90.4,40.574318,-3.531744,642.6,3,5,121.6,2.109
111.89,1,-0.052,0.02,-0.055,-0.036,0.025,-0.044,-1.567,0.012,-0.143,110.82,90.4,40.574318,-3.531744,642.6,3,5,121.6,2.109
111.99,1,-0.085,-0.004,-0.064,-0.081,0.012,-0.052,-1.566,0.009,-0.143,110.82,90.4,40.574318,-3.531744,642.6,3,5,121.6,2.109
112.08,1,-0.005,0.008,-0.063,-0.042,0.004,-0.067,-1.562,0.006,-0.143,110.82,90.4,40.574318,-3.531744,642.6,3,5,121.6,2.109
112.18,1,-0.061,0.005,-0.069,-0.034,0.007,-0.062,-1.559,0.005,-0.142,110.82,90.4,40.574318,-3.531744,642.6,3,5,121.6,2.109
112.28,1,0.014,0.0,-0.074,-0.013,0.001,-0.071,-1.553,0.002,-0.142,110.82,90.4,40.574318,-3.531744,642.6,3,5,121.6,2.109
112.39,1,0.028,0.004,-0.025,0.003,-0.0,-0.053,-1.549,0.002,-0.141,111.85,89.6,40.574207,-3.531488,643.3,3,5,119.9,3.164
112.48,1,-0.029,0.02,-0.029,0.002,0.014,-0.034,-1.544,0.002,-0.14,111.85,89.6,40.574207,-3.531488,643.3,3,5,119.9,3.164
112.58,1,0.021,0.021,-0.041,0.002,0.016,-0.04,-1.537,0.003,-0.14,111.85,89.6,40.574207,-3.531488,643.3,3,5,119.9,3.164
112.68,1,0.017,0.014,-0.025,0.007,0.017,-0.034,-1.533,0.001,-0.14,111.85,89.6,40.574207,-3.531488,643.3,3,5,119.9,3.164
112.78,1,-0.082,-0.004,-0.037,-0.026,0.003,-0.03,-1.531,-0.001,-0.139,111.85,89.6,40.574207,-3.531488,643.3,3,5,119.9,3.164
112.88,1,-0.028,-0.017,-0.019,-0.036,0.0,-0.025,-1.529,-0.004,-0.138,111.85,89.6,40.574207,-3.531488,643.3,3,5,119.9,3.164
112.99,1,-0.064,-0.043,-0.01,-0.047,-0.022,-0.022,-1.526,-0.002,-0.136,111.85,89.6,40.574207,-3.531488,643.3,3,5,119.9,3.164
113.08,1,-0.046,-0.062,-0.024,-0.05,-0.046,-0.014,-1.524,0.0,-0.134,111.85,89.6,40.574207,-3.531488,643.3,3,5,119.9,3.164
113.19,1,-0.011,-0.019,-0.016,-0.037,-0.04,-0.022,-1.522,-0.001,-0.132,111.85,89.6,40.574207,-3.531488,643.3,3,5,119.9,3.164
113.28,1,-0.006,-0.04,-0.024,-0.014,-0.033,-0.02,-1.518,0.003,-0.13,111.85,89.6,40.574207,-3.531488,643.3,3,5,119.9,3.164
113.38,1,-0.04,-0.041,-0.02,-0.018,-0.039,-0.021,-1.515,0.007,-0.128,112.75,88.6,40.574097,-3.531236,643.6,3,5,119.5,2.109
