Timestamp_Accel,SystemActivated,accelerometerXAxis,accelerometerYAxis,accelerometerZAxis,AccelX_KF,AccelY_KF,AccelZ_KF,gyroscopeXAxis,gyroscopeYAxis,gyroscopeZAxis,Timestamp_GPS,Speed,latitude,longitude,Altitude,VerticalAccuracy,HorizontalAccuracy,Course,Difcourse
22.18,1,-0.025,-0.024,-0.008,-0.039,-0.01,-0.013,-1.582,0.002,0.188,22.19,100.4,40.519108,-3.410149,615.3,6,5,324.5,0.352
22.28,1,0.015,-0.026,-0.025,-0.012,-0.021,-0.017,-1.581,0.004,0.189,22.19,100.4,40.519108,-3.410149,615.3,6,5,324.5,0.352
22.39,1,0.052,-0.019,0.017,0.016,-0.02,-0.007,-1.579,0.005,0.189,22.19,100.4,40.519108,-3.410149,615.3,6,5,324.5,0.352
22.48,1,0.037,-0.025,-0.004,0.039,-0.02,0.002,-1.577,0.008,0.19,22.19,100.4,40.519108,-3.410149,615.3,6,5,324.5,0.352
22.58,1,-0.03,-0.024,-0.008,0.011,-0.024,-0.005,-1.576,0.012,0.19,22.19,100.4,40.519108,-3.410149,615.3,6,5,324.5,0.352
22.68,1,-0.082,-0.023,-0.0,-0.039,-0.022,-0.004,-1.576,0.014,0.19,22.19,100.4,40.519108,-3.410149,615.3,6,5,324.5,0.352
22.78,1,-0.083,-0.024,-0.001,-0.071,-0.031,-0.001,-1.576,0.011,0.189,22.19,100.4,40.519108,-3.410149,615.3,6,5,324.5,0.352
22.89,1,-0.02,0.027,0.004,-0.054,-0.001,0.001,-1.577,0.007,0.189,22.19,100.4,40.519108,-3.410149,615.3,6,5,324.5,0.352
22.98,1,0.028,0.01,0.003,-0.016,0.012,0.003,-1.578,0.005,0.189,22.19,100.4,40.519108,-3.410149,615.3,6,5,324.5,0.352
23.08,1,0.048,0.012,-0.011,0.025,0.009,-0.003,-1.577,0.009,0.189,22.19,100.4,40.519108,-3.410149,615.3,6,5,324.5,0.352
23.18,1,-0.022,-0.016,-0.0,0.016,-0.002,-0.006,-1.577,0.012,0.189,23.21,100.4,40.519314,-3.410343,615.9,4,5,324.5,0.352
23.28,1,-0.037,-0.014,0.006,-0.02,-0.006,0.002,-1.579,0.013,0.189,23.21,100.4,40.519314,-3.410343,615.9,4,5,324.5,0.352
23.39,1,-0.016,0.008,0.01,-0.021,-0.005,0.006,-1.579,0.012,0.189,23.21,100.4,40.519314,-3.410343,615.9,4,5,324.5,0.352
23.48,1,-0.003,0.001,0.002,-0.013,0.005,0.004,-1.58,0.011,0.188,23.21,100.4,40.519314,-3.410343,615.9,4,5,324.5,0.352
23.59,1,0.023,0.011,0.019,0.004,0.001,0.01,-1.581,0.012,0.188,23.21,100.4,40.519314,-3.410343,615.9,4,5,324.5,0.352
23.69,1,-0.024,-0.014,-0.001,-0.001,-0.001,0.009,-1.581,0.014,0.188,23.21,100.4,40.519314,-3.410343,615.9,4,5,324.5,0.352
23.79,1,-0.055,-0.002,0.024,-0.03,-0.003,0.012,-1.583,0.013,0.188,23.21,100.4,40.519314,-3.410343,615.9,4,5,324.5,0.352
23.89,1,-0.027,-0.007,0.012,-0.033,-0.005,0.016,-1.585,0.012,0.188,23.21,100.4,40.519314,-3.410343,615.9,4,5,324.5,0.352
23.99,1,0.0,0.004,0.014,-0.021,-0.006,0.011,-1.585,0.011,0.188,23.21,100.4,40.519314,-3.410343,615.9,4,5,324.5,0.352
24.09,1,-0.016,-0.001,0.024,-0.013,0.003,0.019,-1.588,0.009,0.188,23.21,100.4,40.519314,-3.410343,615.9,4,5,324.5,0.352
24.19,1,-0.001,-0.009,0.018,-0.009,-0.0,0.021,-1.591,0.009,0.188,24.19,100.9,40.519516,-3.410536,616.6,4,5,324.1,0.352
24.29,1,-0.011,-0.043,0.034,-0.008,-0.023,0.023,-1.594,0.008,0.188,24.19,100.9,40.519516,-3.410536,616.6,4,5,324.1,0.352
24.39,1,-0.017,0.02,0.014,-0.013,-0.006,0.026,-1.598,0.004,0.187,24.19,100.9,40.519516,-3.410536,616.6,4,5,324.1,0.352
24.49,1,0.038,0.046,0.048,0.003,0.018,0.028,-1.597,0.004,0.186,24.19,100.9,40.519516,-3.410536,616.6,4,5,324.1,0.352
24.6,1,0.071,-0.027,0.017,0.041,0.006,0.029,-1.596,0.007,0.186,24.19,100.9,40.519516,-3.410536,616.6,4,5,324.1,0.352
24.69,1,0.023,0.01,0.005,0.045,-0.002,0.018,-1.597,0.007,0.186,24.19,100.9,40.519516,-3.410536,616.6,4,5,324.1,0.352
24.79,1,-0.047,0.008,0.024,-0.0,0.004,0.015,-1.6,0.007,0.186,24.19,100.9,40.519516,-3.410536,616.6,4,5,324.1,0.352
24.89,1,-0.031,0.017,0.017,-0.023,0.013,0.019,-1.604,0.004,0.185,24.19,100.9,40.519516,-3.410536,616.6,4,5,324.1,0.352
24.99,1,0.026,0.019,0.002,-0.005,0.015,0.012,-1.605,0.001,0.184,24.19,100.9,40.519516,-3.410536,616.6,4,5,324.1,0.352
25.09,1,0.009,0.046,-0.0,0.014,0.023,0.002,-1.604,0.001,0.183,24.19,100.9,40.519516,-3.410536,616.6,4,5,324.1,0.352
25.19,1,-0.019,0.028,0.038,-0.006,0.037,0.019,-1.607,-0.001,0.182,25.19,101.2,40.519726,-3.410728,616.4,4,5,324.5,0.352
25.29,1,0.013,0.006,-0.006,-0.001,0.021,0.012,-1.606,-0.001,0.181,25.19,101.2,40.519726,-3.410728,616.4,4,5,324.5,0.352
25.39,1,-0.02,0.021,0.02,-0.005,0.017,0.009,-1.606,-0.001,0.18,25.19,101.2,40.519726,-3.410728,616.4,4,5,324.5,0.352
25.49,1,-0.001,0.031,0.027,-0.008,0.024,0.025,-1.606,-0.004,0.179,25.19,101.2,40.519726,-3.410728,616.4,4,5,324.5,0.352
25.59,1,-0.058,0.009,0.009,-0.022,0.021,0.016,-1.607,-0.003,0.179,25.19,101.2,40.519726,-3.410728,616.4,4,5,324.5,0.352
25.69,1,-0.018,-0.037,0.004,-0.038,-0.003,0.011,-1.607,0.001,0.18,25.19,101.2,40.519726,-3.410728,616.4,4,5,324.5,0.352
25.8,1,-0.008,-0.038,0.005,-0.007,-0.031,0.005,-1.608,0.004,0.18,25.19,101.2,40.519726,-3.410728,616.4,4,5,324.5,0.352
25.89,1,-0.028,-0.041,0.013,-0.026,-0.035,0.008,-1.61,0.006,0.181,25.19,101.2,40.519726,-3.410728,616.4,4,5,324.5,0.352
25.99,1,-0.004,0.001,0.0,-0.014,-0.02,0.008,-1.612,0.006,0.181,25.19,101.2,40.519726,-3.410728,616.4,4,5,324.5,0.352
26.09,1,-0.005,-0.028,0.005,-0.009,-0.018,0.003,-1.612,0.007,0.181,25.19,101.2,40.519726,-3.410728,616.4,4,5,324.5,0.352
26.2,1,0.005,-0.017,0.0,-0.004,-0.022,0.002,-1.612,0.008,0.182,26.19,102.3,40.519939,-3.410926,617.2,4,5,324.5,0.352
26.29,1,0.006,-0.019,0.024,0.003,-0.017,0.013,-1.614,0.011,0.182,26.19,102.3,40.519939,-3.410926,617.2,4,5,324.5,0.352
26.39,1,0.052,0.005,0.015,0.023,-0.012,0.014,-1.615,0.011,0.182,26.19,102.3,40.519939,-3.410926,617.2,4,5,324.5,0.352
26.5,1,0.037,0.02,-0.006,0.037,0.007,0.005,-1.614,0.007,0.182,26.19,102.3,40.519939,-3.410926,617.2,4,5,324.5,0.352
26.6,1,0.018,0.031,0.01,0.03,0.02,0.005,-1.615,0.006,0.181,26.19,102.3,40.519939,-3.410926,617.2,4,5,324.5,0.352
26.7,1,-0.067,-0.002,0.009,-0.007,0.015,0.007,-1.616,0.008,0.181,26.19,102.3,40.519939,-3.410926,617.2,4,5,324.5,0.352
26.8,1,-0.105,0.022,0.003,-0.065,0.007,0.006,-1.618,0.007,0.181,26.19,102.3,40.519939,-3.410926,617.2,4,5,324.5,0.352
26.9,1,-0.122,-0.014,-0.0,-0.094,0.005,0.007,-1.621,0.007,0.18,26.19,102.3,40.519939,-3.410926,617.2,4,5,324.5,0.352
27.0,1,-0.047,0.026,0.028,-0.088,0.004,0.004,-1.623,0.003,0.18,26.19,102.3,40.519939,-3.410926,617.2,4,5,324.5,0.352
27.11,1,0.058,0.064,0.014,-0.016,0.044,0.024,-1.624,0.002,0.179,26.19,102.3,40.519939,-3.410926,617.2,4,5,324.5,0.352
27.21,1,0.033,0.056,-0.018,0.026,0.054,-0.003,-1.624,0.006,0.179,27.2,103.5,40.520142,-3.411122,617.0,4,5,324.5,0.0
27.3,1,-0.042,0.013,0.052,-0.008,0.035,0.017,-1.627,0.006,0.178,27.2,103.5,40.520142,-3.411122,617.0,4,5,324.5,0.0
27.4,1,0.06,0.011,0.051,0.003,0.019,0.048,-1.628,0.006,0.178,27.2,103.5,40.520142,-3.411122,617.0,4,5,324.5,0.0
27.51,1,0.086,0.002,-0.006,0.066,0.012,0.019,-1.628,0.006,0.177,27.2,103.5,40.520142,-3.411122,617.0,4,5,324.5,0.0
27.6,1,0.001,0.01,0.025,0.034,0.004,0.019,-1.628,0.009,0.176,27.2,103.5,40.520142,-3.411122,617.0,4,5,324.5,0.0
27.71,1,-0.003,0.016,0.016,0.02,0.014,0.02,-1.632,0.008,0.176,27.2,103.5,40.520142,-3.411122,617.0,4,5,324.5,0.0
27.8,1,-0.054,0.009,0.014,-0.008,0.013,0.016,-1.633,0.009,0.175,27.2,103.5,40.520142,-3.411122,617.0,4,5,324.5,0.0
27.9,1,-0.064,0.029,0.011,-0.058,0.013,0.011,-1.634,0.008,0.174,27.2,103.5,40.520142,-3.411122,617.0,4,5,324.5,0.0
28.0,1,0.034,0.054,0.039,-0.017,0.039,0.026,-1.634,0.006,0.174,27.2,103.5,40.520142,-3.411122,617.0,4,5,324.5,0.0
28.1,1,0.054,-0.038,-0.007,0.021,0.014,0.016,-1.633,0.009,0.174,27.2,103.5,40.520142,-3.411122,617.0,4,5,324.5,0.0
28.21,1,-0.01,-0.037,-0.017,0.027,-0.023,-0.009,-1.634,0.012,0.174,28.2,105.4,40.520351,-3.411314,617.3,4,5,324.5,0.0
28.3,1,-0.113,-0.01,0.027,-0.045,-0.026,0.006,-1.636,0.011,0.174,28.2,105.4,40.520351,-3.411314,617.3,4,5,324.5,0.0
28.41,1,-0.094,0.034,0.03,-0.089,0.005,0.02,-1.638,0.009,0.174,28.2,105.4,40.520351,-3.411314,617.3,4,5,324.5,0.0
28.5,1,-0.005,0.019,0.003,-0.054,0.023,0.019,-1.639,0.01,0.174,28.2,105.4,40.520351,-3.411314,617.3,4,5,324.5,0.0
28.6,1,0.126,-0.014,0.017,0.03,0.008,0.011,-1.638,0.016,0.175,28.2,105.4,40.520351,-3.411314,617.3,4,5,324.5,0.0
28.7,1,0.031,-0.055,-0.013,0.063,-0.025,0.003,-1.637,0.02,0.176,28.2,105.4,40.520351,-3.411314,617.3,4,5,324.5,0.0
28.8,1,-0.024,-0.019,0.019,0.016,-0.037,0.003,-1.636,0.02,0.176,28.2,105.4,40.520351,-3.411314,617.3,4,5,324.5,0.0
28.91,1,-0.077,0.006,0.002,-0.029,-0.01,0.009,-1.638,0.017,0.176,28.2,105.4,40.520351,-3.411314,617.3,4,5,324.5,0.0
29.0,1,-0.091,-0.01,0.016,-0.067,-0.008,0.011,-1.636,0.015,0.175,28.2,105.4,40.520351,-3.411314,617.3,4,5,324.5,0.0
29.1,1,-0.053,0.023,-0.002,-0.071,0.006,0.011,-1.636,0.012,0.176,28.2,105.4,40.520351,-3.411314,617.3,4,5,324.5,0.0
29.2,1,-0.024,0.001,-0.0,-0.042,0.009,-0.003,-1.637,0.013,0.176,29.19,108.0,40.520573,-3.411508,617.9,4,5,325.9,1.406
29.3,1,-0.004,-0.025,0.003,-0.022,-0.011,-0.0,-1.639,0.015,0.176,29.19,108.0,40.520573,-3.411508,617.9,4,5,325.9,1.406
29.41,1,0.001,-0.004,0.007,-0.013,-0.003,0.01,-1.642,0.015,0.176,29.19,108.0,40.520573,-3.411508,617.9,4,5,325.9,1.406
29.52,1,-0.028,0.0,0.021,-0.014,-0.008,0.01,-1.644,0.018,0.176,29.19,108.0,40.520573,-3.411508,617.9,4,5,325.9,1.406
29.61,1,0.027,0.008,-0.025,-0.004,-0.008,-0.003,-1.644,0.018,0.177,29.19,108.0,40.520573,-3.411508,617.9,4,5,325.9,1.406
29.71,1,0.01,0.02,0.012,0.009,0.009,-0.001,-1.643,0.017,0.177,29.19,108.0,40.520573,-3.411508,617.9,4,5,325.9,1.406
29.81,1,0.022,0.005,-0.018,0.018,0.018,-0.005,-1.642,0.016,0.177,29.19,108.0,40.520573,-3.411508,617.9,4,5,325.9,1.406
29.91,1,-0.014,-0.014,0.001,0.01,0.002,-0.004,-1.642,0.016,0.177,29.19,108.0,40.520573,-3.411508,617.9,4,5,325.9,1.406
30.01,1,-0.053,0.007,0.003,-0.025,0.0,-0.001,-1.642,0.015,0.177,29.19,108.0,40.520573,-3.411508,617.9,4,5,325.9,1.406
30.12,1,-0.034,0.022,-0.003,-0.041,0.008,-0.001,-1.643,0.015,0.177,29.19,108.0,40.520573,-3.411508,617.9,4,5,325.9,1.406
30.21,1,-0.023,-0.03,-0.012,-0.034,-0.003,-0.006,-1.641,0.02,0.177,30.21,109.8,40.520798,-3.41171,618.3,4,5,324.5,1.406
30.31,1,0.003,0.0,0.021,-0.011,-0.014,0.005,-1.64,0.021,0.177,30.21,109.8,40.520798,-3.41171,618.3,4,5,324.5,1.406
30.41,1,-0.025,0.016,0.003,-0.013,0.003,0.004,-1.64,0.02,0.177,30.21,109.8,40.520798,-3.41171,618.3,4,5,324.5,1.406
30.51,1,0.014,0.023,0.001,-0.0,0.016,0.01,-1.642,0.019,0.177,30.21,109.8,40.520798,-3.41171,618.3,4,5,324.5,1.406
30.62,1,0.042,0.029,-0.018,0.026,0.032,-0.007,-1.643,0.022,0.177,30.21,109.8,40.520798,-3.41171,618.3,4,5,324.5,1.406
30.72,1,-0.03,-0.016,0.01,0.006,0.008,-0.004,-1.644,0.024,0.178,30.21,109.8,40.520798,-3.41171,618.3,4,5,324.5,1.406
30.81,1,0.013,-0.048,0.012,-0.011,-0.025,0.011,-1.643,0.024,0.178,30.21,109.8,40.520798,-3.41171,618.3,4,5,324.5,1.406
30.91,1,-0.037,-0.001,-0.038,-0.006,-0.018,-0.018,-1.643,0.024,0.178,30.21,109.8,40.520798,-3.41171,618.3,4,5,324.5,1.406
31.01,1,-0.104,0.007,-0.0,-0.061,-0.005,-0.011,-1.645,0.023,0.177,30.21,109.8,40.520798,-3.41171,618.3,4,5,324.5,1.406
31.11,1,-0.096,-0.031,0.01,-0.079,-0.012,0.001,-1.647,0.018,0.177,30.21,109.8,40.520798,-3.41171,618.3,4,5,324.5,1.406
31.21,1,0.0,0.024,0.016,-0.068,-0.009,0.006,-1.647,0.015,0.176,31.2,112.2,40.521019,-3.411928,619.1,4,5,324.5,1.406
31.33,1,0.048,-0.002,-0.018,0.008,0.003,0.005,-1.647,0.012,0.176,31.2,112.2,40.521019,-3.411928,619.1,4,5,324.5,1.406
31.42,1,-0.0,0.016,-0.015,0.017,0.007,-0.013,-1.646,0.014,0.176,31.2,112.2,40.521019,-3.411928,619.1,4,5,324.5,1.406
31.51,1,-0.07,-0.02,0.012,-0.024,0.004,-0.001,-1.648,0.016,0.176,31.2,112.2,40.521019,-3.411928,619.1,4,5,324.5,1.406
31.61,1,-0.063,-0.021,-0.008,-0.053,-0.016,-0.002,-1.647,0.018,0.176,31.2,112.2,40.521019,-3.411928,619.1,4,5,324.5,1.406
31.71,1,0.019,-0.008,0.016,-0.032,-0.01,0.001,-1.646,0.017,0.176,31.2,112.2,40.521019,-3.411928,619.1,4,5,324.5,1.406
31.82,1,0.06,0.019,-0.019,0.025,-0.006,-0.002,-1.642,0.016,0.176,31.2,112.2,40.521019,-3.411928,619.1,4,5,324.5,1.406
31.91,1,-0.01,0.002,-0.03,0.021,0.009,-0.016,-1.643,0.014,0.175,31.2,112.2,40.521019,-3.411928,619.1,4,5,324.5,1.406
32.01,1,-0.065,0.023,0.019,-0.021,0.015,-0.008,-1.643,0.012,0.175,31.2,112.2,40.521019,-3.411928,619.1,4,5,324.5,1.406
32.11,1,-0.042,-0.004,-0.021,-0.046,0.011,-0.004,-1.641,0.014,0.175,31.2,112.2,40.521019,-3.411928,619.1,4,5,324.5,1.406
32.22,1,-0.016,-0.033,0.003,-0.03,-0.015,-0.005,-1.639,0.016,0.175,32.2,114.0,40.521248,-3.412144,619.6,4,5,324.5,0.0
32.31,1,0.005,0.018,-0.019,-0.012,-0.004,-0.012,-1.637,0.015,0.174,32.2,114.0,40.521248,-3.412144,619.6,4,5,324.5,0.0
32.42,1,-0.004,-0.016,0.001,-0.005,-0.007,-0.005,-1.636,0.015,0.174,32.2,114.0,40.521248,-3.412144,619.6,4,5,324.5,0.0
32.53,1,0.046,0.021,-0.006,0.018,0.005,-0.002,-1.637,0.014,0.174,32.2,114.0,40.521248,-3.412144,619.6,4,5,324.5,0.0
32.63,1,-0.048,0.006,-0.032,0.005,0.012,-0.019,-1.636,0.013,0.174,32.2,114.0,40.521248,-3.412144,619.6,4,5,324.5,0.0
32.72,1,-0.062,-0.035,0.008,-0.042,-0.009,-0.009,-1.636,0.016,0.175,32.2,114.0,40.521248,-3.412144,619.6,4,5,324.5,0.0
32.82,1,-0.063,-0.006,-0.009,-0.054,-0.018,-0.007,-1.634,0.015,0.175,32.2,114.0,40.521248,-3.412144,619.6,4,5,324.5,0.0
32.92,1,-0.008,-0.003,-0.002,-0.044,-0.005,-0.007,-1.634,0.017,0.175,32.2,114.0,40.521248,-3.412144,619.6,4,5,324.5,0.0
33.06,1,0.048,-0.019,-0.008,0.003,-0.013,-0.001,-1.634,0.02,0.176,32.2,114.0,40.521248,-3.412144,619.6,4,5,324.5,0.0
33.12,1,-0.003,-0.006,-0.016,0.015,-0.012,-0.011,-1.634,0.021,0.176,32.2,114.0,40.521248,-3.412144,619.6,4,5,324.5,0.0
33.22,1,-0.052,-0.002,-0.016,-0.015,-0.008,-0.012,-1.635,0.022,0.176,33.18,115.8,40.521484,-3.412367,620.8,4,5,324.5,0.0
33.32,1,-0.045,0.002,0.009,-0.039,-0.003,-0.011,-1.636,0.022,0.176,33.18,115.8,40.521484,-3.412367,620.8,4,5,324.5,0.0
33.42,1,0.01,-0.017,0.028,-0.018,-0.003,0.016,-1.636,0.021,0.176,33.18,115.8,40.521484,-3.412367,620.8,4,5,324.5,0.0
33.52,1,0.015,-0.028,-0.012,-0.007,-0.017,0.002,-1.634,0.026,0.177,33.18,115.8,40.521484,-3.412367,620.8,4,5,324.5,0.0
33.62,1,-0.013,-0.018,-0.005,0.003,-0.022,-0.002,-1.636,0.029,0.178,33.18,115.8,40.521484,-3.412367,620.8,4,5,324.5,0.0
33.72,1,-0.065,-0.031,-0.042,-0.029,-0.025,-0.017,-1.638,0.03,0.179,33.18,115.8,40.521484,-3.412367,620.8,4,5,324.5,0.0
33.82,1,-0.029,-0.01,0.001,-0.038,-0.018,-0.015,-1.639,0.031,0.18,33.18,115.8,40.521484,-3.412367,620.8,4,5,324.5,0.0
33.92,1,0.006,-0.035,-0.011,-0.019,-0.025,-0.008,-1.641,0.033,0.182,33.18,115.8,40.521484,-3.412367,620.8,4,5,324.5,0.0
34.02,1,-0.047,-0.038,-0.002,-0.021,-0.032,-0.012,-1.639,0.032,0.183,33.18,115.8,40.521484,-3.412367,620.8,4,5,324.5,0.0
34.12,1,0.023,-0.016,0.01,-0.011,-0.028,0.001,-1.641,0.034,0.184,33.18,115.8,40.521484,-3.412367,620.8,4,5,324.5,0.0
34.23,1,-0.0,-0.025,-0.026,0.005,-0.023,-0.009,-1.639,0.037,0.185,34.19,117.4,40.521729,-3.412593,621.5,4,5,324.5,0.0
34.32,1,-0.041,-0.04,-0.012,-0.022,-0.03,-0.01,-1.638,0.039,0.186,34.19,117.4,40.521729,-3.412593,621.5,4,5,324.5,0.0
34.42,1,0.022,-0.027,-0.019,-0.008,-0.035,-0.019,-1.636,0.043,0.188,34.19,117.4,40.521729,-3.412593,621.5,4,5,324.5,0.0
34.52,1,-0.011,-0.048,0.002,-0.001,-0.032,-0.007,-1.636,0.045,0.19,34.19,117.4,40.521729,-3.412593,621.5,4,5,324.5,0.0
34.63,1,-0.081,-0.094,-0.004,-0.042,-0.065,-0.002,-1.636,0.046,0.192,34.19,117.4,40.521729,-3.412593,621.5,4,5,324.5,0.0
34.72,1,0.013,-0.046,-0.005,-0.014,-0.057,-0.007,-1.636,0.046,0.195,34.19,117.4,40.521729,-3.412593,621.5,4,5,324.5,0.0
34.82,1,-0.012,-0.055,-0.027,-0.01,-0.058,-0.011,-1.636,0.049,0.197,34.19,117.4,40.521729,-3.412593,621.5,4,5,324.5,0.0
34.94,1,-0.029,-0.039,-0.015,-0.023,-0.051,-0.019,-1.636,0.053,0.199,34.19,117.4,40.521729,-3.412593,621.5,4,5,324.5,0.0
35.04,1,0.0,-0.062,0.008,-0.01,-0.055,-0.006,-1.636,0.054,0.202,34.19,117.4,40.521729,-3.412593,621.5,4,5,324.5,0.0
35.12,1,-0.014,-0.067,-0.029,-0.011,-0.058,-0.012,-1.632,0.057,0.204,34.19,117.4,40.521729,-3.412593,621.5,4,5,324.5,0.0
35.22,1,-0.061,-0.043,-0.017,-0.037,-0.054,-0.022,-1.632,0.063,0.207,35.2,118.6,40.521969,-3.412821,622.0,4,5,323.8,0.703
35.32,1,-0.075,-0.032,-0.022,-0.056,-0.039,-0.016,-1.632,0.063,0.209,35.2,118.6,40.521969,-3.412821,622.0,4,5,323.8,0.703
35.43,1,-0.049,-0.081,-0.006,-0.064,-0.056,-0.016,-1.63,0.066,0.211,35.2,118.6,40.521969,-3.412821,622.0,4,5,323.8,0.703
35.53,1,-0.009,-0.017,0.002,-0.033,-0.052,-0.003,-1.632,0.062,0.212,35.2,118.6,40.521969,-3.412821,622.0,4,5,323.8,0.703
35.63,1,-0.052,0.005,-0.023,-0.032,-0.017,-0.014,-1.632,0.055,0.213,35.2,118.6,40.521969,-3.412821,622.0,4,5,323.8,0.703
35.73,1,-0.094,-0.051,0.019,-0.064,-0.024,-0.002,-1.633,0.052,0.215,35.2,118.6,40.521969,-3.412821,622.0,4,5,323.8,0.703
35.83,1,-0.006,0.011,-0.028,-0.048,-0.018,-0.005,-1.633,0.049,0.216,35.2,118.6,40.521969,-3.412821,622.0,4,5,323.8,0.703
35.93,1,-0.011,-0.003,-0.004,-0.02,-0.005,-0.013,-1.632,0.045,0.216,35.2,118.6,40.521969,-3.412821,622.0,4,5,323.8,0.703
36.03,1,0.009,0.042,-0.007,-0.008,0.015,-0.005,-1.632,0.041,0.217,35.2,118.6,40.521969,-3.412821,622.0,4,5,323.8,0.703
36.14,1,0.002,-0.012,-0.006,0.004,0.011,-0.005,-1.631,0.039,0.218,35.2,118.6,40.521969,-3.412821,622.0,4,5,323.8,0.703
36.24,1,-0.043,0.024,-0.013,-0.011,0.01,-0.013,-1.632,0.038,0.218,36.18,118.6,40.522209,-3.413051,622.4,4,5,323.8,0.703
36.33,1,-0.057,0.029,-0.006,-0.046,0.023,-0.009,-1.632,0.036,0.219,36.18,118.6,40.522209,-3.413051,622.4,4,5,323.8,0.703
36.43,1,0.046,0.038,-0.004,-0.015,0.029,-0.003,-1.631,0.031,0.219,36.18,118.6,40.522209,-3.413051,622.4,4,5,323.8,0.703
36.53,1,0.052,0.028,-0.019,0.029,0.031,-0.014,-1.628,0.028,0.219,36.18,118.6,40.522209,-3.413051,622.4,4,5,323.8,0.703
36.63,1,0.042,0.024,0.022,0.039,0.023,0.005,-1.629,0.022,0.219,36.18,118.6,40.522209,-3.413051,622.4,4,5,323.8,0.703
36.74,1,0.053,0.036,-0.017,0.049,0.031,-0.001,-1.627,0.016,0.219,36.18,118.6,40.522209,-3.413051,622.4,4,5,323.8,0.703
36.83,1,-0.033,0.0,-0.04,0.018,0.027,-0.023,-1.624,0.012,0.219,36.18,118.6,40.522209,-3.413051,622.4,4,5,323.8,0.703
36.93,1,-0.148,-0.021,0.011,-0.062,-0.005,-0.016,-1.626,0.01,0.22,36.18,118.6,40.522209,-3.413051,622.4,4,5,323.8,0.703
37.03,1,-0.054,-0.01,0.002,-0.088,-0.009,0.003,-1.626,0.008,0.221,36.18,118.6,40.522209,-3.413051,622.4,4,5,323.8,0.703
37.13,1,0.031,-0.058,-0.024,-0.021,-0.03,-0.013,-1.625,0.01,0.224,36.18,118.6,40.522209,-3.413051,622.4,4,5,323.8,0.703
37.23,1,-0.006,-0.073,-0.036,-0.007,-0.053,-0.026,-1.624,0.015,0.227,37.23,118.9,40.522442,-3.413275,623.2,4,5,323.8,0.0
37.34,1,-0.016,-0.031,-0.002,-0.012,-0.052,-0.016,-1.624,0.017,0.23,37.23,118.9,40.522442,-3.413275,623.2,4,5,323.8,0.0
37.44,1,-0.017,-0.066,-0.021,-0.009,-0.047,-0.014,-1.624,0.017,0.234,37.23,118.9,40.522442,-3.413275,623.2,4,5,323.8,0.0
37.53,1,-0.016,-0.084,-0.008,-0.017,-0.07,-0.017,-1.623,0.022,0.236,37.23,118.9,40.522442,-3.413275,623.2,4,5,323.8,0.0
37.63,1,-0.01,-0.063,-0.021,-0.014,-0.071,-0.014,-1.622,0.024,0.239,37.23,118.9,40.522442,-3.413275,623.2,4,5,323.8,0.0
37.73,1,-0.015,-0.057,-0.013,-0.012,-0.065,-0.014,-1.622,0.027,0.242,37.23,118.9,40.522442,-3.413275,623.2,4,5,323.8,0.0
37.84,1,0.0,-0.052,-0.02,-0.003,-0.057,-0.019,-1.62,0.029,0.246,37.23,118.9,40.522442,-3.413275,623.2,4,5,323.8,0.0
37.93,1,-0.046,-0.073,-0.014,-0.025,-0.063,-0.015,-1.621,0.03,0.249,37.23,118.9,40.522442,-3.413275,623.2,4,5,323.8,0.0
38.04,1,-0.027,-0.047,-0.011,-0.032,-0.053,-0.011,-1.621,0.03,0.253,37.23,118.9,40.522442,-3.413275,623.2,4,5,323.8,0.0
38.13,1,-0.012,-0.053,-0.003,-0.023,-0.056,-0.011,-1.619,0.031,0.256,37.23,118.9,40.522442,-3.413275,623.2,4,5,323.8,0.0
38.23,1,-0.005,-0.049,-0.017,-0.012,-0.057,-0.007,-1.62,0.033,0.26,38.21,120.2,40.522717,-3.413534,624.5,6,5,321.7,2.109
38.33,1,0.006,-0.04,-0.02,-0.005,-0.043,-0.018,-1.618,0.032,0.263,38.21,120.2,40.522717,-3.413534,624.5,6,5,321.7,2.109
38.44,1,-0.028,-0.053,-0.003,-0.011,-0.043,-0.011,-1.617,0.035,0.267,38.21,120.2,40.522717,-3.413534,624.5,6,5,321.7,2.109
38.53,1,-0.021,-0.048,0.001,-0.02,-0.052,-0.006,-1.618,0.038,0.271,38.21,120.2,40.522717,-3.413534,624.5,6,5,321.7,2.109
38.65,1,-0.045,-0.052,-0.015,-0.03,-0.053,-0.008,-1.618,0.037,0.276,38.21,120.2,40.522717,-3.413534,624.5,6,5,321.7,2.109
38.74,1,-0.02,-0.038,-0.011,-0.03,-0.042,-0.009,-1.618,0.035,0.279,38.21,120.2,40.522717,-3.413534,624.5,6,5,321.7,2.109
38.83,1,0.022,-0.022,-0.003,-0.005,-0.037,-0.011,-1.618,0.036,0.283,38.21,120.2,40.522717,-3.413534,624.5,6,5,321.7,2.109
38.94,1,0.011,-0.076,-0.01,0.006,-0.048,-0.005,-1.619,0.037,0.287,38.21,120.2,40.522717,-3.413534,624.5,6,5,321.7,2.109
39.04,1,0.007,-0.028,-0.005,0.007,-0.042,-0.007,-1.618,0.037,0.291,38.21,120.2,40.522717,-3.413534,624.5,6,5,321.7,2.109
39.13,1,-0.022,-0.027,0.01,-0.002,-0.034,-0.002,-1.617,0.04,0.295,38.21,120.2,40.522717,-3.413534,624.5,6,5,321.7,2.109
39.24,1,-0.02,-0.041,0.005,-0.017,-0.033,0.007,-1.617,0.045,0.299,39.17,120.7,40.522945,-3.413785,626.1,4,5,319.6,4.219
39.34,1,0.012,-0.07,-0.019,-0.006,-0.053,-0.005,-1.616,0.051,0.304,39.17,120.7,40.522945,-3.413785,626.1,4,5,319.6,4.219
39.44,1,0.017,-0.078,-0.008,0.014,-0.064,-0.01,-1.615,0.058,0.31,39.17,120.7,40.522945,-3.413785,626.1,4,5,319.6,4.219
39.54,1,0.014,-0.028,0.0,0.009,-0.057,-0.003,-1.616,0.066,0.316,39.17,120.7,40.522945,-3.413785,626.1,4,5,319.6,4.219
39.64,1,-0.017,-0.062,-0.028,0.01,-0.052,-0.016,-1.614,0.071,0.321,39.17,120.7,40.522945,-3.413785,626.1,4,5,319.6,4.219
39.73,1,-0.134,-0.054,-0.003,-0.062,-0.055,-0.011,-1.616,0.071,0.324,39.17,120.7,40.522945,-3.413785,626.1,4,5,319.6,4.219
39.84,1,-0.116,0.006,0.013,-0.104,-0.029,0.001,-1.617,0.07,0.327,39.17,120.7,40.522945,-3.413785,626.1,4,5,319.6,4.219
39.93,1,-0.03,0.027,-0.012,-0.08,0.002,-0.001,-1.619,0.067,0.33,39.17,120.7,40.522945,-3.413785,626.1,4,5,319.6,4.219
40.03,1,0.055,0.049,-0.014,-0.011,0.021,-0.009,-1.617,0.062,0.332,39.17,120.7,40.522945,-3.413785,626.1,4,5,319.6,4.219
40.13,1,0.047,0.027,-0.012,0.029,0.039,-0.013,-1.617,0.062,0.336,39.17,120.7,40.522945,-3.413785,626.1,4,5,319.6,4.219
40.23,1,-0.038,-0.028,-0.01,0.003,0.009,-0.012,-1.618,0.062,0.34,40.17,120.9,40.52317,-3.414052,627.2,6,5,317.5,4.219
40.34,1,-0.048,-0.036,-0.022,-0.03,-0.024,-0.013,-1.616,0.063,0.344,40.17,120.9,40.52317,-3.414052,627.2,6,5,317.5,4.219
40.44,1,-0.045,0.001,-0.009,-0.031,-0.014,-0.015,-1.615,0.064,0.348,40.17,120.9,40.52317,-3.414052,627.2,6,5,317.5,4.219
40.54,1,-0.048,-0.061,-0.027,-0.045,-0.026,-0.021,-1.615,0.065,0.352,40.17,120.9,40.52317,-3.414052,627.2,6,5,317.5,4.219
40.64,1,0.018,-0.034,0.015,-0.018,-0.035,-0.005,-1.616,0.065,0.357,40.17,120.9,40.52317,-3.414052,627.2,6,5,317.5,4.219
40.74,1,0.018,-0.049,-0.02,0.006,-0.046,-0.007,-1.616,0.066,0.362,40.17,120.9,40.52317,-3.414052,627.2,6,5,317.5,4.219
40.84,1,0.065,-0.035,-0.013,0.027,-0.039,-0.012,-1.615,0.066,0.366,40.17,120.9,40.52317,-3.414052,627.2,6,5,317.5,4.219
40.94,1,0.033,-0.032,-0.025,0.04,-0.038,-0.02,-1.613,0.063,0.371,40.17,120.9,40.52317,-3.414052,627.2,6,5,317.5,4.219
41.04,1,0.039,-0.041,-0.018,0.037,-0.035,-0.02,-1.612,0.067,0.376,40.17,120.9,40.52317,-3.414052,627.2,6,5,317.5,4.219
41.14,1,0.01,-0.047,-0.004,0.028,-0.046,-0.013,-1.611,0.069,0.38,40.17,120.9,40.52317,-3.414052,627.2,6,5,317.5,4.219
41.24,1,0.016,-0.018,-0.047,0.015,-0.034,-0.022,-1.609,0.07,0.384,41.2,120.9,40.523384,-3.414332,629.4,6,5,315.4,4.219
41.34,1,0.011,0.008,-0.014,0.021,-0.004,-0.03,-1.607,0.07,0.388,41.2,120.9,40.523384,-3.414332,629.4,6,5,315.4,4.219
41.45,1,0.01,-0.002,-0.013,0.013,-0.006,-0.018,-1.607,0.071,0.391,41.2,120.9,40.523384,-3.414332,629.4,6,5,315.4,4.219
41.54,1,-0.019,0.056,-0.024,-0.001,0.018,-0.016,-1.606,0.067,0.393,41.2,120.9,40.523384,-3.414332,629.4,6,5,315.4,4.219
41.64,1,-0.049,0.042,0.002,-0.022,0.033,-0.013,-1.606,0.064,0.396,41.2,120.9,40.523384,-3.414332,629.4,6,5,315.4,4.219
41.74,1,-0.063,0.031,-0.006,-0.047,0.044,-0.006,-1.606,0.061,0.399,41.2,120.9,40.523384,-3.414332,629.4,6,5,315.4,4.219
41.84,1,-0.002,0.035,0.021,-0.037,0.033,0.004,-1.607,0.06,0.403,41.2,120.9,40.523384,-3.414332,629.4,6,5,315.4,4.219
41.94,1,0.016,-0.006,-0.009,-0.004,0.018,0.005,-1.607,0.062,0.407,41.2,120.9,40.523384,-3.414332,629.4,6,5,315.4,4.219
42.04,1,0.006,-0.045,0.015,-0.0,-0.015,0.004,-1.608,0.066,0.411,41.2,120.9,40.523384,-3.414332,629.4,6,5,315.4,4.219
42.15,1,0.061,-0.008,-0.013,0.03,-0.018,0.002,-1.607,0.063,0.416,41.2,120.9,40.523384,-3.414332,629.4,6,5,315.4,4.219
42.25,1,0.003,-0.045,-0.018,0.03,-0.022,-0.015,-1.606,0.063,0.421,42.17,121.2,40.52359,-3.414626,632.2,6,5,312.5,4.922
42.34,1,0.023,0.008,0.001,0.018,-0.025,-0.006,-1.605,0.064,0.425,42.17,121.2,40.52359,-3.414626,632.2,6,5,312.5,4.922
42.44,1,0.03,-0.03,0.014,0.02,-0.017,0.003,-1.606,0.066,0.43,42.17,121.2,40.52359,-3.414626,632.2,6,5,312.5,4.922
42.55,1,0.019,0.007,0.002,0.022,-0.01,0.007,-1.605,0.069,0.435,42.17,121.2,40.52359,-3.414626,632.2,6,5,312.5,4.922
42.64,1,0.015,-0.028,0.005,0.023,-0.014,0.006,-1.605,0.075,0.44,42.17,121.2,40.52359,-3.414626,632.2,6,5,312.5,4.922
42.74,1,-0.006,-0.014,-0.004,0.008,-0.02,-0.001,-1.604,0.079,0.444,42.17,121.2,40.52359,-3.414626,632.2,6,5,312.5,4.922
42.84,1,-0.006,-0.032,-0.015,-0.0,-0.017,-0.008,-1.604,0.08,0.449,42.17,121.2,40.52359,-3.414626,632.2,6,5,312.5,4.922
42.94,1,-0.041,-0.017,-0.005,-0.019,-0.023,-0.005,-1.605,0.083,0.454,42.17,121.2,40.52359,-3.414626,632.2,6,5,312.5,4.922
43.04,1,0.013,-0.012,-0.006,-0.013,-0.021,-0.009,-1.603,0.084,0.459,42.17,121.2,40.52359,-3.414626,632.2,6,5,312.5,4.922
43.14,1,0.028,-0.027,-0.004,0.011,-0.01,-0.006,-1.604,0.084,0.464,42.17,121.2,40.52359,-3.414626,632.2,6,5,312.5,4.922
43.25,1,0.018,-0.033,0.001,0.018,-0.032,-0.003,-1.604,0.083,0.469,43.17,121.1,40.523781,-3.414937,631.1,6,5,310.1,5.273
43.35,1,0.0,-0.016,-0.022,0.013,-0.022,-0.01,-1.604,0.082,0.474,43.17,121.1,40.523781,-3.414937,631.1,6,5,310.1,5.273
43.45,1,-0.026,0.016,-0.01,-0.006,-0.003,-0.009,-1.605,0.082,0.478,43.17,121.1,40.523781,-3.414937,631.1,6,5,310.1,5.273
43.55,1,-0.036,0.002,-0.001,-0.028,0.001,-0.01,-1.604,0.084,0.482,43.17,121.1,40.523781,-3.414937,631.1,6,5,310.1,5.273
43.65,1,0.007,0.03,0.022,-0.018,0.006,0.007,-1.605,0.082,0.486,43.17,121.1,40.523781,-3.414937,631.1,6,5,310.1,5.273
43.75,1,0.016,0.022,-0.003,0.004,0.016,0.007,-1.605,0.082,0.489,43.17,121.1,40.523781,-3.414937,631.1,6,5,310.1,5.273
43.85,1,0.038,0.04,-0.01,0.02,0.034,-0.002,-1.605,0.082,0.493,43.17,121.1,40.523781,-3.414937,631.1,6,5,310.1,5.273
43.95,1,0.025,-0.0,-0.005,0.028,0.019,-0.009,-1.605,0.083,0.497,43.17,121.1,40.523781,-3.414937,631.1,6,5,310.1,5.273
44.05,1,-0.014,0.024,-0.031,0.013,0.021,-0.008,-1.602,0.08,0.5,43.17,121.1,40.523781,-3.414937,631.1,6,5,310.1,5.273
44.15,1,-0.066,0.002,-0.059,-0.025,0.013,-0.04,-1.595,0.078,0.504,43.17,121.1,40.523781,-3.414937,631.1,6,5,310.1,5.273
44.25,1,-0.003,-0.001,-0.054,-0.03,-0.003,-0.05,-1.593,0.077,0.508,44.17,121.3,40.523956,-3.415261,631.0,6,5,307.3,5.273
44.35,1,0.057,0.036,-0.097,0.013,0.024,-0.069,-1.589,0.076,0.511,44.17,121.3,40.523956,-3.415261,631.0,6,5,307.3,5.273
44.45,1,0.013,0.002,-0.066,0.028,0.012,-0.073,-1.585,0.074,0.515,44.17,121.3,40.523956,-3.415261,631.0,6,5,307.3,5.273
44.56,1,0.021,-0.004,-0.0,0.019,0.003,-0.045,-1.586,0.072,0.518,44.17,121.3,40.523956,-3.415261,631.0,6,5,307.3,5.273
44.65,1,0.048,0.033,-0.064,0.039,0.018,-0.04,-1.585,0.071,0.521,44.17,121.3,40.523956,-3.415261,631.0,6,5,307.3,5.273
44.75,1,0.004,0.019,-0.035,0.016,0.026,-0.048,-1.586,0.069,0.523,44.17,121.3,40.523956,-3.415261,631.0,6,5,307.3,5.273
44.85,1,-0.034,0.07,-0.025,-0.006,0.04,-0.033,-1.585,0.065,0.526,44.17,121.3,40.523956,-3.415261,631.0,6,5,307.3,5.273
44.95,1,-0.044,0.036,-0.002,-0.027,0.04,-0.02,-1.584,0.058,0.528,44.17,121.3,40.523956,-3.415261,631.0,6,5,307.3,5.273
45.06,1,0.012,0.011,-0.002,-0.019,0.03,-0.008,-1.584,0.054,0.531,44.17,121.3,40.523956,-3.415261,631.0,6,5,307.3,5.273
45.15,1,0.033,-0.009,-0.007,0.009,0.009,-0.004,-1.582,0.053,0.534,44.17,121.3,40.523956,-3.415261,631.0,6,5,307.3,5.273
45.25,1,0.031,-0.009,-0.002,0.025,0.002,-0.004,-1.582,0.051,0.539,45.21,122.0,40.524132,-3.415598,633.1,6,5,304.5,5.625
45.35,1,0.005,-0.026,-0.013,0.024,-0.017,-0.007,-1.582,0.053,0.543,45.21,122.0,40.524132,-3.415598,633.1,6,5,304.5,5.625
45.45,1,-0.037,-0.042,-0.013,-0.013,-0.028,-0.012,-1.583,0.055,0.547,45.21,122.0,40.524132,-3.415598,633.1,6,5,304.5,5.625
45.55,1,0.0,-0.005,-0.002,-0.007,-0.02,-0.006,-1.582,0.058,0.551,45.21,122.0,40.524132,-3.415598,633.1,6,5,304.5,5.625
45.66,1,-0.012,-0.011,0.005,-0.01,-0.014,-0.001,-1.582,0.059,0.555,45.21,122.0,40.524132,-3.415598,633.1,6,5,304.5,5.625
45.76,1,0.064,0.011,0.001,0.02,-0.004,-0.001,-1.581,0.058,0.559,45.21,122.0,40.524132,-3.415598,633.1,6,5,304.5,5.625
45.86,1,0.022,-0.014,-0.027,0.036,-0.002,-0.008,-1.583,0.06,0.563,45.21,122.0,40.524132,-3.415598,633.1,6,5,304.5,5.625
45.95,1,-0.023,-0.008,0.001,0.006,-0.011,-0.012,-1.582,0.062,0.567,45.21,122.0,40.524132,-3.415598,633.1,6,5,304.5,5.625
46.05,1,-0.016,-0.01,0.0,-0.011,-0.007,-0.004,-1.581,0.063,0.571,45.21,122.0,40.524132,-3.415598,633.1,6,5,304.5,5.625
46.15,1,0.043,-0.02,-0.0,0.005,-0.012,0.003,-1.582,0.066,0.575,45.21,122.0,40.524132,-3.415598,633.1,6,5,304.5,5.625
46.27,1,0.052,-0.024,-0.024,0.04,-0.021,-0.013,-1.58,0.071,0.58,46.17,121.2,40.524292,-3.415935,633.2,6,5,302.0,5.273
46.36,1,-0.003,-0.038,0.002,0.023,-0.028,-0.007,-1.582,0.075,0.585,46.17,121.2,40.524292,-3.415935,633.2,6,5,302.0,5.273
46.46,1,-0.022,-0.048,-0.002,-0.001,-0.042,-0.004,-1.581,0.08,0.59,46.17,121.2,40.524292,-3.415935,633.2,6,5,302.0,5.273
46.56,1,-0.041,-0.044,-0.016,-0.015,-0.041,-0.009,-1.582,0.082,0.595,46.17,121.2,40.524292,-3.415935,633.2,6,5,302.0,5.273
46.66,1,-0.041,-0.007,-0.01,-0.039,-0.037,-0.007,-1.582,0.082,0.6,46.17,121.2,40.524292,-3.415935,633.2,6,5,302.0,5.273
46.76,1,0.068,-0.005,-0.007,0.008,-0.012,-0.012,-1.583,0.08,0.603,46.17,121.2,40.524292,-3.415935,633.2,6,5,302.0,5.273
46.86,1,0.036,-0.005,0.011,0.029,-0.005,0.0,-1.583,0.081,0.608,46.17,121.2,40.524292,-3.415935,633.2,6,5,302.0,5.273
46.96,1,-0.037,-0.012,-0.021,0.002,-0.008,-0.005,-1.581,0.083,0.612,46.17,121.2,40.524292,-3.415935,633.2,6,5,302.0,5.273
47.06,1,-0.041,-0.001,0.019,-0.015,-0.0,-0.001,-1.581,0.085,0.616,46.17,121.2,40.524292,-3.415935,633.2,6,5,302.0,5.273
47.16,1,-0.07,-0.054,0.008,-0.048,-0.024,0.006,-1.581,0.088,0.621,46.17,121.2,40.524292,-3.415935,633.2,6,5,302.0,5.273
47.26,1,0.034,-0.001,0.001,-0.03,-0.018,0.006,-1.582,0.087,0.625,47.2,121.1,40.524437,-3.416285,633.5,6,5,299.9,4.57
47.36,1,0.038,-0.038,-0.008,0.013,-0.029,0.003,-1.582,0.087,0.629,47.2,121.1,40.524437,-3.416285,633.5,6,5,299.9,4.57
47.47,1,0.05,-0.011,0.005,0.041,-0.024,-0.0,-1.583,0.089,0.634,47.2,121.1,40.524437,-3.416285,633.5,6,5,299.9,4.57
47.56,1,0.046,-0.003,-0.006,0.046,-0.011,-0.004,-1.582,0.087,0.639,47.2,121.1,40.524437,-3.416285,633.5,6,5,299.9,4.57
47.66,1,-0.001,-0.008,-0.001,0.025,-0.01,-0.002,-1.58,0.087,0.643,47.2,121.1,40.524437,-3.416285,633.5,6,5,299.9,4.57
47.76,1,-0.004,-0.019,0.006,0.005,-0.01,0.001,-1.578,0.089,0.647,47.2,121.1,40.524437,-3.416285,633.5,6,5,299.9,4.57
47.86,1,-0.017,-0.004,-0.028,0.0,-0.009,-0.009,-1.577,0.089,0.651,47.2,121.1,40.524437,-3.416285,633.5,6,5,299.9,4.57
47.96,1,-0.014,-0.021,0.016,-0.011,-0.013,-0.009,-1.578,0.09,0.655,47.2,121.1,40.524437,-3.416285,633.5,6,5,299.9,4.57
48.06,1,0.017,0.001,0.009,-0.008,-0.009,0.007,-1.58,0.087,0.659,47.2,121.1,40.524437,-3.416285,633.5,6,5,299.9,4.57
48.17,1,0.089,0.006,0.004,0.035,0.001,0.011,-1.579,0.087,0.663,47.2,121.1,40.524437,-3.416285,633.5,6,5,299.9,4.57
48.26,1,0.07,-0.003,-0.018,0.075,0.002,-0.01,-1.579,0.088,0.667,48.2,121.6,40.524574,-3.416647,633.9,4,5,297.1,4.922
48.36,1,0.018,-0.02,0.019,0.042,-0.015,0.006,-1.58,0.09,0.671,48.2,121.6,40.524574,-3.416647,633.9,4,5,297.1,4.922
48.46,1,-0.005,0.012,0.01,0.015,-0.006,0.008,-1.581,0.091,0.674,48.2,121.6,40.524574,-3.416647,633.9,4,5,297.1,4.922
48.56,1,-0.013,0.041,-0.024,-0.0,0.018,0.0,-1.578,0.091,0.677,48.2,121.6,40.524574,-3.416647,633.9,4,5,297.1,4.922
48.66,1,-0.061,0.043,-0.023,-0.021,0.029,-0.016,-1.577,0.09,0.68,48.2,121.6,40.524574,-3.416647,633.9,4,5,297.1,4.922
48.76,1,-0.035,-0.005,0.014,-0.036,0.025,-0.008,-1.577,0.09,0.683,48.2,121.6,40.524574,-3.416647,633.9,4,5,297.1,4.922
48.86,1,0.009,0.042,-0.003,-0.021,0.019,0.001,-1.577,0.09,0.685,48.2,121.6,40.524574,-3.416647,633.9,4,5,297.1,4.922
48.96,1,0.039,0.062,-0.006,0.009,0.051,-0.004,-1.577,0.085,0.688,48.2,121.6,40.524574,-3.416647,633.9,4,5,297.1,4.922
49.06,1,0.021,0.034,-0.006,0.024,0.047,-0.002,-1.577,0.085,0.69,48.2,121.6,40.524574,-3.416647,633.9,4,5,297.1,4.922
49.16,1,-0.07,0.04,-0.004,-0.007,0.041,-0.007,-1.576,0.086,0.691,48.2,121.6,40.524574,-3.416647,633.9,4,5,297.1,4.922
49.27,1,-0.003,0.078,0.042,-0.042,0.054,0.012,-1.577,0.085,0.693,49.17,122.1,40.524693,-3.417018,634.6,4,5,293.9,5.977
49.37,1,0.141,0.052,0.003,0.046,0.057,0.023,-1.574,0.086,0.694,49.17,122.1,40.524693,-3.417018,634.6,4,5,293.9,5.977
49.47,1,0.102,0.071,-0.004,0.092,0.058,0.002,-1.571,0.089,0.696,49.17,122.1,40.524693,-3.417018,634.6,4,5,293.9,5.977
49.57,1,0.025,0.051,-0.021,0.081,0.063,-0.01,-1.57,0.095,0.698,49.17,122.1,40.524693,-3.417018,634.6,4,5,293.9,5.977
49.67,1,-0.156,0.022,0.014,-0.032,0.04,-0.004,-1.571,0.095,0.699,49.17,122.1,40.524693,-3.417018,634.6,4,5,293.9,5.977
49.77,1,-0.146,0.02,0.011,-0.111,0.032,0.012,-1.572,0.094,0.701,49.17,122.1,40.524693,-3.417018,634.6,4,5,293.9,5.977
49.87,1,-0.051,0.046,-0.002,-0.093,0.037,-0.005,-1.573,0.089,0.703,49.17,122.1,40.524693,-3.417018,634.6,4,5,293.9,5.977
49.97,1,0.052,0.051,-0.023,-0.024,0.043,-0.0,-1.572,0.087,0.704,49.17,122.1,40.524693,-3.417018,634.6,4,5,293.9,5.977
50.07,1,0.029,0.052,-0.056,0.006,0.051,-0.029,-1.572,0.092,0.707,49.17,122.1,40.524693,-3.417018,634.6,4,5,293.9,5.977
50.17,1,0.009,0.044,-0.045,0.017,0.041,-0.046,-1.573,0.094,0.709,49.17,122.1,40.524693,-3.417018,634.6,4,5,293.9,5.977
50.27,1,-0.02,-0.018,-0.047,0.004,0.02,-0.046,-1.572,0.095,0.712,50.18,122.4,40.524815,-3.417399,634.3,6,5,292.1,4.922
50.37,1,-0.071,0.006,-0.057,-0.031,0.01,-0.05,-1.566,0.094,0.714,50.18,122.4,40.524815,-3.417399,634.3,6,5,292.1,4.922
50.47,1,-0.111,0.04,-0.072,-0.078,0.014,-0.058,-1.561,0.089,0.715,50.18,122.4,40.524815,-3.417399,634.3,6,5,292.1,4.922
50.57,1,-0.034,0.07,-0.05,-0.07,0.043,-0.055,-1.559,0.087,0.717,50.18,122.4,40.524815,-3.417399,634.3,6,5,292.1,4.922
50.67,1,-0.008,-0.011,-0.048,-0.032,0.035,-0.06,-1.554,0.092,0.718,50.18,122.4,40.524815,-3.417399,634.3,6,5,292.1,4.922
50.77,1,0.028,0.011,-0.032,-0.004,0.009,-0.04,-1.552,0.097,0.72,50.18,122.4,40.524815,-3.417399,634.3,6,5,292.1,4.922
50.87,1,0.04,0.02,-0.033,0.022,0.02,-0.038,-1.55,0.098,0.722,50.18,122.4,40.524815,-3.417399,634.3,6,5,292.1,4.922
50.97,1,-0.0,0.005,-0.043,0.014,0.003,-0.038,-1.546,0.101,0.723,50.18,122.4,40.524815,-3.417399,634.3,6,5,292.1,4.922
51.08,1,-0.039,0.017,-0.029,-0.009,0.016,-0.036,-1.543,0.099,0.725,50.18,122.4,40.524815,-3.417399,634.3,6,5,292.1,4.922
51.17,1,-0.058,0.035,-0.05,-0.035,0.025,-0.041,-1.54,0.099,0.726,50.18,122.4,40.524815,-3.417399,634.3,6,5,292.1,4.922
51.27,1,-0.059,0.039,-0.028,-0.047,0.028,-0.035,-1.537,0.097,0.726,51.17,123.7,40.524914,-3.417792,633.3,6,5,289.7,4.219
51.37,1,-0.065,0.034,-0.027,-0.059,0.039,-0.033,-1.537,0.094,0.727,51.17,123.7,40.524914,-3.417792,633.3,6,5,289.7,4.219
51.47,1,-0.026,0.05,-0.032,-0.05,0.04,-0.031,-1.535,0.091,0.727,51.17,123.7,40.524914,-3.417792,633.3,6,5,289.7,4.219
51.57,1,0.052,0.043,-0.025,0.001,0.043,-0.026,-1.534,0.088,0.727,51.17,123.7,40.524914,-3.417792,633.3,6,5,289.7,4.219
51.68,1,-0.024,0.046,-0.026,0.001,0.046,-0.03,-1.533,0.087,0.728,51.17,123.7,40.524914,-3.417792,633.3,6,5,289.7,4.219
51.78,1,0.06,0.071,-0.046,0.015,0.048,-0.031,-1.531,0.086,0.728,51.17,123.7,40.524914,-3.417792,633.3,6,5,289.7,4.219
51.88,1,0.003,0.009,-0.033,0.035,0.048,-0.038,-1.527,0.084,0.728,51.17,123.7,40.524914,-3.417792,633.3,6,5,289.7,4.219
51.97,1,0.008,0.018,-0.061,0.006,0.021,-0.044,-1.523,0.084,0.728,51.17,123.7,40.524914,-3.417792,633.3,6,5,289.7,4.219
52.07,1,-0.036,0.063,-0.041,-0.007,0.038,-0.048,-1.52,0.079,0.727,51.17,123.7,40.524914,-3.417792,633.3,6,5,289.7,4.219
52.18,1,-0.11,0.065,-0.06,-0.06,0.06,-0.053,-1.517,0.079,0.725,51.17,123.7,40.524914,-3.417792,633.3,6,5,289.7,4.219
52.28,1,-0.012,0.05,-0.043,-0.057,0.058,-0.048,-1.513,0.075,0.723,52.17,123.3,40.524994,-3.418181,633.0,4,5,287.6,4.57
52.38,1,0.067,0.071,-0.037,0.007,0.065,-0.045,-1.507,0.073,0.721,52.17,123.3,40.524994,-3.418181,633.0,4,5,287.6,4.57
52.48,1,0.007,0.149,-0.04,0.026,0.089,-0.036,-1.502,0.071,0.718,52.17,123.3,40.524994,-3.418181,633.0,4,5,287.6,4.57
52.58,1,-0.018,0.069,-0.013,0.0,0.096,-0.034,-1.502,0.071,0.716,52.17,123.3,40.524994,-3.418181,633.0,4,5,287.6,4.57
52.68,1,-0.027,0.07,-0.063,-0.02,0.08,-0.035,-1.499,0.068,0.713,52.17,123.3,40.524994,-3.418181,633.0,4,5,287.6,4.57
52.78,1,0.002,0.052,-0.009,-0.016,0.069,-0.037,-1.496,0.064,0.711,52.17,123.3,40.524994,-3.418181,633.0,4,5,287.6,4.57
52.88,1,0.011,0.078,-0.012,0.015,0.063,-0.014,-1.497,0.054,0.709,52.17,123.3,40.524994,-3.418181,633.0,4,5,287.6,4.57
52.98,1,-0.028,0.112,-0.007,-0.006,0.091,-0.018,-1.496,0.042,0.707,52.17,123.3,40.524994,-3.418181,633.0,4,5,287.6,4.57
53.08,1,-0.066,0.127,0.014,-0.035,0.111,-0.0,-1.498,0.03,0.704,52.17,123.3,40.524994,-3.418181,633.0,4,5,287.6,4.57
53.18,1,-0.068,0.066,0.023,-0.055,0.094,0.013,-1.501,0.026,0.701,52.17,123.3,40.524994,-3.418181,633.0,4,5,287.6,4.57
53.28,1,-0.008,0.058,0.02,-0.045,0.073,0.017,-1.503,0.025,0.698,53.17,122.0,40.525074,-3.418567,631.5,4,5,285.8,3.867
53.38,1,0.047,0.068,-0.006,0.009,0.068,0.009,-1.503,0.021,0.695,53.17,122.0,40.525074,-3.418567,631.5,4,5,285.8,3.867
53.49,1,0.012,0.045,0.024,0.015,0.058,0.01,-1.505,0.018,0.692,53.17,122.0,40.525074,-3.418567,631.5,4,5,285.8,3.867
53.58,1,0.018,0.069,0.028,0.012,0.06,0.023,-1.508,0.014,0.688,53.17,122.0,40.525074,-3.418567,631.5,4,5,285.8,3.867
53.69,1,-0.018,0.051,0.018,0.001,0.056,0.02,-1.511,0.008,0.684,53.17,122.0,40.525074,-3.418567,631.5,4,5,285.8,3.867
53.78,1,-0.025,0.072,0.01,-0.011,0.06,0.02,-1.514,0.004,0.68,53.17,122.0,40.525074,-3.418567,631.5,4,5,285.8,3.867
53.88,1,-0.014,0.051,0.023,-0.015,0.059,0.016,-1.514,0.002,0.676,53.17,122.0,40.525074,-3.418567,631.5,4,5,285.8,3.867
53.98,1,-0.028,0.073,0.009,-0.021,0.071,0.015,-1.516,-0.001,0.672,53.17,122.0,40.525074,-3.418567,631.5,4,5,285.8,3.867
54.08,1,-0.024,0.02,0.048,-0.022,0.044,0.028,-1.521,-0.001,0.668,53.17,122.0,40.525074,-3.418567,631.5,4,5,285.8,3.867
54.18,1,-0.02,0.024,-0.002,-0.026,0.034,0.017,-1.524,-0.003,0.665,53.17,122.0,40.525074,-3.418567,631.5,4,5,285.8,3.867
54.29,1,0.038,0.079,0.03,0.001,0.046,0.02,-1.526,-0.008,0.66,54.17,119.9,40.525158,-3.418948,630.6,4,5,285.5,2.109
54.38,1,0.003,0.112,0.017,0.016,0.081,0.019,-1.528,-0.012,0.654,54.17,119.9,40.525158,-3.418948,630.6,4,5,285.5,2.109
54.48,1,0.081,0.096,0.025,0.043,0.095,0.026,-1.528,-0.013,0.648,54.17,119.9,40.525158,-3.418948,630.6,4,5,285.5,2.109
54.58,1,-0.066,0.073,-0.007,0.004,0.085,0.011,-1.529,-0.015,0.641,54.17,119.9,40.525158,-3.418948,630.6,4,5,285.5,2.109
54.68,1,-0.041,0.108,0.041,-0.034,0.097,0.02,-1.533,-0.02,0.635,54.17,119.9,40.525158,-3.418948,630.6,4,5,285.5,2.109
54.78,1,-0.06,0.021,0.023,-0.048,0.067,0.023,-1.535,-0.023,0.631,54.17,119.9,40.525158,-3.418948,630.6,4,5,285.5,2.109
54.89,1,-0.054,0.005,0.024,-0.051,0.033,0.025,-1.538,-0.021,0.628,54.17,119.9,40.525158,-3.418948,630.6,4,5,285.5,2.109
54.98,1,0.02,0.007,0.016,-0.022,0.016,0.022,-1.542,-0.018,0.625,54.17,119.9,40.525158,-3.418948,630.6,4,5,285.5,2.109
55.08,1,0.007,-0.038,0.032,-0.002,-0.014,0.026,-1.544,-0.013,0.623,54.17,119.9,40.525158,-3.418948,630.6,4,5,285.5,2.109
55.18,1,-0.002,-0.013,-0.008,0.004,-0.017,0.011,-1.546,-0.01,0.62,54.17,119.9,40.525158,-3.418948,630.6,4,5,285.5,2.109
55.29,1,-0.003,0.005,0.03,-0.0,-0.007,0.017,-1.55,-0.006,0.616,55.18,118.7,40.52523,-3.419324,628.9,4,5,286.2,0.703
55.38,1,-0.029,0.017,0.009,-0.015,0.002,0.015,-1.551,-0.005,0.612,55.18,118.7,40.52523,-3.419324,628.9,4,5,286.2,0.703
55.49,1,-0.07,0.039,-0.016,-0.032,0.025,0.004,-1.554,-0.008,0.607,55.18,118.7,40.52523,-3.419324,628.9,4,5,286.2,0.703
55.59,1,-0.138,0.05,0.012,-0.095,0.035,-0.005,-1.557,-0.009,0.601,55.18,118.7,40.52523,-3.419324,628.9,4,5,286.2,0.703
55.69,1,0.026,0.091,0.013,-0.069,0.063,0.013,-1.558,-0.011,0.596,55.18,118.7,40.52523,-3.419324,628.9,4,5,286.2,0.703
55.79,1,0.059,0.073,-0.012,0.021,0.071,0.001,-1.557,-0.013,0.59,55.18,118.7,40.52523,-3.419324,628.9,4,5,286.2,0.703
55.89,1,0.011,0.066,0.004,0.023,0.069,0.001,-1.558,-0.015,0.583,55.18,118.7,40.52523,-3.419324,628.9,4,5,286.2,0.703
55.99,1,-0.025,0.092,0.018,0.006,0.075,0.008,-1.56,-0.021,0.576,55.18,118.7,40.52523,-3.419324,628.9,4,5,286.2,0.703
56.1,1,-0.04,0.098,0.018,-0.018,0.095,0.014,-1.561,-0.03,0.57,55.18,118.7,40.52523,-3.419324,628.9,4,5,286.2,0.703
56.2,1,-0.049,0.074,-0.026,-0.033,0.089,-0.001,-1.561,-0.033,0.563,55.18,118.7,40.52523,-3.419324,628.9,4,5,286.2,0.703
56.29,1,-0.11,0.056,-0.033,-0.075,0.072,-0.021,-1.563,-0.031,0.557,56.2,119.3,40.525318,-3.419699,628.0,4,5,287.6,2.109
56.39,1,-0.074,0.058,-0.057,-0.083,0.059,-0.038,-1.563,-0.032,0.552,56.2,119.3,40.525318,-3.419699,628.0,4,5,287.6,2.109
56.49,1,-0.025,0.054,-0.033,-0.056,0.059,-0.04,-1.558,-0.035,0.546,56.2,119.3,40.525318,-3.419699,628.0,4,5,287.6,2.109
56.59,1,0.018,0.031,-0.039,-0.016,0.046,-0.037,-1.555,-0.038,0.54,56.2,119.3,40.525318,-3.419699,628.0,4,5,287.6,2.109
56.7,1,0.025,0.027,-0.02,-0.0,0.034,-0.03,-1.555,-0.039,0.534,56.2,119.3,40.525318,-3.419699,628.0,4,5,287.6,2.109
56.79,1,0.008,0.033,-0.033,0.02,0.034,-0.03,-1.556,-0.04,0.527,56.2,119.3,40.525318,-3.419699,628.0,4,5,287.6,2.109
56.89,1,-0.04,-0.011,-0.042,-0.013,0.007,-0.034,-1.552,-0.042,0.522,56.2,119.3,40.525318,-3.419699,628.0,4,5,287.6,2.109
56.99,1,-0.029,0.031,-0.04,-0.029,0.019,-0.039,-1.548,-0.044,0.517,56.2,119.3,40.525318,-3.419699,628.0,4,5,287.6,2.109
57.1,1,-0.104,-0.03,-0.05,-0.051,0.006,-0.044,-1.546,-0.042,0.513,56.2,119.3,40.525318,-3.419699,628.0,4,5,287.6,2.109
57.19,1,-0.116,-0.014,-0.041,-0.098,-0.013,-0.047,-1.546,-0.04,0.51,56.2,119.3,40.525318,-3.419699,628.0,4,5,287.6,2.109
57.3,1,-0.016,-0.038,-0.026,-0.073,-0.024,-0.032,-1.545,-0.036,0.506,57.19,119.1,40.525417,-3.420067,627.8,4,5,289.3,3.164
57.4,1,0.03,-0.014,-0.041,-0.016,-0.024,-0.039,-1.541,-0.033,0.501,57.19,119.1,40.525417,-3.420067,627.8,4,5,289.3,3.164
57.49,1,0.024,0.014,-0.041,0.018,-0.008,-0.041,-1.537,-0.034,0.496,57.19,119.1,40.525417,-3.420067,627.8,4,5,289.3,3.164
57.59,1,-0.021,0.041,-0.071,0.004,0.017,-0.048,-1.532,-0.038,0.49,57.19,119.1,40.525417,-3.420067,627.8,4,5,289.3,3.164
57.69,1,-0.026,0.042,-0.111,-0.027,0.035,-0.081,-1.524,-0.041,0.484,57.19,119.1,40.525417,-3.420067,627.8,4,5,289.3,3.164
57.79,1,0.02,0.076,-0.114,0.002,0.05,-0.1,-1.512,-0.045,0.477,57.19,119.1,40.525417,-3.420067,627.8,4,5,289.3,3.164
57.9,1,0.011,0.042,-0.136,0.007,0.057,-0.118,-1.5,-0.051,0.47,57.19,119.1,40.525417,-3.420067,627.8,4,5,289.3,3.164
57.99,1,0.041,0.056,-0.159,0.022,0.053,-0.142,-1.485,-0.058,0.464,57.19,119.1,40.525417,-3.420067,627.8,4,5,289.3,3.164
58.09,1,-0.051,0.067,-0.147,0.0,0.058,-0.148,-1.474,-0.062,0.457,57.19,119.1,40.525417,-3.420067,627.8,4,5,289.3,3.164
58.19,1,-0.031,0.047,-0.051,-0.041,0.052,-0.112,-1.47,-0.069,0.451,57.19,119.1,40.525417,-3.420067,627.8,4,5,289.3,3.164
58.3,1,0.001,-0.01,0.018,-0.013,0.028,-0.046,-1.469,-0.068,0.447,58.18,119.4,40.525536,-3.420431,627.8,4,5,291.4,3.867
58.4,1,0.083,0.064,0.046,0.044,0.037,0.013,-1.47,-0.068,0.442,58.18,119.4,40.525536,-3.420431,627.8,4,5,291.4,3.867
58.5,1,-0.108,-0.041,0.005,-0.026,0.015,0.011,-1.472,-0.067,0.437,58.18,119.4,40.525536,-3.420431,627.8,4,5,291.4,3.867
58.6,1,-0.121,-0.023,0.009,-0.079,-0.022,0.019,-1.475,-0.068,0.432,58.18,119.4,40.525536,-3.420431,627.8,4,5,291.4,3.867
58.7,1,-0.166,0.043,-0.078,-0.115,0.004,-0.029,-1.477,-0.072,0.427,58.18,119.4,40.525536,-3.420431,627.8,4,5,291.4,3.867
58.8,1,-0.15,0.042,-0.145,-0.148,0.031,-0.083,-1.478,-0.073,0.42,58.18,119.4,40.525536,-3.420431,627.8,4,5,291.4,3.867
58.9,1,0.018,0.034,-0.138,-0.081,0.039,-0.119,-1.475,-0.07,0.413,58.18,119.4,40.525536,-3.420431,627.8,4,5,291.4,3.867
59.0,1,0.097,0.038,-0.059,0.011,0.033,-0.109,-1.465,-0.067,0.406,58.18,119.4,40.525536,-3.420431,627.8,4,5,291.4,3.867
59.1,1,0.045,0.018,0.005,0.044,0.031,-0.049,-1.466,-0.076,0.398,58.18,119.4,40.525536,-3.420431,627.8,4,5,291.4,3.867
59.2,1,-0.001,0.04,0.057,0.042,0.028,0.012,-1.471,-0.082,0.392,58.18,119.4,40.525536,-3.420431,627.8,4,5,291.4,3.867
59.3,1,-0.078,0.049,0.029,-0.03,0.043,0.027,-1.475,-0.092,0.385,59.23,117.1,40.525658,-3.420774,626.2,4,5,293.6,4.219
59.4,1,-0.089,0.045,0.034,-0.062,0.041,0.029,-1.48,-0.096,0.378,59.23,117.1,40.525658,-3.420774,626.2,4,5,293.6,4.219
59.51,1,-0.053,0.055,0.042,-0.07,0.05,0.036,-1.487,-0.101,0.371,59.23,117.1,40.525658,-3.420774,626.2,4,5,293.6,4.219
59.6,1,-0.004,0.013,0.037,-0.035,0.036,0.037,-1.493,-0.102,0.364,59.23,117.1,40.525658,-3.420774,626.2,4,5,293.6,4.219
59.7,1,-0.001,0.032,0.026,-0.013,0.027,0.03,-1.497,-0.108,0.355,59.23,117.1,40.525658,-3.420774,626.2,4,5,293.6,4.219
59.8,1,-0.012,0.04,0.051,-0.012,0.033,0.037,-1.502,-0.113,0.346,59.23,117.1,40.525658,-3.420774,626.2,4,5,293.6,4.219
59.9,1,0.014,0.089,0.049,0.0,0.06,0.05,-1.502,-0.115,0.338,59.23,117.1,40.525658,-3.420774,626.2,4,5,293.6,4.219
60.0,1,-0.013,0.035,0.019,-0.003,0.063,0.033,-1.504,-0.123,0.329,59.23,117.1,40.525658,-3.420774,626.2,4,5,293.6,4.219
60.1,1,-0.067,0.045,0.041,-0.03,0.043,0.037,-1.509,-0.131,0.32,59.23,117.1,40.525658,-3.420774,626.2,4,5,293.6,4.219
60.2,1,-0.025,0.023,0.048,-0.04,0.032,0.04,-1.515,-0.138,0.311,59.23,117.1,40.525658,-3.420774,626.2,4,5,293.6,4.219
60.3,1,-0.017,0.058,0.04,-0.022,0.044,0.041,-1.517,-0.14,0.302,60.18,112.7,40.525787,-3.421104,625.1,6,5,297.1,5.625
60.4,1,-0.036,-0.023,0.039,-0.027,0.019,0.042,-1.52,-0.142,0.294,60.18,112.7,40.525787,-3.421104,625.1,6,5,297.1,5.625
60.5,1,-0.068,-0.007,0.062,-0.047,0.002,0.045,-1.523,-0.144,0.287,60.18,112.7,40.525787,-3.421104,625.1,6,5,297.1,5.625
60.6,1,0.041,0.068,0.031,-0.024,0.028,0.049,-1.524,-0.143,0.28,60.18,112.7,40.525787,-3.421104,625.1,6,5,297.1,5.625
60.71,1,0.011,-0.016,0.045,0.017,0.012,0.043,-1.525,-0.141,0.273,60.18,112.7,40.525787,-3.421104,625.1,6,5,297.1,5.625
60.8,1,-0.033,-0.029,0.049,-0.008,-0.012,0.041,-1.527,-0.141,0.266,60.18,112.7,40.525787,-3.421104,625.1,6,5,297.1,5.625
60.9,1,-0.024,-0.011,0.055,-0.02,-0.009,0.052,-1.529,-0.141,0.258,60.18,112.7,40.525787,-3.421104,625.1,6,5,297.1,5.625
61.0,1,-0.058,-0.001,0.026,-0.028,-0.004,0.041,-1.535,-0.135,0.251,60.18,112.7,40.525787,-3.421104,625.1,6,5,297.1,5.625
61.1,1,-0.056,-0.022,0.043,-0.06,-0.018,0.036,-1.542,-0.134,0.243,60.18,112.7,40.525787,-3.421104,625.1,6,5,297.1,5.625
61.2,1,0.005,-0.043,0.036,-0.029,-0.028,0.04,-1.551,-0.129,0.236,60.18,112.7,40.525787,-3.421104,625.1,6,5,297.1,5.625
61.3,1,-0.0,-0.002,0.029,-0.013,-0.023,0.034,-1.554,-0.124,0.229,61.22,110.4,40.525925,-3.421427,623.6,4,5,299.9,6.328
61.4,1,-0.044,-0.046,0.034,-0.014,-0.022,0.033,-1.557,-0.118,0.223,61.22,110.4,40.525925,-3.421427,623.6,4,5,299.9,6.328
61.5,1,-0.047,-0.035,0.025,-0.04,-0.034,0.029,-1.563,-0.118,0.216,61.22,110.4,40.525925,-3.421427,623.6,4,5,299.9,6.328
61.6,1,-0.04,0.01,0.017,-0.043,-0.019,0.024,-1.567,-0.118,0.21,61.22,110.4,40.525925,-3.421427,623.6,4,5,299.9,6.328
61.71,1,0.002,-0.04,0.029,-0.025,-0.012,0.025,-1.571,-0.117,0.204,61.22,110.4,40.525925,-3.421427,623.6,4,5,299.9,6.328
61.81,1,-0.039,-0.071,0.012,-0.018,-0.046,0.021,-1.571,-0.116,0.2,61.22,110.4,40.525925,-3.421427,623.6,4,5,299.9,6.328
61.92,1,-0.03,-0.069,0.008,-0.033,-0.066,0.011,-1.572,-0.118,0.195,61.22,110.4,40.525925,-3.421427,623.6,4,5,299.9,6.328
62.01,1,0.014,-0.061,0.005,-0.011,-0.06,0.01,-1.573,-0.118,0.191,61.22,110.4,40.525925,-3.421427,623.6,4,5,299.9,6.328
62.11,1,-0.025,-0.047,0.025,-0.011,-0.058,0.012,-1.575,-0.114,0.186,61.22,110.4,40.525925,-3.421427,623.6,4,5,299.9,6.328
62.22,1,-0.001,-0.026,0.013,-0.015,-0.045,0.019,-1.579,-0.112,0.18,61.22,110.4,40.525925,-3.421427,623.6,4,5,299.9,6.328
62.31,1,0.038,-0.026,-0.016,0.01,-0.026,0.004,-1.578,-0.106,0.175,62.18,110.7,40.526085,-3.42173,623.2,4,5,304.1,7.031
62.41,1,-0.047,-0.02,-0.001,-0.001,-0.025,-0.004,-1.579,-0.103,0.17,62.18,110.7,40.526085,-3.42173,623.2,4,5,304.1,7.031
62.51,1,-0.073,-0.019,0.004,-0.037,-0.023,0.001,-1.581,-0.104,0.164,62.18,110.7,40.526085,-3.42173,623.2,4,5,304.1,7.031
62.61,1,-0.023,-0.01,0.015,-0.043,-0.012,0.005,-1.583,-0.103,0.158,62.18,110.7,40.526085,-3.42173,623.2,4,5,304.1,7.031
62.71,1,-0.085,-0.021,-0.01,-0.059,-0.021,0.002,-1.586,-0.104,0.152,62.18,110.7,40.526085,-3.42173,623.2,4,5,304.1,7.031
62.81,1,0.033,0.073,-0.008,-0.024,0.017,-0.003,-1.586,-0.105,0.145,62.18,110.7,40.526085,-3.42173,623.2,4,5,304.1,7.031
62.91,1,-0.017,0.057,0.008,-0.007,0.043,-0.001,-1.588,-0.112,0.137,62.18,110.7,40.526085,-3.42173,623.2,4,5,304.1,7.031
63.01,1,-0.049,0.027,-0.016,-0.03,0.037,-0.005,-1.589,-0.114,0.129,62.18,110.7,40.526085,-3.42173,623.2,4,5,304.1,7.031
63.12,1,-0.064,0.049,-0.015,-0.049,0.05,-0.011,-1.589,-0.114,0.122,62.18,110.7,40.526085,-3.42173,623.2,4,5,304.1,7.031
63.21,1,-0.071,0.011,-0.022,-0.055,0.032,-0.017,-1.591,-0.114,0.117,62.18,110.7,40.526085,-3.42173,623.2,4,5,304.1,7.031
63.32,1,-0.054,-0.007,-0.008,-0.06,0.015,-0.013,-1.594,-0.112,0.111,63.18,112.0,40.526257,-3.422025,622.3,4,5,306.9,7.031
63.42,1,-0.023,-0.016,-0.017,-0.05,-0.015,-0.013,-1.593,-0.105,0.106,63.18,112.0,40.526257,-3.422025,622.3,4,5,306.9,7.031
63.51,1,-0.004,0.028,-0.015,-0.009,0.014,-0.015,-1.594,-0.104,0.1,63.18,112.0,40.526257,-3.422025,622.3,4,5,306.9,7.031
63.61,1,-0.121,-0.004,-0.018,-0.062,0.004,-0.017,-1.596,-0.104,0.094,63.18,112.0,40.526257,-3.422025,622.3,4,5,306.9,7.031
63.71,1,-0.021,0.023,-0.027,-0.061,0.013,-0.02,-1.597,-0.105,0.088,63.18,112.0,40.526257,-3.422025,622.3,4,5,306.9,7.031
63.81,1,-0.043,0.01,-0.013,-0.038,0.013,-0.021,-1.597,-0.105,0.082,63.18,112.0,40.526257,-3.422025,622.3,4,5,306.9,7.031
63.91,1,0.001,0.029,-0.015,-0.032,0.018,-0.017,-1.596,-0.106,0.076,63.18,112.0,40.526257,-3.422025,622.3,4,5,306.9,7.031
64.02,1,-0.004,0.028,-0.016,-0.012,0.026,-0.015,-1.597,-0.111,0.069,63.18,112.0,40.526257,-3.422025,622.3,4,5,306.9,7.031
64.11,1,-0.038,0.042,-0.027,-0.021,0.028,-0.02,-1.598,-0.113,0.062,63.18,112.0,40.526257,-3.422025,622.3,4,5,306.9,7.031
64.22,1,0.019,0.052,-0.003,-0.011,0.045,-0.013,-1.601,-0.114,0.054,63.18,112.0,40.526257,-3.422025,622.3,4,5,306.9,7.031
64.32,1,-0.02,0.007,-0.029,-0.002,0.026,-0.019,-1.601,-0.113,0.047,64.18,113.4,40.526443,-3.422312,621.9,6,5,309.7,5.625
64.42,1,-0.039,0.026,-0.053,-0.031,0.026,-0.036,-1.602,-0.111,0.041,64.18,113.4,40.526443,-3.422312,621.9,6,5,309.7,5.625
64.52,1,-0.038,0.024,-0.027,-0.03,0.027,-0.039,-1.603,-0.111,0.036,64.18,113.4,40.526443,-3.422312,621.9,6,5,309.7,5.625
64.62,1,-0.033,-0.005,-0.024,-0.039,0.006,-0.027,-1.604,-0.111,0.031,64.18,113.4,40.526443,-3.422312,621.9,6,5,309.7,5.625
64.72,1,0.0,0.005,-0.01,-0.017,0.01,-0.022,-1.605,-0.113,0.025,64.18,113.4,40.526443,-3.422312,621.9,6,5,309.7,5.625
64.82,1,-0.004,0.017,0.006,-0.009,0.007,-0.004,-1.605,-0.113,0.018,64.18,113.4,40.526443,-3.422312,621.9,6,5,309.7,5.625
64.92,1,-0.028,-0.034,-0.024,-0.009,-0.006,-0.011,-1.606,-0.112,0.013,64.18,113.4,40.526443,-3.422312,621.9,6,5,309.7,5.625
65.02,1,-0.058,-0.004,-0.01,-0.037,-0.008,-0.014,-1.607,-0.108,0.007,64.18,113.4,40.526443,-3.422312,621.9,6,5,309.7,5.625
65.12,1,-0.002,0.011,-0.026,-0.026,-0.001,-0.018,-1.605,-0.109,0.001,64.18,113.4,40.526443,-3.422312,621.9,6,5,309.7,5.625
65.22,1,-0.054,-0.019,-0.017,-0.033,-0.004,-0.018,-1.603,-0.109,-0.003,64.18,113.4,40.526443,-3.422312,621.9,6,5,309.7,5.625
65.32,1,-0.041,-0.009,-0.019,-0.041,-0.012,-0.02,-1.602,-0.109,-0.008,65.18,114.7,40.526642,-3.422597,621.8,6,5,312.9,5.977
65.42,1,-0.002,0.013,-0.025,-0.021,0.002,-0.023,-1.602,-0.107,-0.013,65.18,114.7,40.526642,-3.422597,621.8,6,5,312.9,5.977
65.52,1,-0.007,-0.014,-0.016,-0.016,-0.007,-0.016,-1.602,-0.108,-0.018,65.18,114.7,40.526642,-3.422597,621.8,6,5,312.9,5.977
65.62,1,0.001,-0.002,-0.018,-0.008,-0.005,-0.02,-1.601,-0.108,-0.024,65.18,114.7,40.526642,-3.422597,621.8,6,5,312.9,5.977
65.73,1,-0.067,-0.005,-0.022,-0.021,-0.004,-0.018,-1.601,-0.109,-0.029,65.18,114.7,40.526642,-3.422597,621.8,6,5,312.9,5.977
65.83,1,-0.037,0.018,-0.027,-0.043,0.004,-0.024,-1.6,-0.113,-0.035,65.18,114.7,40.526642,-3.422597,621.8,6,5,312.9,5.977
65.92,1,-0.113,0.035,-0.03,-0.074,0.021,-0.03,-1.6,-0.119,-0.041,65.18,114.7,40.526642,-3.422597,621.8,6,5,312.9,5.977
66.02,1,-0.033,0.02,-0.016,-0.069,0.021,-0.024,-1.602,-0.122,-0.047,65.18,114.7,40.526642,-3.422597,621.8,6,5,312.9,5.977
66.12,1,-0.019,-0.026,-0.014,-0.043,0.005,-0.015,-1.604,-0.122,-0.053,65.18,114.7,40.526642,-3.422597,621.8,6,5,312.9,5.977
66.22,1,0.005,-0.025,-0.025,-0.0,-0.013,-0.019,-1.604,-0.118,-0.059,65.18,114.7,40.526642,-3.422597,621.8,6,5,312.9,5.977
66.32,1,-0.028,-0.008,-0.032,-0.025,-0.015,-0.028,-1.605,-0.119,-0.064,66.18,116.3,40.526852,-3.42286,621.6,6,5,317.8,8.086
66.42,1,-0.029,-0.008,-0.023,-0.017,-0.011,-0.024,-1.604,-0.12,-0.069,66.18,116.3,40.526852,-3.42286,621.6,6,5,317.8,8.086
66.53,1,-0.051,-0.002,-0.052,-0.04,-0.006,-0.036,-1.601,-0.122,-0.074,66.18,116.3,40.526852,-3.42286,621.6,6,5,317.8,8.086
66.62,1,-0.009,0.016,-0.043,-0.021,0.0,-0.045,-1.597,-0.123,-0.079,66.18,116.3,40.526852,-3.42286,621.6,6,5,317.8,8.086
66.73,1,-0.075,-0.016,-0.031,-0.056,-0.0,-0.036,-1.595,-0.129,-0.084,66.18,116.3,40.526852,-3.42286,621.6,6,5,317.8,8.086
66.83,1,-0.038,0.001,-0.046,-0.042,-0.007,-0.04,-1.592,-0.131,-0.089,66.18,116.3,40.526852,-3.42286,621.6,6,5,317.8,8.086
66.93,1,-0.025,0.021,-0.02,-0.041,0.011,-0.033,-1.591,-0.128,-0.095,66.18,116.3,40.526852,-3.42286,621.6,6,5,317.8,8.086
67.02,1,0.003,0.017,-0.017,-0.013,0.02,-0.023,-1.59,-0.129,-0.101,66.18,116.3,40.526852,-3.42286,621.6,6,5,317.8,8.086
67.12,1,0.004,0.013,-0.014,-0.011,0.013,-0.019,-1.589,-0.132,-0.108,66.18,116.3,40.526852,-3.42286,621.6,6,5,317.8,8.086
67.22,1,-0.028,0.057,-0.018,-0.007,0.031,-0.017,-1.588,-0.136,-0.114,66.18,116.3,40.526852,-3.42286,621.6,6,5,317.8,8.086
67.32,1,-0.051,0.003,-0.008,-0.034,0.022,-0.014,-1.589,-0.135,-0.12,67.18,116.8,40.527069,-3.423108,620.8,6,5,321.0,8.086
67.42,1,-0.075,0.028,-0.026,-0.053,0.02,-0.016,-1.589,-0.133,-0.126,67.18,116.8,40.527069,-3.423108,620.8,6,5,321.0,8.086
67.53,1,-0.048,0.021,-0.024,-0.06,0.03,-0.022,-1.587,-0.129,-0.132,67.18,116.8,40.527069,-3.423108,620.8,6,5,321.0,8.086
67.62,1,0.022,-0.001,-0.02,-0.014,0.012,-0.022,-1.587,-0.129,-0.138,67.18,116.8,40.527069,-3.423108,620.8,6,5,321.0,8.086
67.73,1,-0.054,0.002,-0.017,-0.02,0.005,-0.021,-1.588,-0.129,-0.144,67.18,116.8,40.527069,-3.423108,620.8,6,5,321.0,8.086
67.83,1,-0.004,-0.018,-0.042,-0.016,-0.004,-0.024,-1.589,-0.13,-0.149,67.18,116.8,40.527069,-3.423108,620.8,6,5,321.0,8.086
67.93,1,-0.09,-0.036,-0.047,-0.048,-0.018,-0.038,-1.591,-0.132,-0.154,67.18,116.8,40.527069,-3.423108,620.8,6,5,321.0,8.086
68.03,1,-0.063,-0.037,-0.068,-0.084,-0.038,-0.055,-1.589,-0.131,-0.159,67.18,116.8,40.527069,-3.423108,620.8,6,5,321.0,8.086
68.13,1,-0.008,-0.019,-0.069,-0.028,-0.025,-0.065,-1.585,-0.131,-0.163,67.18,116.8,40.527069,-3.423108,620.8,6,5,321.0,8.086
68.23,1,-0.01,-0.015,-0.081,-0.026,-0.027,-0.073,-1.581,-0.132,-0.168,67.18,116.8,40.527069,-3.423108,620.8,6,5,321.0,8.086
68.33,1,-0.032,0.009,-0.066,-0.021,-0.006,-0.07,-1.579,-0.13,-0.174,68.18,118.0,40.527317,-3.423357,620.5,6,5,324.1,6.328
68.43,1,-0.0,0.018,-0.047,-0.013,0.008,-0.059,-1.578,-0.131,-0.18,68.18,118.0,40.527317,-3.423357,620.5,6,5,324.1,6.328
68.53,1,-0.098,0.016,-0.028,-0.05,0.014,-0.046,-1.577,-0.134,-0.185,68.18,118.0,40.527317,-3.423357,620.5,6,5,324.1,6.328
68.63,1,-0.087,0.006,-0.048,-0.074,0.011,-0.043,-1.575,-0.133,-0.19,68.18,118.0,40.527317,-3.423357,620.5,6,5,324.1,6.328
68.73,1,-0.025,-0.006,-0.033,-0.064,0.005,-0.039,-1.575,-0.133,-0.195,68.18,118.0,40.527317,-3.423357,620.5,6,5,324.1,6.328
68.83,1,-0.029,-0.052,-0.038,-0.039,-0.024,-0.037,-1.575,-0.132,-0.199,68.18,118.0,40.527317,-3.423357,620.5,6,5,324.1,6.328
68.93,1,-0.009,-0.016,-0.03,-0.022,-0.027,-0.036,-1.573,-0.131,-0.203,68.18,118.0,40.527317,-3.423357,620.5,6,5,324.1,6.328
69.03,1,-0.063,-0.063,-0.025,-0.034,-0.042,-0.029,-1.572,-0.127,-0.207,68.18,118.0,40.527317,-3.423357,620.5,6,5,324.1,6.328
69.13,1,0.021,-0.017,-0.024,-0.02,-0.035,-0.025,-1.57,-0.126,-0.211,68.18,118.0,40.527317,-3.423357,620.5,6,5,324.1,6.328
69.23,1,-0.004,-0.055,-0.02,-0.006,-0.042,-0.024,-1.567,-0.126,-0.214,68.18,118.0,40.527317,-3.423357,620.5,6,5,324.1,6.328
69.34,1,-0.0,-0.042,0.006,-0.002,-0.038,-0.009,-1.567,-0.122,-0.218,69.18,118.7,40.527557,-3.423572,620.5,4,5,327.3,6.328
69.44,1,-0.071,-0.097,-0.015,-0.026,-0.068,-0.01,-1.567,-0.12,-0.221,69.18,118.7,40.527557,-3.423572,620.5,4,5,327.3,6.328
69.53,1,0.01,-0.055,-0.039,-0.03,-0.072,-0.019,-1.565,-0.121,-0.224,69.18,118.7,40.527557,-3.423572,620.5,4,5,327.3,6.328
69.63,1,-0.044,-0.06,-0.034,-0.019,-0.055,-0.034,-1.563,-0.118,-0.225,69.18,118.7,40.527557,-3.423572,620.5,4,5,327.3,6.328
69.73,1,-0.031,-0.09,-0.021,-0.033,-0.071,-0.028,-1.562,-0.109,-0.228,69.18,118.7,40.527557,-3.423572,620.5,4,5,327.3,6.328
69.83,1,-0.029,-0.086,-0.022,-0.031,-0.083,-0.024,-1.564,-0.103,-0.23,69.18,118.7,40.527557,-3.423572,620.5,4,5,327.3,6.328
69.94,1,-0.025,-0.062,-0.029,-0.032,-0.074,-0.028,-1.564,-0.104,-0.232,69.18,118.7,40.527557,-3.423572,620.5,4,5,327.3,6.328
70.03,1,-0.011,-0.075,-0.03,-0.019,-0.074,-0.023,-1.563,-0.102,-0.234,69.18,118.7,40.527557,-3.423572,620.5,4,5,327.3,6.328
70.13,1,-0.002,-0.035,-0.024,-0.009,-0.056,-0.028,-1.56,-0.099,-0.236,69.18,118.7,40.527557,-3.423572,620.5,4,5,327.3,6.328
70.23,1,-0.002,-0.055,-0.035,-0.002,-0.049,-0.029,-1.557,-0.097,-0.238,69.18,118.7,40.527557,-3.423572,620.5,4,5,327.3,6.328
70.33,1,-0.06,-0.052,-0.03,-0.025,-0.06,-0.03,-1.555,-0.096,-0.24,70.18,118.0,40.527817,-3.423758,619.8,4,5,330.5,6.328
70.43,1,-0.019,-0.062,-0.028,-0.034,-0.055,-0.03,-1.552,-0.091,-0.242,70.18,118.0,40.527817,-3.423758,619.8,4,5,330.5,6.328
70.54,1,-0.037,-0.047,-0.045,-0.029,-0.053,-0.04,-1.549,-0.088,-0.244,70.18,118.0,40.527817,-3.423758,619.8,4,5,330.5,6.328
70.63,1,0.014,-0.036,-0.033,-0.017,-0.045,-0.032,-1.547,-0.09,-0.246,70.18,118.0,40.527817,-3.423758,619.8,4,5,330.5,6.328
70.73,1,-0.011,-0.052,-0.04,-0.001,-0.043,-0.041,-1.547,-0.091,-0.248,70.18,118.0,40.527817,-3.423758,619.8,4,5,330.5,6.328
70.84,1,-0.044,-0.049,-0.02,-0.023,-0.052,-0.033,-1.547,-0.091,-0.25,70.18,118.0,40.527817,-3.423758,619.8,4,5,330.5,6.328
70.94,1,-0.003,-0.058,-0.004,-0.024,-0.051,-0.009,-1.547,-0.089,-0.251,70.18,118.0,40.527817,-3.423758,619.8,4,5,330.5,6.328
71.04,1,-0.014,-0.032,-0.018,-0.013,-0.047,-0.017,-1.545,-0.088,-0.253,70.18,118.0,40.527817,-3.423758,619.8,4,5,330.5,6.328
71.15,1,-0.026,-0.032,-0.015,-0.014,-0.035,-0.018,-1.545,-0.087,-0.254,70.18,118.0,40.527817,-3.423758,619.8,4,5,330.5,6.328
71.34,1,-0.004,-0.039,-0.013,-0.019,-0.039,-0.024,-1.543,-0.088,-0.257,70.18,118.0,40.527817,-3.423758,619.8,4,5,330.5,6.328
71.44,1,-0.03,-0.043,-0.014,-0.025,-0.041,-0.015,-1.543,-0.089,-0.259,71.18,118.4,40.528072,-3.423924,618.9,4,5,331.9,4.57
71.54,1,-0.057,-0.079,-0.014,-0.037,-0.058,-0.012,-1.544,-0.085,-0.26,71.18,118.4,40.528072,-3.423924,618.9,4,5,331.9,4.57
71.64,1,-0.031,-0.052,-0.001,-0.042,-0.061,-0.012,-1.545,-0.083,-0.26,71.18,118.4,40.528072,-3.423924,618.9,4,5,331.9,4.57
71.75,1,-0.009,-0.06,-0.007,-0.022,-0.056,-0.007,-1.543,-0.08,-0.261,71.18,118.4,40.528072,-3.423924,618.9,4,5,331.9,4.57
71.84,1,-0.029,-0.076,-0.019,-0.028,-0.066,-0.008,-1.545,-0.077,-0.261,71.18,118.4,40.528072,-3.423924,618.9,4,5,331.9,4.57
71.94,1,0.019,-0.068,-0.008,-0.01,-0.071,-0.013,-1.544,-0.075,-0.261,71.18,118.4,40.528072,-3.423924,618.9,4,5,331.9,4.57
72.04,1,0.017,-0.077,-0.02,0.01,-0.072,-0.016,-1.54,-0.073,-0.261,71.18,118.4,40.528072,-3.423924,618.9,4,5,331.9,4.57
72.14,1,0.056,-0.082,-0.01,0.031,-0.077,-0.014,-1.538,-0.071,-0.26,71.18,118.4,40.528072,-3.423924,618.9,4,5,331.9,4.57
72.25,1,-0.075,-0.078,-0.021,-0.004,-0.078,-0.014,-1.537,-0.069,-0.259,71.18,118.4,40.528072,-3.423924,618.9,4,5,331.9,4.57
72.34,1,-0.024,-0.085,-0.042,-0.04,-0.081,-0.028,-1.536,-0.064,-0.258,71.18,118.4,40.528072,-3.423924,618.9,4,5,331.9,4.57
72.44,1,-0.057,-0.092,-0.012,-0.033,-0.089,-0.025,-1.533,-0.059,-0.256,72.23,117.4,40.528328,-3.424103,618.7,4,5,333.3,2.812
72.54,1,-0.036,-0.078,-0.02,-0.034,-0.087,-0.019,-1.532,-0.054,-0.255,72.23,117.4,40.528328,-3.424103,618.7,4,5,333.3,2.812
72.64,1,0.003,-0.085,-0.018,-0.02,-0.081,-0.022,-1.532,-0.049,-0.254,72.23,117.4,40.528328,-3.424103,618.7,4,5,333.3,2.812
72.74,1,-0.014,-0.063,-0.011,-0.015,-0.08,-0.012,-1.532,-0.042,-0.253,72.23,117.4,40.528328,-3.424103,618.7,4,5,333.3,2.812
72.84,1,0.044,-0.057,-0.009,-0.004,-0.062,-0.015,-1.529,-0.04,-0.251,72.23,117.4,40.528328,-3.424103,618.7,4,5,333.3,2.812
72.95,1,-0.001,-0.044,-0.045,0.024,-0.055,-0.026,-1.528,-0.038,-0.25,72.23,117.4,40.528328,-3.424103,618.7,4,5,333.3,2.812
73.04,1,0.015,-0.05,-0.004,-0.005,-0.048,-0.021,-1.527,-0.036,-0.249,72.23,117.4,40.528328,-3.424103,618.7,4,5,333.3,2.812
73.14,1,0.084,-0.026,-0.023,0.058,-0.045,-0.018,-1.527,-0.036,-0.248,72.23,117.4,40.528328,-3.424103,618.7,4,5,333.3,2.812
73.24,1,-0.024,-0.022,-0.032,0.006,-0.029,-0.024,-1.525,-0.036,-0.247,72.23,117.4,40.528328,-3.424103,618.7,4,5,333.3,2.812
73.34,1,-0.134,-0.054,-0.024,-0.045,-0.038,-0.027,-1.522,-0.034,-0.246,72.23,117.4,40.528328,-3.424103,618.7,4,5,333.3,2.812
73.44,1,-0.068,-0.018,-0.008,-0.072,-0.033,-0.021,-1.521,-0.037,-0.245,73.19,116.2,40.528591,-3.424283,617.6,4,5,333.6,1.758
73.55,1,-0.062,-0.007,-0.022,-0.06,-0.015,-0.017,-1.519,-0.039,-0.245,73.19,116.2,40.528591,-3.424283,617.6,4,5,333.6,1.758
73.65,1,-0.035,-0.023,-0.006,-0.063,-0.019,-0.01,-1.519,-0.038,-0.244,73.19,116.2,40.528591,-3.424283,617.6,4,5,333.6,1.758
73.75,1,0.04,-0.025,-0.016,-0.009,-0.021,-0.013,-1.519,-0.036,-0.243,73.19,116.2,40.528591,-3.424283,617.6,4,5,333.6,1.758
73.85,1,-0.03,-0.013,-0.019,-0.007,-0.017,-0.016,-1.517,-0.037,-0.242,73.19,116.2,40.528591,-3.424283,617.6,4,5,333.6,1.758
73.95,1,-0.021,-0.051,-0.007,-0.016,-0.034,-0.013,-1.514,-0.039,-0.241,73.19,116.2,40.528591,-3.424283,617.6,4,5,333.6,1.758
74.05,1,0.043,-0.02,-0.019,0.01,-0.033,-0.014,-1.512,-0.04,-0.24,73.19,116.2,40.528591,-3.424283,617.6,4,5,333.6,1.758
74.15,1,-0.021,-0.028,-0.016,-0.004,-0.024,-0.019,-1.509,-0.04,-0.238,73.19,116.2,40.528591,-3.424283,617.6,4,5,333.6,1.758
74.25,1,0.032,-0.055,-0.011,0.012,-0.041,-0.013,-1.507,-0.035,-0.236,73.19,116.2,40.528591,-3.424283,617.6,4,5,333.6,1.758
74.35,1,0.01,-0.064,-0.011,0.019,-0.051,-0.012,-1.504,-0.03,-0.234,73.19,116.2,40.528591,-3.424283,617.6,4,5,333.6,1.758
74.45,1,-0.048,-0.068,0.002,-0.012,-0.06,-0.004,-1.504,-0.026,-0.231,74.19,115.5,40.528847,-3.424446,617.0,4,5,333.6,0.352
74.55,1,-0.014,-0.054,-0.009,-0.027,-0.063,-0.005,-1.502,-0.022,-0.229,74.19,115.5,40.528847,-3.424446,617.0,4,5,333.6,0.352
74.66,1,-0.016,-0.043,-0.005,-0.013,-0.048,-0.005,-1.502,-0.018,-0.225,74.19,115.5,40.528847,-3.424446,617.0,4,5,333.6,0.352
74.75,1,-0.106,-0.116,-0.044,-0.048,-0.071,-0.022,-1.502,-0.014,-0.222,74.19,115.5,40.528847,-3.424446,617.0,4,5,333.6,0.352
74.85,1,-0.167,-0.116,-0.001,-0.107,-0.115,-0.025,-1.504,-0.014,-0.217,74.19,115.5,40.528847,-3.424446,617.0,4,5,333.6,0.352
74.95,1,-0.047,-0.013,0.031,-0.122,-0.071,0.011,-1.507,-0.018,-0.213,74.19,115.5,40.528847,-3.424446,617.0,4,5,333.6,0.352
75.05,1,0.161,-0.069,0.008,0.023,-0.053,0.016,-1.505,-0.017,-0.21,74.19,115.5,40.528847,-3.424446,617.0,4,5,333.6,0.352
75.15,1,0.084,-0.068,-0.035,0.087,-0.061,-0.016,-1.503,-0.017,-0.206,74.19,115.5,40.528847,-3.424446,617.0,4,5,333.6,0.352
75.25,1,-0.049,-0.065,0.014,0.031,-0.065,-0.005,-1.506,-0.012,-0.203,74.19,115.5,40.528847,-3.424446,617.0,4,5,333.6,0.352
75.35,1,-0.075,-0.031,0.015,-0.032,-0.049,0.007,-1.509,-0.011,-0.2,74.19,115.5,40.528847,-3.424446,617.0,4,5,333.6,0.352
75.45,1,-0.005,-0.028,0.009,-0.039,-0.036,0.011,-1.508,-0.008,-0.197,75.19,114.4,40.529099,-3.424616,616.0,4,5,333.6,0.0
75.55,1,0.065,-0.025,-0.01,0.017,-0.035,0.004,-1.508,-0.003,-0.195,75.19,114.4,40.529099,-3.424616,616.0,4,5,333.6,0.0
75.65,1,0.063,0.02,0.025,0.044,-0.007,0.005,-1.506,-0.002,-0.192,75.19,114.4,40.529099,-3.424616,616.0,4,5,333.6,0.0
75.75,1,0.08,-0.002,0.014,0.069,0.002,0.018,-1.504,-0.0,-0.189,75.19,114.4,40.529099,-3.424616,616.0,4,5,333.6,0.0
75.85,1,0.018,0.004,0.007,0.053,0.003,0.012,-1.504,-0.0,-0.186,75.19,114.4,40.529099,-3.424616,616.0,4,5,333.6,0.0
75.95,1,-0.134,-0.037,0.012,-0.027,-0.012,0.004,-1.503,-0.002,-0.184,75.19,114.4,40.529099,-3.424616,616.0,4,5,333.6,0.0
76.06,1,-0.234,0.008,0.007,-0.147,-0.012,0.015,-1.509,-0.001,-0.181,75.19,114.4,40.529099,-3.424616,616.0,4,5,333.6,0.0
76.17,1,-0.193,0.011,0.067,-0.198,0.004,0.031,-1.513,0.001,-0.178,75.19,114.4,40.529099,-3.424616,616.0,4,5,333.6,0.0
76.25,1,0.08,-0.038,0.047,-0.072,-0.021,0.052,-1.513,0.002,-0.176,75.19,114.4,40.529099,-3.424616,616.0,4,5,333.6,0.0
76.35,1,0.144,0.011,0.033,0.054,-0.006,0.037,-1.514,0.004,-0.173,75.19,114.4,40.529099,-3.424616,616.0,4,5,333.6,0.0
76.45,1,0.173,-0.028,0.051,0.135,-0.014,0.042,-1.517,0.007,-0.17,76.19,112.2,40.529346,-3.424785,615.0,4,5,331.9,1.758
76.56,1,0.058,-0.028,0.01,0.107,-0.021,0.031,-1.516,0.008,-0.167,76.19,112.2,40.529346,-3.424785,615.0,4,5,331.9,1.758
76.65,1,-0.119,-0.057,0.008,-0.012,-0.042,0.015,-1.516,0.006,-0.164,76.19,112.2,40.529346,-3.424785,615.0,4,5,331.9,1.758
76.76,1,-0.018,0.008,0.018,-0.031,-0.016,0.02,-1.518,0.006,-0.16,76.19,112.2,40.529346,-3.424785,615.0,4,5,331.9,1.758
76.86,1,-0.041,-0.053,0.005,-0.033,-0.029,0.012,-1.517,0.012,-0.157,76.19,112.2,40.529346,-3.424785,615.0,4,5,331.9,1.758
76.96,1,-0.011,-0.024,0.011,-0.025,-0.032,0.007,-1.518,0.014,-0.153,76.19,112.2,40.529346,-3.424785,615.0,4,5,331.9,1.758
77.06,1,-0.055,-0.008,0.038,-0.034,-0.023,0.023,-1.522,0.019,-0.15,76.19,112.2,40.529346,-3.424785,615.0,4,5,331.9,1.758
77.16,1,-0.03,-0.002,0.006,-0.034,-0.007,0.021,-1.526,0.022,-0.146,76.19,112.2,40.529346,-3.424785,615.0,4,5,331.9,1.758
77.26,1,-0.07,-0.018,0.025,-0.045,-0.012,0.015,-1.527,0.029,-0.143,76.19,112.2,40.529346,-3.424785,615.0,4,5,331.9,1.758
77.36,1,-0.08,-0.009,0.014,-0.069,-0.011,0.02,-1.529,0.032,-0.139,76.19,112.2,40.529346,-3.424785,615.0,4,5,331.9,1.758
77.46,1,-0.011,-0.009,0.014,-0.054,-0.008,0.014,-1.53,0.032,-0.136,77.25,110.7,40.529591,-3.42496,614.3,4,5,330.8,2.812
77.56,1,0.124,0.004,0.027,0.027,-0.005,0.021,-1.531,0.034,-0.132,77.25,110.7,40.529591,-3.42496,614.3,4,5,330.8,2.812
77.66,1,0.118,-0.022,0.016,0.083,-0.018,0.021,-1.532,0.039,-0.127,77.25,110.7,40.529591,-3.42496,614.3,4,5,330.8,2.812
77.76,1,0.014,-0.01,0.021,0.074,-0.012,0.02,-1.531,0.039,-0.123,77.25,110.7,40.529591,-3.42496,614.3,4,5,330.8,2.812
77.86,1,0.011,-0.021,0.019,0.034,-0.013,0.016,-1.532,0.044,-0.119,77.25,110.7,40.529591,-3.42496,614.3,4,5,330.8,2.812
77.96,1,0.024,-0.024,0.017,0.029,-0.014,0.022,-1.533,0.048,-0.114,77.25,110.7,40.529591,-3.42496,614.3,4,5,330.8,2.812
78.06,1,-0.016,-0.038,-0.005,0.007,-0.032,0.007,-1.531,0.051,-0.109,77.25,110.7,40.529591,-3.42496,614.3,4,5,330.8,2.812
78.16,1,-0.023,-0.001,-0.002,-0.01,-0.021,0.003,-1.53,0.056,-0.105,77.25,110.7,40.529591,-3.42496,614.3,4,5,330.8,2.812
78.27,1,-0.048,-0.018,0.021,-0.02,-0.012,0.004,-1.532,0.058,-0.101,77.25,110.7,40.529591,-3.42496,614.3,4,5,330.8,2.812
78.36,1,-0.001,0.022,0.122,-0.021,-0.007,0.056,-1.535,0.056,-0.096,77.25,110.7,40.529591,-3.42496,614.3,4,5,330.8,2.812
78.46,1,-0.336,-0.135,0.002,-0.145,-0.023,0.048,-1.537,0.055,-0.093,78.22,110.3,40.529835,-3.425141,613.4,4,5,329.1,2.812
78.56,1,-0.18,-0.035,0.042,-0.224,-0.091,0.036,-1.541,0.052,-0.089,78.22,110.3,40.529835,-3.425141,613.4,4,5,329.1,2.812
78.66,1,0.121,0.074,0.024,-0.062,0.002,0.036,-1.543,0.05,-0.086,78.22,110.3,40.529835,-3.425141,613.4,4,5,329.1,2.812
78.76,1,-0.008,0.018,0.008,0.01,0.025,0.021,-1.543,0.052,-0.084,78.22,110.3,40.529835,-3.425141,613.4,4,5,329.1,2.812
78.86,1,0.094,0.005,0.033,0.03,0.007,0.024,-1.54,0.054,-0.08,78.22,110.3,40.529835,-3.425141,613.4,4,5,329.1,2.812
78.96,1,0.07,0.049,0.009,0.074,0.035,0.017,-1.537,0.055,-0.077,78.22,110.3,40.529835,-3.425141,613.4,4,5,329.1,2.812
79.06,1,-0.035,-0.019,0.025,0.018,0.014,0.023,-1.539,0.052,-0.073,78.22,110.3,40.529835,-3.425141,613.4,4,5,329.1,2.812
79.16,1,-0.029,-0.019,0.014,-0.01,-0.006,0.018,-1.541,0.052,-0.069,78.22,110.3,40.529835,-3.425141,613.4,4,5,329.1,2.812
79.26,1,-0.034,0.022,-0.002,-0.026,0.005,0.009,-1.54,0.05,-0.065,78.22,110.3,40.529835,-3.425141,613.4,4,5,329.1,2.812
79.36,1,-0.084,-0.024,-0.011,-0.041,-0.004,-0.003,-1.541,0.052,-0.06,78.22,110.3,40.529835,-3.425141,613.4,4,5,329.1,2.812
79.47,1,-0.101,-0.025,0.001,-0.086,-0.022,-0.004,-1.544,0.051,-0.055,79.18,110.9,40.530071,-3.425333,613.4,4,5,327.7,3.164
79.56,1,-0.027,0.029,0.029,-0.064,-0.001,0.012,-1.547,0.046,-0.052,79.18,110.9,40.530071,-3.425333,613.4,4,5,327.7,3.164
79.68,1,0.122,0.04,0.004,0.019,0.025,0.016,-1.548,0.045,-0.049,79.18,110.9,40.530071,-3.425333,613.4,4,5,327.7,3.164
79.77,1,0.058,0.026,-0.0,0.06,0.027,0.004,-1.547,0.042,-0.047,79.18,110.9,40.530071,-3.425333,613.4,4,5,327.7,3.164
79.87,1,0.049,0.039,0.021,0.057,0.026,0.009,-1.548,0.039,-0.044,79.18,110.9,40.530071,-3.425333,613.4,4,5,327.7,3.164
79.97,1,0.033,0.032,0.004,0.047,0.037,0.014,-1.549,0.036,-0.04,79.18,110.9,40.530071,-3.425333,613.4,4,5,327.7,3.164
80.07,1,-0.04,-0.04,-0.016,0.013,0.008,-0.003,-1.545,0.039,-0.035,79.18,110.9,40.530071,-3.425333,613.4,4,5,327.7,3.164
80.17,1,-0.114,-0.039,-0.03,-0.057,-0.022,-0.016,-1.544,0.044,-0.029,79.18,110.9,40.530071,-3.425333,613.4,4,5,327.7,3.164
80.27,1,-0.068,-0.051,0.002,-0.076,-0.039,-0.015,-1.546,0.048,-0.023,79.18,110.9,40.530071,-3.425333,613.4,4,5,327.7,3.164
80.37,1,0.029,-0.043,-0.021,-0.035,-0.049,-0.008,-1.548,0.054,-0.017,79.18,110.9,40.530071,-3.425333,613.4,4,5,327.7,3.164
80.47,1,0.054,-0.001,-0.008,0.014,-0.023,-0.017,-1.546,0.053,-0.013,80.19,111.7,40.530304,-3.425541,612.7,4,5,325.9,3.164
80.57,1,0.032,-0.027,0.007,0.037,-0.022,0.0,-1.547,0.053,-0.009,80.19,111.7,40.530304,-3.425541,612.7,4,5,325.9,3.164
80.68,1,-0.001,0.005,-0.003,0.025,-0.015,-0.004,-1.548,0.049,-0.005,80.19,111.7,40.530304,-3.425541,612.7,4,5,325.9,3.164
80.77,1,-0.045,0.003,-0.01,-0.009,0.008,-0.005,-1.549,0.049,-0.001,80.19,111.7,40.530304,-3.425541,612.7,4,5,325.9,3.164
80.87,1,-0.081,0.002,-0.004,-0.047,-0.003,-0.002,-1.551,0.045,0.002,80.19,111.7,40.530304,-3.425541,612.7,4,5,325.9,3.164
80.97,1,-0.13,0.0,-0.03,-0.094,0.01,-0.022,-1.551,0.042,0.006,80.19,111.7,40.530304,-3.425541,612.7,4,5,325.9,3.164
81.07,1,0.15,0.069,0.013,-0.019,0.019,-0.003,-1.554,0.041,0.01,80.19,111.7,40.530304,-3.425541,612.7,4,5,325.9,3.164
81.17,1,-0.112,0.018,-0.012,-0.003,0.024,-0.006,-1.553,0.042,0.013,80.19,111.7,40.530304,-3.425541,612.7,4,5,325.9,3.164
81.37,1,0.039,0.034,-0.042,0.044,0.023,-0.011,-1.553,0.041,0.019,80.19,111.7,40.530304,-3.425541,612.7,4,5,325.9,3.164
81.47,1,-0.12,0.005,0.012,-0.04,0.025,-0.014,-1.554,0.041,0.021,80.19,111.7,40.530304,-3.425541,612.7,4,5,325.9,3.164
81.57,1,-0.03,0.033,-0.004,-0.073,0.016,-0.0,-1.553,0.039,0.024,81.19,111.7,40.530533,-3.425758,612.2,4,5,323.4,4.219
81.67,1,-0.05,0.037,-0.012,-0.048,0.038,-0.011,-1.55,0.037,0.027,81.19,111.7,40.530533,-3.425758,612.2,4,5,323.4,4.219
81.77,1,-0.024,0.019,-0.01,-0.034,0.023,-0.007,-1.55,0.036,0.03,81.19,111.7,40.530533,-3.425758,612.2,4,5,323.4,4.219
81.88,1,0.012,0.009,-0.002,-0.014,0.02,-0.005,-1.55,0.029,0.032,81.19,111.7,40.530533,-3.425758,612.2,4,5,323.4,4.219
81.97,1,-0.013,0.01,0.004,-0.007,0.017,-0.007,-1.548,0.026,0.035,81.19,111.7,40.530533,-3.425758,612.2,4,5,323.4,4.219
82.08,1,-0.002,0.014,0.011,-0.005,0.011,0.009,-1.551,0.025,0.038,81.19,111.7,40.530533,-3.425758,612.2,4,5,323.4,4.219
82.17,1,-0.046,0.017,-0.009,-0.018,0.011,0.002,-1.551,0.023,0.041,81.19,111.7,40.530533,-3.425758,612.2,4,5,323.4,4.219
82.27,1,-0.063,-0.01,-0.008,-0.047,0.009,-0.008,-1.551,0.024,0.044,81.19,111.7,40.530533,-3.425758,612.2,4,5,323.4,4.219
82.37,1,-0.066,0.001,-0.009,-0.062,-0.005,-0.004,-1.552,0.025,0.047,81.19,111.7,40.530533,-3.425758,612.2,4,5,323.4,4.219
82.47,1,-0.034,0.009,-0.009,-0.042,0.01,-0.01,-1.552,0.026,0.051,81.19,111.7,40.530533,-3.425758,612.2,4,5,323.4,4.219
82.57,1,-0.024,-0.013,-0.01,-0.042,-0.002,-0.008,-1.553,0.027,0.054,82.17,111.2,40.530731,-3.425982,611.2,4,5,321.7,4.219
82.67,1,-0.023,0.005,0.011,-0.024,-0.002,-0.001,-1.555,0.023,0.058,82.17,111.2,40.530731,-3.425982,611.2,4,5,321.7,4.219
82.77,1,-0.077,-0.03,-0.017,-0.046,-0.013,-0.006,-1.556,0.021,0.061,82.17,111.2,40.530731,-3.425982,611.2,4,5,321.7,4.219
82.88,1,-0.044,-0.038,-0.016,-0.063,-0.032,-0.011,-1.557,0.02,0.064,82.17,111.2,40.530731,-3.425982,611.2,4,5,321.7,4.219
82.98,1,-0.041,0.003,-0.013,-0.036,-0.018,-0.016,-1.556,0.02,0.068,82.17,111.2,40.530731,-3.425982,611.2,4,5,321.7,4.219
83.08,1,-0.02,0.011,-0.007,-0.034,0.007,-0.009,-1.557,0.018,0.071,82.17,111.2,40.530731,-3.425982,611.2,4,5,321.7,4.219
83.18,1,-0.049,-0.04,-0.016,-0.037,-0.015,-0.011,-1.557,0.018,0.074,82.17,111.2,40.530731,-3.425982,611.2,4,5,321.7,4.219
83.29,1,-0.02,-0.029,0.001,-0.034,-0.025,-0.007,-1.558,0.02,0.077,82.17,111.2,40.530731,-3.425982,611.2,4,5,321.7,4.219
83.38,1,-0.016,-0.008,-0.01,-0.023,-0.025,-0.004,-1.557,0.02,0.081,82.17,111.2,40.530731,-3.425982,611.2,4,5,321.7,4.219
83.48,1,-0.067,-0.012,-0.009,-0.038,-0.015,-0.011,-1.557,0.022,0.084,82.17,111.2,40.530731,-3.425982,611.2,4,5,321.7,4.219
83.58,1,-0.08,0.015,-0.015,-0.061,-0.004,-0.011,-1.558,0.023,0.087,83.22,111.2,40.530945,-3.426213,610.2,4,5,319.9,3.516
83.68,1,-0.09,-0.015,-0.009,-0.084,-0.002,-0.013,-1.559,0.021,0.09,83.22,111.2,40.530945,-3.426213,610.2,4,5,319.9,3.516
83.78,1,-0.001,-0.0,-0.015,-0.051,-0.0,-0.01,-1.56,0.021,0.093,83.22,111.2,40.530945,-3.426213,610.2,4,5,319.9,3.516
83.88,1,-0.034,-0.02,0.004,-0.029,-0.008,-0.006,-1.56,0.024,0.097,83.22,111.2,40.530945,-3.426213,610.2,4,5,319.9,3.516
83.98,1,-0.02,-0.014,-0.018,-0.024,-0.018,-0.009,-1.559,0.026,0.1,83.22,111.2,40.530945,-3.426213,610.2,4,5,319.9,3.516
84.08,1,0.025,-0.005,0.017,-0.001,-0.015,0.001,-1.559,0.026,0.103,83.22,111.2,40.530945,-3.426213,610.2,4,5,319.9,3.516
84.18,1,-0.067,-0.011,-0.006,-0.026,-0.004,-0.0,-1.559,0.027,0.105,83.22,111.2,40.530945,-3.426213,610.2,4,5,319.9,3.516
84.29,1,-0.031,-0.003,-0.009,-0.039,-0.006,-0.005,-1.559,0.026,0.108,83.22,111.2,40.530945,-3.426213,610.2,4,5,319.9,3.516
84.38,1,-0.016,0.011,-0.009,-0.029,0.001,-0.009,-1.559,0.026,0.11,83.22,111.2,40.530945,-3.426213,610.2,4,5,319.9,3.516
84.48,1,-0.057,-0.006,-0.013,-0.034,0.003,-0.008,-1.557,0.024,0.113,83.22,111.2,40.530945,-3.426213,610.2,4,5,319.9,3.516
84.58,1,-0.096,-0.007,-0.012,-0.067,-0.005,-0.011,-1.556,0.023,0.116,84.21,111.7,40.531155,-3.42645,609.3,4,5,318.9,2.812
84.68,1,-0.184,0.043,-0.029,-0.114,0.009,-0.022,-1.559,0.023,0.118,84.21,111.7,40.531155,-3.42645,609.3,4,5,318.9,2.812
84.78,1,-0.111,0.022,0.046,-0.147,0.033,-0.0,-1.565,0.027,0.121,84.21,111.7,40.531155,-3.42645,609.3,4,5,318.9,2.812
84.89,1,0.017,-0.034,-0.005,-0.07,-0.004,0.019,-1.566,0.035,0.125,84.21,111.7,40.531155,-3.42645,609.3,4,5,318.9,2.812
84.98,1,0.034,-0.02,-0.013,0.011,-0.018,-0.006,-1.563,0.041,0.129,84.21,111.7,40.531155,-3.42645,609.3,4,5,318.9,2.812
85.08,1,0.024,-0.006,-0.001,0.013,-0.014,-0.004,-1.565,0.043,0.133,84.21,111.7,40.531155,-3.42645,609.3,4,5,318.9,2.812
85.18,1,0.011,0.009,0.0,0.019,-0.001,-0.002,-1.565,0.044,0.135,84.21,111.7,40.531155,-3.42645,609.3,4,5,318.9,2.812
85.28,1,-0.06,0.019,-0.016,-0.022,0.005,-0.007,-1.563,0.043,0.138,84.21,111.7,40.531155,-3.42645,609.3,4,5,318.9,2.812
85.38,1,-0.059,0.009,0.007,-0.042,0.015,-0.0,-1.563,0.041,0.141,84.21,111.7,40.531155,-3.42645,609.3,4,5,318.9,2.812
85.49,1,-0.034,-0.009,0.007,-0.048,0.003,0.002,-1.563,0.043,0.144,84.21,111.7,40.531155,-3.42645,609.3,4,5,318.9,2.812
85.59,1,-0.038,-0.029,-0.006,-0.035,-0.01,0.0,-1.565,0.046,0.148,85.18,110.6,40.531353,-3.426696,608.8,4,5,316.1,3.867
85.69,1,-0.06,-0.015,-0.012,-0.046,-0.018,-0.008,-1.566,0.047,0.152,85.18,110.6,40.531353,-3.426696,608.8,4,5,316.1,3.867
85.78,1,-0.099,-0.027,-0.005,-0.071,-0.022,-0.006,-1.566,0.049,0.156,85.18,110.6,40.531353,-3.426696,608.8,4,5,316.1,3.867
85.89,1,-0.052,-0.016,-0.002,-0.071,-0.022,-0.003,-1.568,0.049,0.16,85.18,110.6,40.531353,-3.426696,608.8,4,5,316.1,3.867
85.99,1,-0.05,0.015,0.012,-0.061,-0.001,-0.001,-1.571,0.048,0.163,85.18,110.6,40.531353,-3.426696,608.8,4,5,316.1,3.867
86.09,1,-0.039,-0.005,-0.004,-0.049,-0.002,0.003,-1.572,0.047,0.167,85.18,110.6,40.531353,-3.426696,608.8,4,5,316.1,3.867
86.19,1,-0.017,0.005,-0.021,-0.03,0.002,-0.008,-1.572,0.051,0.17,85.18,110.6,40.531353,-3.426696,608.8,4,5,316.1,3.867
86.29,1,-0.075,0.005,-0.007,-0.046,0.003,-0.01,-1.574,0.049,0.173,85.18,110.6,40.531353,-3.426696,608.8,4,5,316.1,3.867
86.39,1,-0.014,0.015,0.016,-0.04,0.007,0.003,-1.576,0.046,0.175,85.18,110.6,40.531353,-3.426696,608.8,4,5,316.1,3.867
86.49,1,-0.056,0.026,-0.029,-0.037,0.016,-0.008,-1.576,0.045,0.177,85.18,110.6,40.531353,-3.426696,608.8,4,5,316.1,3.867
86.59,1,-0.043,0.028,-0.011,-0.052,0.025,-0.016,-1.577,0.046,0.18,86.24,109.9,40.531544,-3.426938,608.5,4,5,314.3,4.57
86.7,1,-0.049,0.025,-0.009,-0.042,0.025,-0.012,-1.578,0.044,0.183,86.24,109.9,40.531544,-3.426938,608.5,4,5,314.3,4.57
86.79,1,-0.055,0.0,0.015,-0.05,0.015,-0.001,-1.581,0.041,0.185,86.24,109.9,40.531544,-3.426938,608.5,4,5,314.3,4.57
86.89,1,-0.0,0.041,-0.01,-0.035,0.018,0.0,-1.58,0.039,0.187,86.24,109.9,40.531544,-3.426938,608.5,4,5,314.3,4.57
86.99,1,-0.012,0.019,-0.015,-0.013,0.031,-0.008,-1.58,0.037,0.19,86.24,109.9,40.531544,-3.426938,608.5,4,5,314.3,4.57
87.09,1,-0.022,0.028,-0.009,-0.017,0.021,-0.01,-1.581,0.037,0.192,86.24,109.9,40.531544,-3.426938,608.5,4,5,314.3,4.57
87.19,1,-0.045,0.025,-0.008,-0.026,0.025,-0.007,-1.582,0.034,0.194,86.24,109.9,40.531544,-3.426938,608.5,4,5,314.3,4.57
87.29,1,-0.045,0.023,-0.013,-0.038,0.027,-0.011,-1.582,0.034,0.197,86.24,109.9,40.531544,-3.426938,608.5,4,5,314.3,4.57
87.4,1,-0.035,0.04,-0.007,-0.038,0.028,-0.011,-1.582,0.033,0.199,86.24,109.9,40.531544,-3.426938,608.5,4,5,314.3,4.57
87.49,1,-0.028,0.02,-0.005,-0.035,0.031,-0.006,-1.582,0.033,0.202,86.24,109.9,40.531544,-3.426938,608.5,4,5,314.3,4.57
87.59,1,-0.042,0.0,-0.018,-0.04,0.016,-0.011,-1.582,0.034,0.204,87.22,109.5,40.531719,-3.427206,608.6,6,5,312.2,3.867
87.69,1,-0.036,0.009,0.001,-0.033,0.008,-0.007,-1.583,0.033,0.207,87.22,109.5,40.531719,-3.427206,608.6,6,5,312.2,3.867
87.79,1,-0.055,-0.014,-0.002,-0.042,-0.002,-0.005,-1.584,0.034,0.21,87.22,109.5,40.531719,-3.427206,608.6,6,5,312.2,3.867
87.89,1,-0.076,0.005,-0.004,-0.062,-0.002,-0.003,-1.584,0.035,0.213,87.22,109.5,40.531719,-3.427206,608.6,6,5,312.2,3.867
87.99,1,-0.051,0.001,-0.008,-0.07,-0.002,-0.007,-1.586,0.035,0.216,87.22,109.5,40.531719,-3.427206,608.6,6,5,312.2,3.867
88.1,1,0.034,0.007,-0.006,-0.014,0.002,-0.005,-1.588,0.036,0.219,87.22,109.5,40.531719,-3.427206,608.6,6,5,312.2,3.867
88.19,1,0.019,0.002,-0.002,-0.0,0.004,-0.006,-1.589,0.037,0.222,87.22,109.5,40.531719,-3.427206,608.6,6,5,312.2,3.867
88.3,1,-0.032,0.028,-0.018,-0.001,0.018,-0.007,-1.589,0.039,0.225,87.22,109.5,40.531719,-3.427206,608.6,6,5,312.2,3.867
88.39,1,-0.051,0.009,0.003,-0.028,0.013,-0.008,-1.59,0.038,0.227,87.22,109.5,40.531719,-3.427206,608.6,6,5,312.2,3.867
88.51,1,-0.026,0.02,-0.02,-0.03,0.015,-0.011,-1.591,0.033,0.229,87.22,109.5,40.531719,-3.427206,608.6,6,5,312.2,3.867
88.6,1,-0.042,0.028,-0.024,-0.036,0.021,-0.017,-1.59,0.033,0.231,88.18,108.8,40.531902,-3.427475,609.1,6,5,309.7,4.57
88.69,1,-0.063,0.023,-0.002,-0.046,0.024,-0.012,-1.59,0.031,0.233,88.18,108.8,40.531902,-3.427475,609.1,6,5,309.7,4.57
88.8,1,-0.054,0.019,-0.008,-0.057,0.02,-0.006,-1.59,0.03,0.234,88.18,108.8,40.531902,-3.427475,609.1,6,5,309.7,4.57
88.91,1,0.019,0.003,-0.011,-0.014,0.014,-0.009,-1.591,0.03,0.236,88.18,108.8,40.531902,-3.427475,609.1,6,5,309.7,4.57
89.0,1,-0.07,0.023,-0.016,-0.037,0.017,-0.015,-1.592,0.031,0.238,88.18,108.8,40.531902,-3.427475,609.1,6,5,309.7,4.57
89.1,1,-0.025,0.011,0.002,-0.045,0.016,-0.006,-1.593,0.031,0.24,88.18,108.8,40.531902,-3.427475,609.1,6,5,309.7,4.57
89.2,1,-0.019,0.021,-0.029,-0.026,0.017,-0.014,-1.593,0.028,0.242,88.18,108.8,40.531902,-3.427475,609.1,6,5,309.7,4.57
89.31,1,-0.055,0.03,-0.02,-0.038,0.022,-0.02,-1.592,0.028,0.244,88.18,108.8,40.531902,-3.427475,609.1,6,5,309.7,4.57
89.4,1,-0.01,0.009,-0.01,-0.035,0.018,-0.018,-1.592,0.028,0.246,88.18,108.8,40.531902,-3.427475,609.1,6,5,309.7,4.57
89.5,1,-0.069,-0.023,-0.018,-0.038,0.001,-0.015,-1.591,0.028,0.249,88.18,108.8,40.531902,-3.427475,609.1,6,5,309.7,4.57
89.6,1,-0.036,-0.003,-0.005,-0.048,-0.007,-0.013,-1.591,0.028,0.251,89.2,109.3,40.532074,-3.427759,609.4,6,5,308.0,4.219
89.7,1,-0.036,-0.006,-0.009,-0.032,-0.004,-0.007,-1.593,0.031,0.254,89.2,109.3,40.532074,-3.427759,609.4,6,5,308.0,4.219
89.8,1,-0.034,0.006,-0.008,-0.037,-0.002,-0.009,-1.592,0.033,0.256,89.2,109.3,40.532074,-3.427759,609.4,6,5,308.0,4.219
89.9,1,-0.017,-0.007,-0.008,-0.029,-0.005,-0.008,-1.594,0.035,0.259,89.2,109.3,40.532074,-3.427759,609.4,6,5,308.0,4.219
90.0,1,-0.075,0.012,-0.01,-0.042,0.005,-0.011,-1.595,0.036,0.261,89.2,109.3,40.532074,-3.427759,609.4,6,5,308.0,4.219
90.1,1,-0.067,0.011,0.0,-0.065,0.009,-0.004,-1.596,0.036,0.264,89.2,109.3,40.532074,-3.427759,609.4,6,5,308.0,4.219
90.2,1,-0.032,-0.001,-0.01,-0.053,0.004,-0.005,-1.595,0.04,0.267,89.2,109.3,40.532074,-3.427759,609.4,6,5,308.0,4.219
90.3,1,-0.025,-0.015,-0.021,-0.033,-0.003,-0.016,-1.594,0.04,0.269,89.2,109.3,40.532074,-3.427759,609.4,6,5,308.0,4.219
90.4,1,-0.046,-0.023,0.008,-0.041,-0.014,-0.007,-1.595,0.043,0.272,89.2,109.3,40.532074,-3.427759,609.4,6,5,308.0,4.219
90.5,1,0.002,0.008,-0.01,-0.023,-0.009,-0.002,-1.595,0.04,0.274,89.2,109.3,40.532074,-3.427759,609.4,6,5,308.0,4.219
90.6,1,-0.017,0.055,-0.013,-0.015,0.017,-0.008,-1.595,0.039,0.277,90.2,108.2,40.532242,-3.428039,610.4,6,5,307.3,2.461
90.7,1,-0.034,0.025,-0.017,-0.016,0.034,-0.013,-1.595,0.039,0.279,90.2,108.2,40.532242,-3.428039,610.4,6,5,307.3,2.461
90.8,1,-0.095,-0.008,-0.016,-0.059,0.015,-0.017,-1.594,0.036,0.281,90.2,108.2,40.532242,-3.428039,610.4,6,5,307.3,2.461
90.91,1,-0.024,0.013,-0.003,-0.051,0.008,-0.01,-1.594,0.034,0.284,90.2,108.2,40.532242,-3.428039,610.4,6,5,307.3,2.461
91.01,1,-0.01,0.028,-0.012,-0.03,0.02,-0.009,-1.594,0.031,0.286,90.2,108.2,40.532242,-3.428039,610.4,6,5,307.3,2.461
91.1,1,-0.047,0.007,-0.006,-0.031,0.013,-0.008,-1.594,0.031,0.288,90.2,108.2,40.532242,-3.428039,610.4,6,5,307.3,2.461
91.2,1,-0.015,0.022,-0.011,-0.033,0.017,-0.01,-1.594,0.032,0.29,90.2,108.2,40.532242,-3.428039,610.4,6,5,307.3,2.461
91.3,1,-0.035,0.011,-0.01,-0.021,0.014,-0.009,-1.593,0.03,0.291,90.2,108.2,40.532242,-3.428039,610.4,6,5,307.3,2.461
91.4,1,-0.011,0.018,0.006,-0.026,0.012,-0.003,-1.593,0.028,0.293,90.2,108.2,40.532242,-3.428039,610.4,6,5,307.3,2.461
91.5,1,0.043,0.03,-0.002,0.02,0.024,-0.001,-1.593,0.027,0.295,90.2,108.2,40.532242,-3.428039,610.4,6,5,307.3,2.461
91.61,1,-0.035,0.023,-0.014,-0.011,0.022,-0.005,-1.592,0.027,0.296,91.19,107.7,40.532406,-3.428328,611.0,6,5,304.5,3.516
91.72,1,-0.018,0.014,0.004,-0.018,0.02,-0.007,-1.592,0.028,0.299,91.19,107.7,40.532406,-3.428328,611.0,6,5,304.5,3.516
91.81,1,-0.019,0.003,0.01,-0.018,0.015,0.004,-1.593,0.032,0.301,91.19,107.7,40.532406,-3.428328,611.0,6,5,304.5,3.516
91.91,1,0.009,-0.025,-0.002,-0.009,-0.004,0.004,-1.593,0.034,0.305,91.19,107.7,40.532406,-3.428328,611.0,6,5,304.5,3.516
92.01,1,0.027,-0.028,0.007,0.011,-0.019,0.001,-1.593,0.035,0.308,91.19,107.7,40.532406,-3.428328,611.0,6,5,304.5,3.516
92.11,1,-0.014,-0.026,0.004,0.0,-0.025,0.004,-1.593,0.035,0.311,91.19,107.7,40.532406,-3.428328,611.0,6,5,304.5,3.516
92.21,1,0.003,-0.014,0.024,-0.001,-0.023,0.013,-1.594,0.038,0.314,91.19,107.7,40.532406,-3.428328,611.0,6,5,304.5,3.516
92.31,1,-0.036,-0.005,0.019,-0.009,-0.012,0.015,-1.595,0.041,0.317,91.19,107.7,40.532406,-3.428328,611.0,6,5,304.5,3.516
92.41,1,-0.035,-0.001,0.017,-0.028,-0.005,0.02,-1.598,0.041,0.319,91.19,107.7,40.532406,-3.428328,611.0,6,5,304.5,3.516
92.51,1,-0.004,0.015,0.023,-0.022,-0.0,0.021,-1.6,0.039,0.322,91.19,107.7,40.532406,-3.428328,611.0,6,5,304.5,3.516
92.61,1,-0.005,0.034,0.029,-0.001,0.027,0.024,-1.602,0.038,0.324,92.16,106.1,40.532532,-3.428616,611.9,6,5,302.7,4.57
92.71,1,-0.009,0.019,0.019,-0.013,0.021,0.024,-1.603,0.037,0.326,92.16,106.1,40.532532,-3.428616,611.9,6,5,302.7,4.57
92.81,1,-0.005,0.034,0.003,-0.005,0.024,0.012,-1.603,0.034,0.328,92.16,106.1,40.532532,-3.428616,611.9,6,5,302.7,4.57
92.91,1,-0.009,0.04,0.013,-0.011,0.036,0.008,-1.603,0.03,0.329,92.16,106.1,40.532532,-3.428616,611.9,6,5,302.7,4.57
93.01,1,-0.024,0.004,0.014,-0.014,0.02,0.013,-1.604,0.028,0.331,92.16,106.1,40.532532,-3.428616,611.9,6,5,302.7,4.57
93.11,1,-0.039,0.025,0.015,-0.029,0.017,0.014,-1.606,0.026,0.333,92.16,106.1,40.532532,-3.428616,611.9,6,5,302.7,4.57
93.21,1,-0.018,-0.001,0.023,-0.027,0.015,0.02,-1.607,0.025,0.334,92.16,106.1,40.532532,-3.428616,611.9,6,5,302.7,4.57
93.31,1,0.019,0.013,0.004,-0.006,0.008,0.014,-1.608,0.022,0.336,92.16,106.1,40.532532,-3.428616,611.9,6,5,302.7,4.57
93.42,1,-0.006,0.011,0.002,-0.001,0.016,0.008,-1.608,0.022,0.338,92.16,106.1,40.532532,-3.428616,611.9,6,5,302.7,4.57
93.52,1,-0.005,0.03,0.022,-0.005,0.015,0.011,-1.609,0.02,0.339,92.16,106.1,40.532532,-3.428616,611.9,6,5,302.7,4.57
93.61,1,-0.02,-0.006,0.001,-0.007,0.011,0.009,-1.609,0.021,0.342,93.19,105.9,40.532673,-3.428922,612.8,6,5,300.2,4.219
93.71,1,-0.036,-0.016,0.015,-0.024,-0.003,0.005,-1.61,0.019,0.344,93.19,105.9,40.532673,-3.428922,612.8,6,5,300.2,4.219
93.81,1,-0.032,-0.024,0.015,-0.028,-0.016,0.018,-1.61,0.021,0.346,93.19,105.9,40.532673,-3.428922,612.8,6,5,300.2,4.219
93.91,1,-0.03,-0.006,0.012,-0.033,-0.015,0.011,-1.611,0.021,0.349,93.19,105.9,40.532673,-3.428922,612.8,6,5,300.2,4.219
94.01,1,-0.016,-0.01,0.02,-0.019,-0.009,0.017,-1.611,0.024,0.351,93.19,105.9,40.532673,-3.428922,612.8,6,5,300.2,4.219
94.12,1,-0.005,0.006,0.002,-0.014,-0.003,0.011,-1.612,0.026,0.353,93.19,105.9,40.532673,-3.428922,612.8,6,5,300.2,4.219
94.21,1,-0.012,-0.006,0.006,-0.008,-0.002,0.009,-1.613,0.027,0.355,93.19,105.9,40.532673,-3.428922,612.8,6,5,300.2,4.219
94.31,1,-0.011,0.017,0.001,-0.017,0.004,0.003,-1.613,0.027,0.357,93.19,105.9,40.532673,-3.428922,612.8,6,5,300.2,4.219
94.41,1,-0.035,0.013,-0.001,-0.018,0.014,-0.0,-1.613,0.028,0.358,93.19,105.9,40.532673,-3.428922,612.8,6,5,300.2,4.219
94.52,1,-0.036,0.032,-0.004,-0.033,0.021,0.0,-1.612,0.026,0.36,93.19,105.9,40.532673,-3.428922,612.8,6,5,300.2,4.219
94.62,1,-0.005,0.024,-0.017,-0.023,0.021,-0.008,-1.612,0.025,0.361,94.19,105.9,40.532803,-3.429235,614.0,6,5,298.5,4.219
94.72,1,0.007,0.021,-0.004,-0.003,0.029,-0.011,-1.612,0.021,0.362,94.19,105.9,40.532803,-3.429235,614.0,6,5,298.5,4.219
94.82,1,0.008,-0.016,-0.002,0.003,-0.0,-0.001,-1.612,0.023,0.364,94.19,105.9,40.532803,-3.429235,614.0,6,5,298.5,4.219
94.92,1,-0.021,0.023,-0.025,-0.008,0.008,-0.014,-1.611,0.021,0.365,94.19,105.9,40.532803,-3.429235,614.0,6,5,298.5,4.219
95.02,1,-0.006,0.004,-0.003,-0.008,0.012,-0.013,-1.611,0.02,0.367,94.19,105.9,40.532803,-3.429235,614.0,6,5,298.5,4.219
95.12,1,-0.025,0.006,-0.015,-0.016,0.005,-0.008,-1.609,0.02,0.368,94.19,105.9,40.532803,-3.429235,614.0,6,5,298.5,4.219
95.22,1,0.015,0.025,-0.004,-0.005,0.016,-0.01,-1.608,0.019,0.369,94.19,105.9,40.532803,-3.429235,614.0,6,5,298.5,4.219
95.32,1,-0.03,0.002,-0.009,-0.009,0.011,-0.008,-1.606,0.019,0.371,94.19,105.9,40.532803,-3.429235,614.0,6,5,298.5,4.219
95.42,1,-0.054,0.01,-0.011,-0.032,0.009,-0.008,-1.605,0.018,0.372,94.19,105.9,40.532803,-3.429235,614.0,6,5,298.5,4.219
95.52,1,-0.008,0.004,0.004,-0.032,0.008,-0.005,-1.605,0.017,0.373,94.19,105.9,40.532803,-3.429235,614.0,6,5,298.5,4.219
95.62,1,-0.003,-0.013,-0.024,-0.012,0.001,-0.012,-1.603,0.017,0.374,95.22,106.3,40.532936,-3.429561,615.5,6,5,296.4,3.867
95.72,1,0.016,0.006,-0.021,0.006,-0.004,-0.015,-1.602,0.017,0.376,95.22,106.3,40.532936,-3.429561,615.5,6,5,296.4,3.867
95.82,1,-0.024,-0.004,-0.053,-0.005,-0.002,-0.032,-1.598,0.016,0.377,95.22,106.3,40.532936,-3.429561,615.5,6,5,296.4,3.867
95.92,1,-0.03,-0.005,-0.055,-0.025,-0.005,-0.048,-1.592,0.016,0.378,95.22,106.3,40.532936,-3.429561,615.5,6,5,296.4,3.867
96.02,1,-0.03,0.011,-0.047,-0.027,0.001,-0.05,-1.586,0.015,0.379,95.22,106.3,40.532936,-3.429561,615.5,6,5,296.4,3.867
96.12,1,0.015,-0.001,-0.049,-0.013,0.004,-0.05,-1.582,0.016,0.381,95.22,106.3,40.532936,-3.429561,615.5,6,5,296.4,3.867
96.22,1,-0.018,0.009,-0.042,-0.006,0.006,-0.046,-1.579,0.016,0.382,95.22,106.3,40.532936,-3.429561,615.5,6,5,296.4,3.867
96.32,1,-0.023,-0.001,-0.02,-0.019,-0.0,-0.036,-1.576,0.014,0.383,95.22,106.3,40.532936,-3.429561,615.5,6,5,296.4,3.867
96.42,1,-0.014,0.01,-0.01,-0.014,0.005,-0.022,-1.574,0.015,0.384,95.22,106.3,40.532936,-3.429561,615.5,6,5,296.4,3.867
96.52,1,-0.017,-0.015,0.011,-0.017,-0.0,-0.008,-1.574,0.015,0.386,95.22,106.3,40.532936,-3.429561,615.5,6,5,296.4,3.867
96.62,1,-0.023,-0.002,0.014,-0.02,-0.005,0.01,-1.576,0.014,0.387,96.17,106.6,40.533066,-3.429845,617.3,6,5,295.3,3.164
96.72,1,-0.013,0.008,0.028,-0.014,0.001,0.015,-1.578,0.015,0.388,96.17,106.6,40.533066,-3.429845,617.3,6,5,295.3,3.164
96.82,1,-0.025,0.003,0.026,-0.019,0.004,0.024,-1.58,0.016,0.389,96.17,106.6,40.533066,-3.429845,617.3,6,5,295.3,3.164
96.93,1,-0.009,0.002,0.032,-0.017,0.003,0.027,-1.584,0.016,0.39,96.17,106.6,40.533066,-3.429845,617.3,6,5,295.3,3.164
97.03,1,0.013,0.007,0.031,-0.001,0.006,0.03,-1.586,0.016,0.391,96.17,106.6,40.533066,-3.429845,617.3,6,5,295.3,3.164
97.12,1,-0.011,0.012,0.019,-0.003,0.01,0.025,-1.587,0.015,0.393,96.17,106.6,40.533066,-3.429845,617.3,6,5,295.3,3.164
97.22,1,-0.028,0.002,0.029,-0.014,0.008,0.026,-1.589,0.017,0.394,96.17,106.6,40.533066,-3.429845,617.3,6,5,295.3,3.164
97.32,1,-0.038,-0.003,0.021,-0.033,0.001,0.023,-1.591,0.017,0.395,96.17,106.6,40.533066,-3.429845,617.3,6,5,295.3,3.164
97.42,1,-0.046,0.012,0.037,-0.04,0.003,0.03,-1.594,0.018,0.396,96.17,106.6,40.533066,-3.429845,617.3,6,5,295.3,3.164
97.53,1,-0.022,-0.001,0.018,-0.032,0.001,0.026,-1.596,0.018,0.398,96.17,106.6,40.533066,-3.429845,617.3,6,5,295.3,3.164
97.62,1,0.005,0.002,0.02,-0.014,0.008,0.024,-1.597,0.021,0.399,97.17,104.1,40.53318,-3.430138,618.6,6,5,293.2,3.164
97.73,1,-0.025,-0.012,0.015,-0.014,-0.003,0.017,-1.598,0.023,0.401,97.17,104.1,40.53318,-3.430138,618.6,6,5,293.2,3.164
97.82,1,-0.02,-0.004,0.024,-0.021,-0.007,0.019,-1.599,0.025,0.403,97.17,104.1,40.53318,-3.430138,618.6,6,5,293.2,3.164
97.93,1,-0.005,-0.017,0.025,-0.016,-0.012,0.022,-1.601,0.027,0.405,97.17,104.1,40.53318,-3.430138,618.6,6,5,293.2,3.164
98.03,1,0.009,-0.001,0.005,0.006,-0.008,0.018,-1.602,0.027,0.407,97.17,104.1,40.53318,-3.430138,618.6,6,5,293.2,3.164
98.14,1,0.009,-0.018,0.031,0.003,-0.011,0.02,-1.604,0.025,0.409,97.17,104.1,40.53318,-3.430138,618.6,6,5,293.2,3.164
98.23,1,0.036,-0.006,0.01,0.019,-0.012,0.019,-1.605,0.026,0.411,97.17,104.1,40.53318,-3.430138,618.6,6,5,293.2,3.164
98.33,1,0.005,-0.005,-0.005,0.021,-0.006,0.005,-1.605,0.029,0.413,97.17,104.1,40.53318,-3.430138,618.6,6,5,293.2,3.164
98.44,1,-0.014,-0.014,0.004,0.003,-0.008,0.003,-1.605,0.028,0.415,97.17,104.1,40.53318,-3.430138,618.6,6,5,293.2,3.164
98.53,1,0.06,0.006,0.009,0.019,-0.009,0.008,-1.604,0.029,0.417,97.17,104.1,40.53318,-3.430138,618.6,6,5,293.2,3.164
98.63,1,-0.002,0.006,0.013,0.02,0.006,0.008,-1.605,0.031,0.418,98.17,103.6,40.533272,-3.430455,619.7,6,5,291.4,3.867
98.73,1,-0.033,0.02,-0.009,-0.013,0.005,0.004,-1.606,0.029,0.419,98.17,103.6,40.533272,-3.430455,619.7,6,5,291.4,3.867
98.83,1,-0.062,-0.007,0.006,-0.032,0.009,0.001,-1.608,0.029,0.421,98.17,103.6,40.533272,-3.430455,619.7,6,5,291.4,3.867
98.93,1,-0.079,-0.003,0.007,-0.062,-0.001,0.004,-1.609,0.026,0.422,98.17,103.6,40.533272,-3.430455,619.7,6,5,291.4,3.867
99.03,1,-0.004,0.03,0.026,-0.051,0.008,0.016,-1.611,0.026,0.423,98.17,103.6,40.533272,-3.430455,619.7,6,5,291.4,3.867
99.13,1,0.052,0.031,-0.005,0.011,0.031,0.009,-1.61,0.024,0.424,98.17,103.6,40.533272,-3.430455,619.7,6,5,291.4,3.867
99.23,1,0.006,-0.002,-0.005,0.018,0.02,-0.005,-1.609,0.025,0.425,98.17,103.6,40.533272,-3.430455,619.7,6,5,291.4,3.867
99.34,1,0.031,0.033,0.011,0.024,0.018,0.007,-1.61,0.022,0.426,98.17,103.6,40.533272,-3.430455,619.7,6,5,291.4,3.867
99.43,1,-0.028,-0.0,-0.019,0.01,0.017,-0.006,-1.608,0.022,0.427,98.17,103.6,40.533272,-3.430455,619.7,6,5,291.4,3.867
99.54,1,-0.068,-0.006,0.008,-0.036,-0.003,-0.001,-1.609,0.022,0.428,98.17,103.6,40.533272,-3.430455,619.7,6,5,291.4,3.867
99.64,1,-0.062,0.005,-0.003,-0.058,-0.001,-0.002,-1.61,0.02,0.428,99.23,103.1,40.533356,-3.430769,621.2,6,5,289.7,3.516
99.73,1,-0.011,0.022,0.019,-0.04,0.01,0.008,-1.611,0.018,0.429,99.23,103.1,40.533356,-3.430769,621.2,6,5,289.7,3.516
99.83,1,0.027,-0.004,-0.006,-0.004,0.012,0.005,-1.612,0.019,0.43,99.23,103.1,40.533356,-3.430769,621.2,6,5,289.7,3.516
99.93,1,0.041,-0.004,-0.003,0.026,-0.0,-0.002,-1.611,0.022,0.43,99.23,103.1,40.533356,-3.430769,621.2,6,5,289.7,3.516
100.03,1,-0.004,0.016,-0.005,0.016,-0.001,-0.004,-1.612,0.02,0.431,99.23,103.1,40.533356,-3.430769,621.2,6,5,289.7,3.516
100.14,1,-0.048,0.033,0.009,-0.014,0.019,0.004,-1.613,0.02,0.431,99.23,103.1,40.533356,-3.430769,621.2,6,5,289.7,3.516
100.24,1,-0.065,0.007,0.004,-0.05,0.016,0.004,-1.613,0.016,0.431,99.23,103.1,40.533356,-3.430769,621.2,6,5,289.7,3.516
100.33,1,-0.011,0.028,0.019,-0.039,0.021,0.008,-1.614,0.014,0.431,99.23,103.1,40.533356,-3.430769,621.2,6,5,289.7,3.516
100.43,1,-0.013,-0.003,-0.003,-0.02,0.011,0.008,-1.615,0.012,0.432,99.23,103.1,40.533356,-3.430769,621.2,6,5,289.7,3.516
100.54,1,0.052,0.019,0.018,0.01,0.011,0.009,-1.616,0.011,0.432,99.23,103.1,40.533356,-3.430769,621.2,6,5,289.7,3.516
100.64,1,0.03,-0.004,-0.015,0.038,0.01,0.001,-1.615,0.013,0.432,100.17,103.2,40.533436,-3.431077,622.7,6,5,287.6,3.867
100.75,1,-0.029,-0.021,0.003,0.007,-0.005,-0.001,-1.614,0.012,0.432,100.17,103.2,40.533436,-3.431077,622.7,6,5,287.6,3.867
100.84,1,-0.063,0.003,-0.003,-0.027,-0.009,-0.0,-1.614,0.009,0.432,100.17,103.2,40.533436,-3.431077,622.7,6,5,287.6,3.867
100.94,1,-0.013,0.033,0.023,-0.042,0.013,0.007,-1.614,0.006,0.432,100.17,103.2,40.533436,-3.431077,622.7,6,5,287.6,3.867
101.04,1,0.005,-0.001,-0.022,-0.001,0.015,0.002,-1.613,0.005,0.432,100.17,103.2,40.533436,-3.431077,622.7,6,5,287.6,3.867
101.14,1,-0.053,-0.022,0.008,-0.036,-0.0,-0.002,-1.615,0.004,0.432,100.17,103.2,40.533436,-3.431077,622.7,6,5,287.6,3.867
101.35,1,-0.028,-0.021,-0.0,-0.019,-0.005,-0.008,-1.615,0.008,0.434,100.17,103.2,40.533436,-3.431077,622.7,6,5,287.6,3.867
101.44,1,-0.033,-0.004,0.002,-0.026,-0.011,0.0,-1.616,0.01,0.435,100.17,103.2,40.533436,-3.431077,622.7,6,5,287.6,3.867
101.54,1,-0.003,-0.055,0.011,-0.022,-0.024,0.002,-1.617,0.013,0.437,100.17,103.2,40.533436,-3.431077,622.7,6,5,287.6,3.867
101.64,1,-0.02,-0.067,-0.017,-0.014,-0.053,0.0,-1.618,0.017,0.438,100.17,103.2,40.533436,-3.431077,622.7,6,5,287.6,3.867
101.74,1,0.013,-0.03,-0.01,-0.008,-0.045,-0.008,-1.619,0.02,0.44,101.16,103.6,40.533512,-3.431404,624.1,6,5,285.5,4.219
101.84,1,-0.033,-0.007,-0.007,-0.007,-0.023,-0.012,-1.619,0.022,0.441,101.16,103.6,40.533512,-3.431404,624.1,6,5,285.5,4.219
101.95,1,-0.028,-0.017,0.003,-0.027,-0.018,-0.0,-1.619,0.021,0.442,101.16,103.6,40.533512,-3.431404,624.1,6,5,285.5,4.219
102.05,1,-0.004,0.005,-0.013,-0.014,-0.014,-0.009,-1.618,0.021,0.443,101.16,103.6,40.533512,-3.431404,624.1,6,5,285.5,4.219
102.14,1,-0.034,-0.011,0.007,-0.016,-0.005,-0.003,-1.617,0.02,0.444,101.16,103.6,40.533512,-3.431404,624.1,6,5,285.5,4.219
102.24,1,-0.037,0.01,0.014,-0.037,0.001,0.007,-1.617,0.022,0.445,101.16,103.6,40.533512,-3.431404,624.1,6,5,285.5,4.219
102.34,1,0.012,0.003,-0.008,-0.013,0.005,0.007,-1.617,0.022,0.446,101.16,103.6,40.533512,-3.431404,624.1,6,5,285.5,4.219
102.44,1,-0.022,0.013,-0.01,-0.009,0.009,-0.01,-1.616,0.022,0.447,101.16,103.6,40.533512,-3.431404,624.1,6,5,285.5,4.219
102.54,1,0.018,0.007,-0.006,-0.005,0.004,-0.005,-1.615,0.026,0.448,101.16,103.6,40.533512,-3.431404,624.1,6,5,285.5,4.219
102.64,1,0.031,0.009,0.01,0.016,0.007,-0.001,-1.615,0.025,0.448,101.16,103.6,40.533512,-3.431404,624.1,6,5,285.5,4.219
102.74,1,0.022,0.045,-0.006,0.024,0.023,0.001,-1.615,0.018,0.449,102.18,103.2,40.533569,-3.43174,625.6,6,5,284.4,3.164
102.84,1,-0.036,0.023,0.0,-0.002,0.029,-0.004,-1.614,0.018,0.448,102.18,103.2,40.533569,-3.43174,625.6,6,5,284.4,3.164
102.94,1,-0.031,-0.002,0.008,-0.021,0.015,0.005,-1.616,0.018,0.449,102.18,103.2,40.533569,-3.43174,625.6,6,5,284.4,3.164
103.04,1,-0.021,0.025,-0.01,-0.025,0.014,-0.004,-1.613,0.019,0.449,102.18,103.2,40.533569,-3.43174,625.6,6,5,284.4,3.164
103.14,1,0.029,0.021,0.024,0.001,0.018,0.009,-1.613,0.019,0.449,102.18,103.2,40.533569,-3.43174,625.6,6,5,284.4,3.164
103.24,1,-0.064,0.036,-0.01,-0.017,0.029,0.001,-1.612,0.019,0.449,102.18,103.2,40.533569,-3.43174,625.6,6,5,284.4,3.164
103.34,1,-0.058,0.001,0.021,-0.048,0.019,0.012,-1.613,0.02,0.449,102.18,103.2,40.533569,-3.43174,625.6,6,5,284.4,3.164
103.44,1,-0.016,-0.024,0.013,-0.036,0.0,0.011,-1.613,0.023,0.449,102.18,103.2,40.533569,-3.43174,625.6,6,5,284.4,3.164
103.54,1,-0.061,-0.011,-0.018,-0.043,-0.008,-0.002,-1.612,0.022,0.448,102.18,103.2,40.533569,-3.43174,625.6,6,5,284.4,3.164
103.65,1,-0.021,0.023,0.062,-0.045,-0.004,0.029,-1.616,0.021,0.448,102.18,103.2,40.533569,-3.43174,625.6,6,5,284.4,3.164
103.75,1,0.036,0.014,-0.028,-0.002,0.008,0.008,-1.614,0.021,0.449,103.17,103.5,40.53363,-3.432077,626.4,6,5,282.0,3.516
103.85,1,0.033,0.039,0.014,0.033,0.029,0.001,-1.615,0.022,0.449,103.17,103.5,40.53363,-3.432077,626.4,6,5,282.0,3.516
103.94,1,-0.052,0.01,0.02,-0.011,0.022,0.016,-1.616,0.023,0.45,103.17,103.5,40.53363,-3.432077,626.4,6,5,282.0,3.516
104.05,1,0.028,-0.037,0.007,-0.004,-0.007,0.011,-1.616,0.025,0.451,103.17,103.5,40.53363,-3.432077,626.4,6,5,282.0,3.516
104.15,1,-0.001,-0.03,-0.005,0.009,-0.017,0.007,-1.615,0.03,0.453,103.17,103.5,40.53363,-3.432077,626.4,6,5,282.0,3.516
104.25,1,-0.025,-0.017,-0.019,-0.009,-0.018,-0.009,-1.613,0.033,0.454,103.17,103.5,40.53363,-3.432077,626.4,6,5,282.0,3.516
104.35,1,-0.048,-0.021,0.031,-0.028,-0.022,0.003,-1.615,0.035,0.455,103.17,103.5,40.53363,-3.432077,626.4,6,5,282.0,3.516
104.45,1,-0.042,-0.019,-0.02,-0.049,-0.026,0.002,-1.618,0.036,0.456,103.17,103.5,40.53363,-3.432077,626.4,6,5,282.0,3.516
104.55,1,0.024,0.031,0.006,-0.013,-0.001,-0.0,-1.618,0.036,0.456,103.17,103.5,40.53363,-3.432077,626.4,6,5,282.0,3.516
104.65,1,0.026,-0.01,-0.004,0.016,0.005,-0.0,-1.617,0.037,0.457,103.17,103.5,40.53363,-3.432077,626.4,6,5,282.0,3.516
104.75,1,0.008,-0.004,-0.006,0.019,-0.001,-0.003,-1.617,0.037,0.459,104.19,103.4,40.533688,-3.432416,627.8,6,5,280.5,3.867
104.85,1,-0.022,-0.015,0.007,0.003,-0.006,-0.002,-1.616,0.035,0.46,104.19,103.4,40.533688,-3.432416,627.8,6,5,280.5,3.867
104.95,1,-0.049,-0.011,0.007,-0.027,-0.008,0.004,-1.617,0.034,0.461,104.19,103.4,40.533688,-3.432416,627.8,6,5,280.5,3.867
105.05,1,-0.024,-0.002,-0.001,-0.034,-0.012,0.002,-1.617,0.033,0.461,104.19,103.4,40.533688,-3.432416,627.8,6,5,280.5,3.867
105.15,1,-0.067,0.021,-0.012,-0.041,0.006,-0.004,-1.615,0.031,0.462,104.19,103.4,40.533688,-3.432416,627.8,6,5,280.5,3.867
105.25,1,-0.104,0.025,-0.01,-0.076,0.016,-0.01,-1.618,0.031,0.463,104.19,103.4,40.533688,-3.432416,627.8,6,5,280.5,3.867
105.35,1,-0.069,0.004,0.013,-0.082,0.015,0.001,-1.62,0.03,0.464,104.19,103.4,40.533688,-3.432416,627.8,6,5,280.5,3.867
105.45,1,0.018,0.02,-0.01,-0.04,0.013,-0.001,-1.619,0.029,0.465,104.19,103.4,40.533688,-3.432416,627.8,6,5,280.5,3.867
105.55,1,0.036,0.004,0.007,0.004,0.012,-0.002,-1.618,0.028,0.465,104.19,103.4,40.533688,-3.432416,627.8,6,5,280.5,3.867
105.66,1,0.061,0.012,-0.012,0.033,0.01,-0.002,-1.617,0.028,0.466,104.19,103.4,40.533688,-3.432416,627.8,6,5,280.5,3.867
105.78,1,0.083,-0.002,0.007,0.064,0.004,-0.0,-1.614,0.028,0.466,105.19,103.5,40.533733,-3.432757,629.1,6,5,278.8,3.164
105.85,1,0.021,0.025,-0.02,0.055,0.01,-0.011,-1.611,0.026,0.466,105.19,103.5,40.533733,-3.432757,629.1,6,5,278.8,3.164
105.95,1,-0.057,0.016,-0.001,0.003,0.021,-0.006,-1.61,0.025,0.465,105.19,103.5,40.533733,-3.432757,629.1,6,5,278.8,3.164
106.06,1,-0.067,-0.015,-0.009,-0.05,0.002,-0.005,-1.609,0.024,0.465,105.19,103.5,40.533733,-3.432757,629.1,6,5,278.8,3.164
106.15,1,-0.022,0.033,0.017,-0.046,0.009,0.003,-1.61,0.024,0.464,105.19,103.5,40.533733,-3.432757,629.1,6,5,278.8,3.164
106.26,1,0.01,-0.032,-0.011,-0.002,0.006,-0.003,-1.608,0.022,0.463,105.19,103.5,40.533733,-3.432757,629.1,6,5,278.8,3.164
106.35,1,-0.041,0.042,0.018,-0.021,0.004,0.006,-1.609,0.021,0.463,105.19,103.5,40.533733,-3.432757,629.1,6,5,278.8,3.164
106.45,1,0.005,0.047,0.018,-0.018,0.035,0.016,-1.613,0.019,0.462,105.19,103.5,40.533733,-3.432757,629.1,6,5,278.8,3.164
106.55,1,0.031,0.035,0.004,0.004,0.038,0.012,-1.612,0.019,0.462,105.19,103.5,40.533733,-3.432757,629.1,6,5,278.8,3.164
106.65,1,0.027,0.035,-0.012,0.02,0.031,-0.003,-1.609,0.016,0.461,105.19,103.5,40.533733,-3.432757,629.1,6,5,278.8,3.164
106.75,1,0.031,0.052,0.008,0.031,0.04,0.002,-1.609,0.014,0.46,106.18,104.4,40.533764,-3.433093,630.4,4,5,277.0,3.516
106.86,1,-0.013,0.01,0.002,0.011,0.032,0.003,-1.608,0.015,0.459,106.18,104.4,40.533764,-3.433093,630.4,4,5,277.0,3.516
106.95,1,-0.012,-0.006,-0.01,-0.003,0.015,-0.005,-1.608,0.014,0.458,106.18,104.4,40.533764,-3.433093,630.4,4,5,277.0,3.516
107.05,1,-0.057,0.019,0.027,-0.027,0.008,0.01,-1.609,0.012,0.457,106.18,104.4,40.533764,-3.433093,630.4,4,5,277.0,3.516
107.15,1,-0.014,0.033,-0.01,-0.033,0.023,0.001,-1.61,0.01,0.456,106.18,104.4,40.533764,-3.433093,630.4,4,5,277.0,3.516
107.26,1,0.012,0.023,-0.005,-0.004,0.027,0.001,-1.611,0.01,0.455,106.18,104.4,40.533764,-3.433093,630.4,4,5,277.0,3.516
107.36,1,-0.029,0.009,-0.001,-0.012,0.018,-0.003,-1.612,0.01,0.455,106.18,104.4,40.533764,-3.433093,630.4,4,5,277.0,3.516
107.46,1,0.001,0.019,0.004,-0.014,0.016,0.001,-1.611,0.01,0.454,106.18,104.4,40.533764,-3.433093,630.4,4,5,277.0,3.516
107.56,1,0.026,-0.002,0.004,0.012,0.008,0.006,-1.611,0.011,0.453,106.18,104.4,40.533764,-3.433093,630.4,4,5,277.0,3.516
107.66,1,-0.006,0.001,-0.005,0.012,0.005,-0.0,-1.61,0.012,0.452,106.18,104.4,40.533764,-3.433093,630.4,4,5,277.0,3.516
107.76,1,-0.085,-0.015,0.009,-0.042,-0.007,-0.001,-1.611,0.011,0.451,107.18,103.2,40.533791,-3.433428,631.8,4,5,274.2,4.57
107.86,1,-0.033,0.041,0.012,-0.047,0.012,0.008,-1.614,0.008,0.45,107.18,103.2,40.533791,-3.433428,631.8,4,5,274.2,4.57
107.96,1,-0.008,-0.002,-0.021,-0.026,0.017,-0.001,-1.613,0.007,0.449,107.18,103.2,40.533791,-3.433428,631.8,4,5,274.2,4.57
108.07,1,0.036,-0.011,-0.014,0.002,-0.002,-0.014,-1.611,0.012,0.449,107.18,103.2,40.533791,-3.433428,631.8,4,5,274.2,4.57
108.16,1,-0.003,-0.017,-0.006,0.01,-0.012,-0.007,-1.611,0.016,0.449,107.18,103.2,40.533791,-3.433428,631.8,4,5,274.2,4.57
108.26,1,-0.047,0.0,0.011,-0.021,-0.005,-0.004,-1.611,0.015,0.448,107.18,103.2,40.533791,-3.433428,631.8,4,5,274.2,4.57
108.36,1,-0.017,-0.02,0.003,-0.022,-0.009,0.005,-1.611,0.016,0.448,107.18,103.2,40.533791,-3.433428,631.8,4,5,274.2,4.57
108.46,1,-0.018,-0.004,-0.013,-0.024,-0.013,-0.005,-1.608,0.016,0.447,107.18,103.2,40.533791,-3.433428,631.8,4,5,274.2,4.57
108.56,1,-0.009,0.03,0.013,-0.015,0.004,0.002,-1.609,0.015,0.446,107.18,103.2,40.533791,-3.433428,631.8,4,5,274.2,4.57
108.67,1,0.028,0.038,0.0,0.011,0.026,0.004,-1.609,0.017,0.446,107.18,103.2,40.533791,-3.433428,631.8,4,5,274.2,4.57
108.77,1,-0.009,-0.017,-0.03,0.013,0.009,-0.008,-1.609,0.019,0.445,108.17,103.5,40.53381,-3.433765,633.2,6,5,273.9,3.164
108.86,1,-0.117,0.009,-0.024,-0.052,0.002,-0.026,-1.609,0.023,0.444,108.17,103.5,40.53381,-3.433765,633.2,6,5,273.9,3.164
108.96,1,-0.023,-0.004,0.035,-0.065,0.009,0.005,-1.61,0.025,0.443,108.17,103.5,40.53381,-3.433765,633.2,6,5,273.9,3.164
109.06,1,0.037,-0.011,-0.003,-0.007,-0.009,0.011,-1.607,0.023,0.442,108.17,103.5,40.53381,-3.433765,633.2,6,5,273.9,3.164
109.16,1,0.01,0.004,-0.002,0.011,-0.001,-0.005,-1.606,0.021,0.441,108.17,103.5,40.53381,-3.433765,633.2,6,5,273.9,3.164
109.27,1,0.028,0.061,0.0,0.015,0.026,0.001,-1.608,0.016,0.439,108.17,103.5,40.53381,-3.433765,633.2,6,5,273.9,3.164
109.36,1,0.031,0.029,-0.005,0.032,0.038,-0.002,-1.608,0.012,0.438,108.17,103.5,40.53381,-3.433765,633.2,6,5,273.9,3.164
109.46,1,-0.034,-0.004,-0.008,0.004,0.016,-0.004,-1.607,0.011,0.436,108.17,103.5,40.53381,-3.433765,633.2,6,5,273.9,3.164
109.56,1,-0.018,0.008,0.007,-0.023,0.007,-0.001,-1.606,0.009,0.434,108.17,103.5,40.53381,-3.433765,633.2,6,5,273.9,3.164
109.67,1,-0.016,0.027,0.011,-0.015,0.016,0.006,-1.606,0.009,0.432,108.17,103.5,40.53381,-3.433765,633.2,6,5,273.9,3.164
109.76,1,-0.019,0.019,0.006,-0.014,0.02,0.004,-1.607,0.008,0.43,109.18,102.6,40.533829,-3.434097,634.4,6,5,273.2,1.055
109.87,1,-0.011,0.007,0.01,-0.016,0.014,0.008,-1.608,0.007,0.428,109.18,102.6,40.533829,-3.434097,634.4,6,5,273.2,1.055
109.97,1,0.013,0.03,0.008,-0.003,0.022,0.01,-1.608,0.006,0.426,109.18,102.6,40.533829,-3.434097,634.4,6,5,273.2,1.055
110.06,1,0.002,-0.022,0.003,0.001,0.008,0.006,-1.608,0.005,0.424,109.18,102.6,40.533829,-3.434097,634.4,6,5,273.2,1.055
110.16,1,0.047,0.031,0.011,0.029,0.003,0.01,-1.607,0.004,0.422,109.18,102.6,40.533829,-3.434097,634.4,6,5,273.2,1.055
110.27,1,0.002,-0.008,-0.018,0.022,0.009,-0.005,-1.604,0.004,0.42,109.18,102.6,40.533829,-3.434097,634.4,6,5,273.2,1.055
110.37,1,-0.027,-0.012,0.012,-0.008,-0.007,0.001,-1.604,0.001,0.418,109.18,102.6,40.533829,-3.434097,634.4,6,5,273.2,1.055
110.47,1,-0.074,0.005,0.003,-0.037,0.002,0.006,-1.606,0.001,0.416,109.18,102.6,40.533829,-3.434097,634.4,6,5,273.2,1.055
110.57,1,-0.068,-0.008,0.002,-0.062,-0.008,0.002,-1.607,-0.0,0.414,109.18,102.6,40.533829,-3.434097,634.4,6,5,273.2,1.055
110.67,1,0.036,0.027,0.025,-0.022,0.005,0.012,-1.606,0.0,0.413,109.18,102.6,40.533829,-3.434097,634.4,6,5,273.2,1.055
110.77,1,0.023,0.018,-0.005,0.013,0.019,0.009,-1.606,0.003,0.411,110.17,101.1,40.533825,-3.434421,636.2,6,5,271.4,2.461
110.87,1,-0.008,0.004,-0.006,0.007,0.017,-0.003,-1.605,0.004,0.409,110.17,101.1,40.533825,-3.434421,636.2,6,5,271.4,2.461
110.97,1,-0.009,-0.012,0.021,-0.005,0.001,0.006,-1.606,0.007,0.408,110.17,101.1,40.533825,-3.434421,636.2,6,5,271.4,2.461
111.08,1,0.025,-0.01,-0.001,0.006,-0.013,0.01,-1.606,0.009,0.406,110.17,101.1,40.533825,-3.434421,636.2,6,5,271.4,2.461
111.18,1,-0.045,0.011,0.005,-0.009,0.004,0.0,-1.605,0.007,0.404,110.17,101.1,40.533825,-3.434421,636.2,6,5,271.4,2.461
111.37,1,-0.002,-0.016,0.0,-0.046,-0.001,0.012,-1.606,0.007,0.4,110.17,101.1,40.533825,-3.434421,636.2,6,5,271.4,2.461
111.47,1,-0.019,-0.017,-0.009,-0.021,-0.008,0.0,-1.606,0.009,0.398,110.17,101.1,40.533825,-3.434421,636.2,6,5,271.4,2.461
111.57,1,0.022,0.014,0.014,-0.007,-0.003,0.001,-1.608,0.008,0.396,110.17,101.1,40.533825,-3.434421,636.2,6,5,271.4,2.461
111.67,1,0.0,0.025,0.014,0.011,0.011,0.009,-1.608,0.008,0.394,110.17,101.1,40.533825,-3.434421,636.2,6,5,271.4,2.461
111.77,1,-0.015,0.018,0.019,-0.004,0.02,0.018,-1.61,0.009,0.392,110.17,101.1,40.533825,-3.434421,636.2,6,5,271.4,2.461
111.87,1,0.012,0.027,-0.005,-0.001,0.024,0.006,-1.61,0.007,0.39,111.17,102.5,40.533825,-3.434751,636.9,6,5,271.1,2.109
111.97,1,0.016,0.024,0.0,0.008,0.016,-0.002,-1.609,0.006,0.387,111.17,102.5,40.533825,-3.434751,636.9,6,5,271.1,2.109
112.08,1,-0.034,0.0,0.005,-0.008,0.013,0.005,-1.609,0.007,0.385,111.17,102.5,40.533825,-3.434751,636.9,6,5,271.1,2.109
112.17,1,-0.017,0.014,0.002,-0.018,0.011,0.005,-1.609,0.005,0.383,111.17,102.5,40.533825,-3.434751,636.9,6,5,271.1,2.109
112.28,1,-0.007,-0.004,-0.001,-0.011,0.01,0.001,-1.609,0.006,0.381,111.17,102.5,40.533825,-3.434751,636.9,6,5,271.1,2.109
112.38,1,-0.011,-0.003,-0.006,-0.01,-0.005,-0.003,-1.61,0.006,0.379,111.17,102.5,40.533825,-3.434751,636.9,6,5,271.1,2.109
112.47,1,0.009,0.028,-0.008,-0.006,0.013,-0.006,-1.61,0.005,0.377,111.17,102.5,40.533825,-3.434751,636.9,6,5,271.1,2.109
112.57,1,0.003,-0.023,0.019,0.004,0.001,0.005,-1.611,0.005,0.374,111.17,102.5,40.533825,-3.434751,636.9,6,5,271.1,2.109
112.68,1,-0.027,0.005,-0.011,-0.006,-0.005,0.001,-1.61,0.005,0.372,111.17,102.5,40.533825,-3.434751,636.9,6,5,271.1,2.109
112.77,1,0.005,-0.01,0.003,-0.008,-0.0,-0.002,-1.609,0.005,0.37,111.17,102.5,40.533825,-3.434751,636.9,6,5,271.1,2.109
112.87,1,-0.017,0.006,-0.008,-0.008,-0.003,-0.003,-1.611,0.006,0.368,112.17,102.1,40.533825,-3.435087,637.7,6,5,270.4,1.055
112.98,1,-0.007,-0.003,0.016,-0.013,-0.002,0.003,-1.612,0.007,0.366,112.17,102.1,40.533825,-3.435087,637.7,6,5,270.4,1.055
113.08,1,0.018,0.011,0.004,0.002,0.004,0.01,-1.612,0.007,0.363,112.17,102.1,40.533825,-3.435087,637.7,6,5,270.4,1.055
113.17,1,-0.019,-0.0,-0.008,-0.002,0.003,-0.001,-1.612,0.007,0.361,112.17,102.1,40.533825,-3.435087,637.7,6,5,270.4,1.055
113.28,1,-0.002,0.006,0.013,-0.01,0.004,0.002,-1.613,0.007,0.359,112.17,102.1,40.533825,-3.435087,637.7,6,5,270.4,1.055
113.38,1,-0.014,0.028,-0.001,-0.005,0.01,0.006,-1.612,0.008,0.357,112.17,102.1,40.533825,-3.435087,637.7,6,5,270.4,1.055
113.48,1,-0.007,-0.019,0.0,-0.009,0.002,0.001,-1.613,0.01,0.354,112.17,102.1,40.533825,-3.435087,637.7,6,5,270.4,1.055
113.58,1,-0.05,-0.029,0.006,-0.027,-0.016,0.002,-1.613,0.008,0.352,112.17,102.1,40.533825,-3.435087,637.7,6,5,270.4,1.055
113.68,1,-0.04,-0.006,-0.0,-0.038,-0.011,0.004,-1.614,0.008,0.35,112.17,102.1,40.533825,-3.435087,637.7,6,5,270.4,1.055
113.78,1,0.012,0.029,-0.002,-0.015,0.007,-0.001,-1.614,0.007,0.347,112.17,102.1,40.533825,-3.435087,637.7,6,5,270.4,1.055
113.88,1,-0.019,0.01,-0.001,-0.007,0.012,-0.001,-1.615,0.005,0.345,113.24,101.6,40.533829,-3.43542,639.6,6,5,270.7,0.352
113.98,1,-0.044,-0.004,0.002,-0.03,0.004,0.0,-1.614,0.006,0.342,113.24,101.6,40.533829,-3.43542,639.6,6,5,270.7,0.352
114.08,1,0.021,-0.001,0.014,-0.009,0.0,0.005,-1.613,0.007,0.34,113.24,101.6,40.533829,-3.43542,639.6,6,5,270.7,0.352
114.18,1,-0.042,-0.016,-0.012,-0.014,-0.009,0.001,-1.612,0.01,0.338,113.24,101.6,40.533829,-3.43542,639.6,6,5,270.7,0.352
114.28,1,-0.037,0.012,-0.011,-0.037,-0.001,-0.008,-1.611,0.012,0.336,113.24,101.6,40.533829,-3.43542,639.6,6,5,270.7,0.352
114.38,1,-0.027,-0.049,0.014,-0.027,-0.015,0.001,-1.611,0.009,0.334,113.24,101.6,40.533829,-3.43542,639.6,6,5,270.7,0.352
114.48,1,-0.031,-0.002,-0.006,-0.033,-0.02,0.0,-1.612,0.007,0.332,113.24,101.6,40.533829,-3.43542,639.6,6,5,270.7,0.352
114.58,1,-0.004,0.002,-0.001,-0.017,-0.005,0.001,-1.611,0.006,0.33,113.24,101.6,40.533829,-3.43542,639.6,6,5,270.7,0.352
114.68,1,0.021,0.013,-0.021,0.008,0.006,-0.011,-1.609,0.007,0.328,113.24,101.6,40.533829,-3.43542,639.6,6,5,270.7,0.352
114.78,1,-0.054,-0.016,-0.003,-0.019,0.003,-0.011,-1.609,0.009,0.326,113.24,101.6,40.533829,-3.43542,639.6,6,5,270.7,0.352
114.88,1,-0.011,-0.013,-0.003,-0.028,-0.009,-0.005,-1.61,0.01,0.324,114.17,101.1,40.533833,-3.435741,641.2,6,5,269.6,1.055
114.98,1,-0.01,-0.014,0.008,-0.021,-0.015,0.001,-1.61,0.01,0.323,114.17,101.1,40.533833,-3.435741,641.2,6,5,269.6,1.055
115.08,1,-0.002,-0.0,0.013,0.001,-0.007,0.006,-1.61,0.01,0.321,114.17,101.1,40.533833,-3.435741,641.2,6,5,269.6,1.055
115.18,1,-0.022,-0.052,0.001,-0.012,-0.029,0.007,-1.61,0.008,0.319,114.17,101.1,40.533833,-3.435741,641.2,6,5,269.6,1.055
115.28,1,-0.042,-0.024,-0.004,-0.031,-0.028,0.0,-1.611,0.009,0.317,114.17,101.1,40.533833,-3.435741,641.2,6,5,269.6,1.055
115.38,1,-0.028,-0.021,0.016,-0.03,-0.028,0.005,-1.611,0.012,0.316,114.17,101.1,40.533833,-3.435741,641.2,6,5,269.6,1.055
115.48,1,-0.019,-0.048,0.027,-0.029,-0.031,0.015,-1.612,0.013,0.314,114.17,101.1,40.533833,-3.435741,641.2,6,5,269.6,1.055
115.58,1,0.016,-0.021,0.001,-0.004,-0.032,0.017,-1.615,0.015,0.313,114.17,101.1,40.533833,-3.435741,641.2,6,5,269.6,1.055
115.69,1,-0.006,-0.029,0.007,-0.002,-0.03,0.006,-1.615,0.015,0.312,114.17,101.1,40.533833,-3.435741,641.2,6,5,269.6,1.055
115.79,1,-0.006,-0.026,0.007,-0.002,-0.024,0.005,-1.616,0.014,0.311,114.17,101.1,40.533833,-3.435741,641.2,6,5,269.6,1.055
115.89,1,-0.001,-0.04,0.022,-0.005,-0.033,0.014,-1.618,0.015,0.31,115.18,102.2,40.533829,-3.43608,642.6,6,5,269.6,1.055
115.98,1,0.002,0.009,0.028,-0.006,-0.021,0.021,-1.62,0.013,0.308,115.18,102.2,40.533829,-3.43608,642.6,6,5,269.6,1.055
116.08,1,0.013,-0.022,0.003,0.009,-0.015,0.02,-1.622,0.012,0.307,115.18,102.2,40.533829,-3.43608,642.6,6,5,269.6,1.055
116.19,1,-0.023,-0.026,0.002,-0.008,-0.027,0.008,-1.623,0.009,0.305,115.18,102.2,40.533829,-3.43608,642.6,6,5,269.6,1.055
116.28,1,-0.009,-0.028,0.016,-0.01,-0.018,0.007,-1.624,0.009,0.303,115.18,102.2,40.533829,-3.43608,642.6,6,5,269.6,1.055
116.39,1,0.027,-0.023,0.019,0.004,-0.024,0.015,-1.625,0.009,0.302,115.18,102.2,40.533829,-3.43608,642.6,6,5,269.6,1.055
116.49,1,-0.001,-0.014,-0.003,0.01,-0.022,0.009,-1.625,0.008,0.3,115.18,102.2,40.533829,-3.43608,642.6,6,5,269.6,1.055
116.59,1,-0.023,0.016,0.012,-0.006,0.0,0.006,-1.624,0.008,0.297,115.18,102.2,40.533829,-3.43608,642.6,6,5,269.6,1.055
116.69,1,-0.069,0.012,0.011,-0.033,0.007,0.011,-1.626,0.006,0.295,115.18,102.2,40.533829,-3.43608,642.6,6,5,269.6,1.055
116.79,1,-0.061,0.014,0.01,-0.059,0.014,0.01,-1.626,0.002,0.292,115.18,102.2,40.533829,-3.43608,642.6,6,5,269.6,1.055
116.9,1,-0.003,0.011,0.025,-0.037,0.012,0.016,-1.628,-0.001,0.289,116.18,101.3,40.533829,-3.436418,644.0,6,5,269.6,0.0
116.99,1,0.051,0.006,0.023,0.015,0.008,0.021,-1.63,-0.003,0.287,116.18,101.3,40.533829,-3.436418,644.0,6,5,269.6,0.0
117.1,1,0.042,-0.002,-0.009,0.031,0.002,0.009,-1.63,-0.003,0.285,116.18,101.3,40.533829,-3.436418,644.0,6,5,269.6,0.0
117.19,1,0.017,0.023,0.017,0.033,0.012,0.007,-1.629,-0.001,0.282,116.18,101.3,40.533829,-3.436418,644.0,6,5,269.6,0.0
117.29,1,-0.027,0.003,0.01,-0.001,0.008,0.014,-1.63,-0.001,0.28,116.18,101.3,40.533829,-3.436418,644.0,6,5,269.6,0.0
117.39,1,-0.051,0.02,0.002,-0.028,0.016,0.009,-1.629,-0.002,0.278,116.18,101.3,40.533829,-3.436418,644.0,6,5,269.6,0.0
117.49,1,-0.045,-0.009,0.016,-0.039,0.009,0.005,-1.63,-0.002,0.276,116.18,101.3,40.533829,-3.436418,644.0,6,5,269.6,0.0
117.6,1,-0.013,-0.003,0.01,-0.034,-0.003,0.011,-1.63,-0.003,0.274,116.18,101.3,40.533829,-3.436418,644.0,6,5,269.6,0.0
117.69,1,-0.012,0.013,0.003,-0.015,0.003,0.005,-1.63,-0.002,0.272,116.18,101.3,40.533829,-3.436418,644.0,6,5,269.6,0.0
117.79,1,-0.007,-0.024,0.006,-0.013,-0.009,0.008,-1.634,-0.001,0.27,116.18,101.3,40.533829,-3.436418,644.0,6,5,269.6,0.0
117.89,1,-0.044,-0.011,0.007,-0.022,-0.015,0.009,-1.636,-0.001,0.269,117.16,101.8,40.533817,-3.436759,645.5,8,5,269.3,0.352
117.99,1,-0.008,-0.007,0.012,-0.028,-0.011,0.008,-1.638,-0.002,0.267,117.16,101.8,40.533817,-3.436759,645.5,8,5,269.3,0.352
118.1,1,0.019,0.004,0.0,0.003,0.001,0.005,-1.639,-0.003,0.265,117.16,101.8,40.533817,-3.436759,645.5,8,5,269.3,0.352
118.19,1,-0.009,-0.041,0.009,-0.002,-0.014,0.005,-1.638,-0.0,0.264,117.16,101.8,40.533817,-3.436759,645.5,8,5,269.3,0.352
118.29,1,-0.0,-0.043,0.006,-0.001,-0.033,0.008,-1.638,0.004,0.263,117.16,101.8,40.533817,-3.436759,645.5,8,5,269.3,0.352
118.39,1,0.0,-0.042,0.013,0.001,-0.037,0.009,-1.638,0.005,0.263,117.16,101.8,40.533817,-3.436759,645.5,8,5,269.3,0.352
118.49,1,-0.014,-0.051,0.008,-0.006,-0.047,0.008,-1.638,0.007,0.263,117.16,101.8,40.533817,-3.436759,645.5,8,5,269.3,0.352
118.59,1,-0.027,-0.041,0.01,-0.019,-0.046,0.012,-1.639,0.011,0.262,117.16,101.8,40.533817,-3.436759,645.5,8,5,269.3,0.352
118.7,1,0.014,-0.029,0.018,-0.004,-0.038,0.012,-1.638,0.012,0.262,117.16,101.8,40.533817,-3.436759,645.5,8,5,269.3,0.352
118.79,1,-0.028,-0.007,0.012,-0.01,-0.022,0.017,-1.639,0.013,0.261,117.16,101.8,40.533817,-3.436759,645.5,8,5,269.3,0.352
118.89,1,0.024,0.012,0.001,-0.002,-0.003,0.005,-1.64,0.014,0.259,118.19,102.5,40.53381,-3.437101,646.9,6,5,269.6,0.352
118.99,1,0.01,0.002,0.003,0.013,-0.001,0.005,-1.639,0.011,0.258,118.19,102.5,40.53381,-3.437101,646.9,6,5,269.6,0.352
119.09,1,-0.045,-0.009,0.006,-0.016,-0.007,0.004,-1.64,0.012,0.257,118.19,102.5,40.53381,-3.437101,646.9,6,5,269.6,0.352
119.19,1,-0.008,-0.006,-0.011,-0.018,-0.005,-0.003,-1.639,0.008,0.255,118.19,102.5,40.53381,-3.437101,646.9,6,5,269.6,0.352
119.29,1,0.016,0.008,0.018,0.004,0.005,0.007,-1.641,0.008,0.254,118.19,102.5,40.53381,-3.437101,646.9,6,5,269.6,0.352
119.39,1,-0.049,-0.015,-0.002,-0.018,-0.002,0.005,-1.641,0.007,0.253,118.19,102.5,40.53381,-3.437101,646.9,6,5,269.6,0.352
119.51,1,0.008,-0.005,0.012,-0.019,-0.008,0.006,-1.641,0.005,0.251,118.19,102.5,40.53381,-3.437101,646.9,6,5,269.6,0.352
119.6,1,-0.006,0.016,0.006,-0.004,0.007,0.007,-1.642,0.005,0.25,118.19,102.5,40.53381,-3.437101,646.9,6,5,269.6,0.352
119.7,1,0.014,-0.002,-0.0,-0.004,-0.0,0.005,-1.642,0.005,0.248,118.19,102.5,40.53381,-3.437101,646.9,6,5,269.6,0.352
119.8,1,0.018,0.001,0.012,0.013,-0.001,0.005,-1.643,0.004,0.247,118.19,102.5,40.53381,-3.437101,646.9,6,5,269.6,0.352
119.9,1,0.014,-0.012,0.001,0.009,-0.004,0.007,-1.642,0.002,0.246,119.17,103.5,40.533806,-3.437439,648.1,6,5,269.6,0.352
120.0,1,0.003,-0.001,-0.012,0.015,-0.001,-0.001,-1.643,0.001,0.244,119.17,103.5,40.533806,-3.437439,648.1,6,5,269.6,0.352
120.1,1,-0.023,0.004,0.007,0.0,0.002,-0.005,-1.641,0.0,0.242,119.17,103.5,40.533806,-3.437439,648.1,6,5,269.6,0.352
120.2,1,-0.022,-0.003,0.012,-0.019,-0.004,0.005,-1.641,-0.001,0.241,119.17,103.5,40.533806,-3.437439,648.1,6,5,269.6,0.352
120.3,1,-0.02,0.004,-0.001,-0.019,-0.001,0.006,-1.641,-0.002,0.24,119.17,103.5,40.533806,-3.437439,648.1,6,5,269.6,0.352
120.4,1,-0.021,-0.005,-0.004,-0.022,0.002,0.001,-1.641,-0.001,0.238,119.17,103.5,40.533806,-3.437439,648.1,6,5,269.6,0.352
120.51,1,0.018,-0.014,0.011,-0.005,-0.005,0.003,-1.64,-0.001,0.237,119.17,103.5,40.533806,-3.437439,648.1,6,5,269.6,0.352
120.6,1,0.028,-0.021,0.009,0.012,-0.014,0.009,-1.639,-0.0,0.236,119.17,103.5,40.533806,-3.437439,648.1,6,5,269.6,0.352
120.71,1,-0.006,-0.042,0.001,0.009,-0.027,0.007,-1.64,0.003,0.236,119.17,103.5,40.533806,-3.437439,648.1,6,5,269.6,0.352
120.8,1,0.013,-0.02,0.006,0.005,-0.028,0.005,-1.64,0.006,0.236,119.17,103.5,40.533806,-3.437439,648.1,6,5,269.6,0.352
120.9,1,0.03,-0.027,-0.01,0.018,-0.028,0.001,-1.638,0.008,0.235,120.18,104.5,40.533806,-3.437784,649.9,6,5,269.6,0.0
121.0,1,0.019,-0.0,-0.003,0.023,-0.02,-0.009,-1.638,0.009,0.234,120.18,104.5,40.533806,-3.437784,649.9,6,5,269.6,0.0
121.1,1,-0.013,-0.017,0.011,0.004,-0.011,0.0,-1.638,0.009,0.233,120.18,104.5,40.533806,-3.437784,649.9,6,5,269.6,0.0
121.31,1,0.015,0.019,0.007,0.018,0.006,0.012,-1.641,0.005,0.231,120.18,104.5,40.533806,-3.437784,649.9,6,5,269.6,0.0
121.41,1,-0.024,0.012,-0.019,-0.005,0.009,-0.001,-1.638,0.003,0.229,120.18,104.5,40.533806,-3.437784,649.9,6,5,269.6,0.0
121.5,1,-0.006,0.016,0.006,-0.007,0.014,-0.006,-1.639,0.002,0.228,120.18,104.5,40.533806,-3.437784,649.9,6,5,269.6,0.0
121.6,1,-0.013,0.002,0.016,-0.011,0.009,0.008,-1.639,-0.002,0.226,120.18,104.5,40.533806,-3.437784,649.9,6,5,269.6,0.0
121.72,1,-0.004,0.007,-0.002,-0.008,0.01,0.006,-1.638,-0.001,0.224,120.18,104.5,40.533806,-3.437784,649.9,6,5,269.6,0.0
121.8,1,0.042,-0.031,0.011,0.015,-0.01,0.0,-1.639,-0.0,0.223,120.18,104.5,40.533806,-3.437784,649.9,6,5,269.6,0.0
121.91,1,-0.018,0.014,0.006,0.008,-0.003,0.01,-1.638,-0.003,0.221,120.18,104.5,40.533806,-3.437784,649.9,6,5,269.6,0.0
122.0,1,0.039,0.017,0.003,0.012,0.007,0.006,-1.638,-0.004,0.22,121.17,104.5,40.533802,-3.438132,651.6,6,5,269.3,0.352
122.1,1,0.022,0.003,-0.002,0.024,0.007,0.002,-1.636,-0.004,0.219,121.17,104.5,40.533802,-3.438132,651.6,6,5,269.3,0.352
122.21,1,-0.03,-0.024,-0.02,0.007,-0.006,-0.008,-1.633,-0.005,0.218,121.17,104.5,40.533802,-3.438132,651.6,6,5,269.3,0.352
122.3,1,-0.027,-0.023,0.018,-0.017,-0.018,-0.002,-1.633,-0.004,0.217,121.17,104.5,40.533802,-3.438132,651.6,6,5,269.3,0.352
122.41,1,-0.005,0.002,0.005,-0.018,-0.006,0.007,-1.633,-0.004,0.216,121.17,104.5,40.533802,-3.438132,651.6,6,5,269.3,0.352
122.52,1,0.053,-0.012,0.012,0.014,-0.008,0.011,-1.634,-0.001,0.215,121.17,104.5,40.533802,-3.438132,651.6,6,5,269.3,0.352
122.61,1,0.023,-0.016,-0.01,0.033,-0.015,-0.0,-1.634,-0.0,0.215,121.17,104.5,40.533802,-3.438132,651.6,6,5,269.3,0.352
122.71,1,-0.007,-0.025,0.004,0.015,-0.022,0.005,-1.635,0.001,0.214,121.17,104.5,40.533802,-3.438132,651.6,6,5,269.3,0.352
122.81,1,-0.041,-0.014,0.003,-0.018,-0.016,0.0,-1.635,0.001,0.214,121.17,104.5,40.533802,-3.438132,651.6,6,5,269.3,0.352
