Timestamp_Accel,SystemActivated,accelerometerXAxis,accelerometerYAxis,accelerometerZAxis,AccelX_KF,AccelY_KF,AccelZ_KF,gyroscopeXAxis,gyroscopeYAxis,gyroscopeZAxis,Timestamp_GPS,Speed,latitude,longitude,Altitude,VerticalAccuracy,HorizontalAccuracy,Course,Difcourse
11.84,1,0.023,0.018,0.002,0.008,0.009,0.024,-1.683,-0.004,-0.064,11.83,62.7,40.584526,-3.556388,606.7,4,5,91.1,1.758
11.95,1,0.042,0.01,0.021,0.023,0.011,0.009,-1.68,-0.004,-0.062,11.83,62.7,40.584526,-3.556388,606.7,4,5,91.1,1.758
12.05,1,0.035,0.037,0.026,0.026,0.027,0.023,-1.679,-0.003,-0.062,11.83,62.7,40.584526,-3.556388,606.7,4,5,91.1,1.758
12.15,1,-0.011,-0.021,-0.127,0.025,0.007,-0.029,-1.676,-0.005,-0.06,11.83,62.7,40.584526,-3.556388,606.7,4,5,91.1,1.758
12.25,1,-0.033,0.007,-0.133,-0.009,0.012,-0.092,-1.671,-0.006,-0.06,11.83,62.7,40.584526,-3.556388,606.7,4,5,91.1,1.758
12.35,1,-0.129,0.017,-0.172,-0.072,-0.0,-0.144,-1.67,-0.006,-0.058,11.83,62.7,40.584526,-3.556388,606.7,4,5,91.1,1.758
12.45,1,-0.093,-0.073,-0.141,-0.095,-0.008,-0.152,-1.673,-0.005,-0.056,11.83,62.7,40.584526,-3.556388,606.7,4,5,91.1,1.758
12.56,1,-0.03,0.034,-0.123,-0.063,-0.016,-0.135,-1.675,-0.006,-0.055,11.83,62.7,40.584526,-3.556388,606.7,4,5,91.1,1.758
12.66,1,0.001,-0.023,-0.122,-0.02,-0.011,-0.118,-1.675,-0.007,-0.054,11.83,62.7,40.584526,-3.556388,606.7,4,5,91.1,1.758
12.75,1,0.082,0.003,-0.157,0.022,-0.007,-0.135,-1.665,-0.009,-0.053,11.83,62.7,40.584526,-3.556388,606.7,4,5,91.1,1.758
12.85,1,0.043,-0.002,-0.121,0.037,-0.005,-0.135,-1.646,-0.009,-0.051,12.82,67.1,40.58453,-3.556175,607.3,4,5,91.4,1.406
12.95,1,-0.013,0.009,-0.094,0.019,0.003,-0.12,-1.633,-0.012,-0.049,12.82,67.1,40.58453,-3.556175,607.3,4,5,91.4,1.406
13.05,1,-0.035,0.025,-0.084,-0.006,0.016,-0.098,-1.619,-0.009,-0.047,12.82,67.1,40.58453,-3.556175,607.3,4,5,91.4,1.406
13.15,1,-0.019,-0.006,-0.106,-0.026,0.013,-0.101,-1.603,-0.005,-0.045,12.82,67.1,40.58453,-3.556175,607.3,4,5,91.4,1.406
13.26,1,0.006,-0.033,-0.071,-0.009,-0.013,-0.093,-1.596,-0.003,-0.043,12.82,67.1,40.58453,-3.556175,607.3,4,5,91.4,1.406
13.35,1,0.024,0.019,0.071,0.012,-0.009,-0.02,-1.593,-0.001,-0.042,12.82,67.1,40.58453,-3.556175,607.3,4,5,91.4,1.406
13.45,1,0.021,-0.001,0.008,0.015,-0.002,0.017,-1.595,0.0,-0.04,12.82,67.1,40.58453,-3.556175,607.3,4,5,91.4,1.406
13.55,1,0.027,-0.013,0.071,0.024,-0.005,0.032,-1.597,-0.0,-0.037,12.82,67.1,40.58453,-3.556175,607.3,4,5,91.4,1.406
13.65,1,0.038,-0.012,0.065,0.027,-0.01,0.052,-1.601,-0.003,-0.035,12.82,67.1,40.58453,-3.556175,607.3,4,5,91.4,1.406
13.75,1,-0.036,-0.026,0.032,0.003,-0.015,0.05,-1.604,-0.006,-0.033,12.82,67.1,40.58453,-3.556175,607.3,4,5,91.4,1.406
13.86,1,0.001,-0.01,0.055,-0.002,-0.008,0.049,-1.609,-0.005,-0.03,13.82,66.1,40.58453,-3.555962,607.8,4,5,89.6,1.758
13.95,1,0.024,-0.004,0.055,0.007,-0.013,0.057,-1.609,-0.003,-0.027,13.82,66.1,40.58453,-3.555962,607.8,4,5,89.6,1.758
14.06,1,0.069,-0.067,0.082,0.03,-0.03,0.067,-1.608,-0.001,-0.023,13.82,66.1,40.58453,-3.555962,607.8,4,5,89.6,1.758
14.15,1,0.035,-0.005,0.035,0.046,-0.023,0.055,-1.606,0.001,-0.02,13.82,66.1,40.58453,-3.555962,607.8,4,5,89.6,1.758
14.26,1,-0.116,0.036,0.008,-0.016,-0.007,0.035,-1.608,0.004,-0.017,13.82,66.1,40.58453,-3.555962,607.8,4,5,89.6,1.758
14.36,1,-0.126,0.001,0.03,-0.087,0.012,0.019,-1.621,0.009,-0.014,13.82,66.1,40.58453,-3.555962,607.8,4,5,89.6,1.758
14.45,1,-0.061,0.026,0.066,-0.085,0.017,0.043,-1.627,0.012,-0.011,13.82,66.1,40.58453,-3.555962,607.8,4,5,89.6,1.758
14.55,1,0.022,-0.02,0.009,-0.038,0.007,0.035,-1.626,0.017,-0.009,13.82,66.1,40.58453,-3.555962,607.8,4,5,89.6,1.758
14.66,1,0.013,0.021,0.024,-0.012,-0.004,0.021,-1.627,0.02,-0.008,13.82,66.1,40.58453,-3.555962,607.8,4,5,89.6,1.758
14.76,1,0.013,0.015,0.056,0.01,0.014,0.041,-1.629,0.023,-0.007,13.82,66.1,40.58453,-3.555962,607.8,4,5,89.6,1.758
14.86,1,0.058,0.039,0.032,0.027,0.025,0.031,-1.628,0.025,-0.007,14.81,66.7,40.584522,-3.555738,608.3,4,5,88.2,3.164
14.95,1,0.028,0.042,0.068,0.044,0.034,0.049,-1.626,0.028,-0.007,14.81,66.7,40.584522,-3.555738,608.3,4,5,88.2,3.164
15.06,1,-0.012,0.054,0.006,0.017,0.045,0.039,-1.623,0.028,-0.008,14.81,66.7,40.584522,-3.555738,608.3,4,5,88.2,3.164
15.15,1,-0.037,0.047,0.03,-0.003,0.054,0.026,-1.622,0.031,-0.01,14.81,66.7,40.584522,-3.555738,608.3,4,5,88.2,3.164
15.25,1,-0.006,0.076,0.039,-0.021,0.054,0.04,-1.623,0.033,-0.011,14.81,66.7,40.584522,-3.555738,608.3,4,5,88.2,3.164
15.36,1,-0.008,0.063,0.021,-0.026,0.061,0.033,-1.622,0.035,-0.013,14.81,66.7,40.584522,-3.555738,608.3,4,5,88.2,3.164
15.46,1,0.014,0.042,0.053,0.012,0.057,0.036,-1.628,0.03,-0.014,14.81,66.7,40.584522,-3.555738,608.3,4,5,88.2,3.164
15.56,1,0.038,0.079,0.013,0.027,0.066,0.031,-1.631,0.026,-0.016,14.81,66.7,40.584522,-3.555738,608.3,4,5,88.2,3.164
15.66,1,-0.001,0.049,0.002,0.006,0.055,0.012,-1.628,0.019,-0.017,14.81,66.7,40.584522,-3.555738,608.3,4,5,88.2,3.164
15.76,1,-0.034,0.047,0.021,-0.009,0.051,0.014,-1.635,0.016,-0.019,14.81,66.7,40.584522,-3.555738,608.3,4,5,88.2,3.164
15.86,1,-0.058,0.05,-0.011,-0.039,0.051,0.004,-1.638,0.02,-0.021,15.82,69.0,40.584526,-3.555519,608.8,4,5,87.2,2.461
15.96,1,-0.049,0.028,0.048,-0.048,0.036,0.019,-1.64,0.022,-0.023,15.82,69.0,40.584526,-3.555519,608.8,4,5,87.2,2.461
16.06,1,0.04,0.045,0.022,-0.005,0.047,0.031,-1.64,0.021,-0.026,15.82,69.0,40.584526,-3.555519,608.8,4,5,87.2,2.461
16.16,1,0.074,0.058,-0.002,0.035,0.051,0.014,-1.64,0.019,-0.03,15.82,69.0,40.584526,-3.555519,608.8,4,5,87.2,2.461
16.26,1,0.019,0.096,-0.06,0.038,0.065,-0.011,-1.638,0.019,-0.033,15.82,69.0,40.584526,-3.555519,608.8,4,5,87.2,2.461
16.36,1,-0.069,0.096,-0.124,-0.011,0.089,-0.077,-1.636,0.021,-0.037,15.82,69.0,40.584526,-3.555519,608.8,4,5,87.2,2.461
16.46,1,-0.093,0.089,-0.087,-0.053,0.093,-0.095,-1.635,0.024,-0.04,15.82,69.0,40.584526,-3.555519,608.8,4,5,87.2,2.461
16.56,1,-0.046,0.101,-0.103,-0.064,0.086,-0.091,-1.626,0.023,-0.044,15.82,69.0,40.584526,-3.555519,608.8,4,5,87.2,2.461
16.67,1,0.014,0.067,-0.094,-0.028,0.08,-0.091,-1.625,0.027,-0.048,15.82,69.0,40.584526,-3.555519,608.8,4,5,87.2,2.461
16.76,1,0.014,0.061,-0.11,-0.003,0.072,-0.104,-1.624,0.03,-0.052,15.82,69.0,40.584526,-3.555519,608.8,4,5,87.2,2.461
16.87,1,-0.005,0.069,-0.083,0.003,0.07,-0.096,-1.624,0.03,-0.057,16.81,73.1,40.584526,-3.555283,609.3,4,5,87.2,1.055
16.97,1,-0.014,0.095,-0.083,-0.007,0.077,-0.092,-1.612,0.021,-0.062,16.81,73.1,40.584526,-3.555283,609.3,4,5,87.2,1.055
17.06,1,-0.035,0.064,-0.084,-0.023,0.085,-0.085,-1.599,0.013,-0.066,16.81,73.1,40.584526,-3.555283,609.3,4,5,87.2,1.055
17.16,1,0.026,0.105,-0.033,0.0,0.09,-0.068,-1.589,0.01,-0.071,16.81,73.1,40.584526,-3.555283,609.3,4,5,87.2,1.055
17.27,1,-0.005,0.065,-0.089,-0.001,0.076,-0.069,-1.588,0.012,-0.075,16.81,73.1,40.584526,-3.555283,609.3,4,5,87.2,1.055
17.36,1,0.038,0.039,-0.02,0.014,0.053,-0.053,-1.588,0.011,-0.08,16.81,73.1,40.584526,-3.555283,609.3,4,5,87.2,1.055
17.46,1,0.036,0.06,-0.055,0.031,0.069,-0.038,-1.587,0.008,-0.086,16.81,73.1,40.584526,-3.555283,609.3,4,5,87.2,1.055
17.56,1,0.019,0.078,-0.108,0.022,0.061,-0.078,-1.585,0.005,-0.091,16.81,73.1,40.584526,-3.555283,609.3,4,5,87.2,1.055
17.66,1,0.027,0.07,-0.064,0.03,0.068,-0.08,-1.584,0.002,-0.096,16.81,73.1,40.584526,-3.555283,609.3,4,5,87.2,1.055
17.76,1,-0.053,0.065,-0.091,-0.006,0.067,-0.073,-1.584,-0.0,-0.101,16.81,73.1,40.584526,-3.555283,609.3,4,5,87.2,1.055
17.86,1,-0.179,0.099,-0.007,-0.08,0.08,-0.062,-1.591,-0.001,-0.105,17.81,74.2,40.58453,-3.555035,609.7,4,5,88.9,1.758
17.96,1,-0.138,0.121,0.027,-0.127,0.094,-0.006,-1.6,0.001,-0.111,17.81,74.2,40.58453,-3.555035,609.7,4,5,88.9,1.758
18.07,1,0.025,0.085,0.01,-0.084,0.107,0.007,-1.603,0.006,-0.114,17.81,74.2,40.58453,-3.555035,609.7,4,5,88.9,1.758
18.17,1,0.105,0.027,0.052,0.02,0.076,0.026,-1.601,0.012,-0.117,17.81,74.2,40.58453,-3.555035,609.7,4,5,88.9,1.758
18.26,1,0.116,0.049,0.026,0.079,0.052,0.027,-1.597,0.015,-0.121,17.81,74.2,40.58453,-3.555035,609.7,4,5,88.9,1.758
18.36,1,0.039,0.041,0.023,0.086,0.037,0.038,-1.596,0.013,-0.126,17.81,74.2,40.58453,-3.555035,609.7,4,5,88.9,1.758
18.46,1,-0.039,0.069,-0.014,0.013,0.053,0.005,-1.596,-0.003,-0.13,17.81,74.2,40.58453,-3.555035,609.7,4,5,88.9,1.758
18.57,1,-0.077,0.023,0.037,-0.039,0.047,0.01,-1.602,-0.009,-0.133,17.81,74.2,40.58453,-3.555035,609.7,4,5,88.9,1.758
18.67,1,-0.048,0.002,0.053,-0.041,0.027,0.037,-1.604,-0.012,-0.136,17.81,74.2,40.58453,-3.555035,609.7,4,5,88.9,1.758
18.77,1,-0.035,-0.0,0.019,-0.045,0.006,0.032,-1.605,-0.013,-0.14,17.81,74.2,40.58453,-3.555035,609.7,4,5,88.9,1.758
18.87,1,-0.02,0.006,0.039,-0.031,0.004,0.035,-1.605,-0.015,-0.144,18.82,72.3,40.584515,-3.554796,609.5,4,5,91.1,3.867
18.97,1,0.0,0.06,0.02,-0.009,0.025,0.032,-1.606,-0.017,-0.148,18.82,72.3,40.584515,-3.554796,609.5,4,5,91.1,3.867
19.07,1,-0.042,0.047,0.006,-0.025,0.049,0.017,-1.613,-0.016,-0.151,18.82,72.3,40.584515,-3.554796,609.5,4,5,91.1,3.867
19.17,1,0.011,0.01,0.027,-0.018,0.031,0.017,-1.612,-0.016,-0.154,18.82,72.3,40.584515,-3.554796,609.5,4,5,91.1,3.867
19.27,1,0.001,0.005,0.026,-0.001,0.016,0.03,-1.618,-0.021,-0.158,18.82,72.3,40.584515,-3.554796,609.5,4,5,91.1,3.867
19.37,1,-0.003,0.014,-0.006,-0.003,0.005,0.009,-1.619,-0.022,-0.161,18.82,72.3,40.584515,-3.554796,609.5,4,5,91.1,3.867
19.48,1,-0.015,-0.001,0.009,0.0,0.01,0.004,-1.619,-0.023,-0.165,18.82,72.3,40.584515,-3.554796,609.5,4,5,91.1,3.867
19.57,1,-0.014,0.037,0.0,-0.011,0.014,0.003,-1.617,-0.027,-0.168,18.82,72.3,40.584515,-3.554796,609.5,4,5,91.1,3.867
19.67,1,-0.005,-0.001,0.028,-0.011,0.019,0.02,-1.617,-0.029,-0.172,18.82,72.3,40.584515,-3.554796,609.5,4,5,91.1,3.867
19.77,1,0.008,0.025,0.0,-0.005,0.022,0.013,-1.617,-0.029,-0.175,18.82,72.3,40.584515,-3.554796,609.5,4,5,91.1,3.867
19.87,1,-0.019,0.012,-0.011,-0.004,0.015,-0.002,-1.618,-0.03,-0.179,19.81,73.8,40.584503,-3.554574,610.0,4,5,93.9,4.922
19.99,1,-0.027,0.041,0.01,-0.022,0.026,-0.003,-1.619,-0.029,-0.182,19.81,73.8,40.584503,-3.554574,610.0,4,5,93.9,4.922
20.07,1,0.002,-0.006,0.024,-0.007,0.016,0.013,-1.619,-0.028,-0.185,19.81,73.8,40.584503,-3.554574,610.0,4,5,93.9,4.922
20.17,1,-0.004,-0.013,0.037,-0.011,-0.01,0.022,-1.62,-0.028,-0.187,19.81,73.8,40.584503,-3.554574,610.0,4,5,93.9,4.922
20.27,1,-0.023,-0.025,-0.002,-0.012,-0.013,0.021,-1.619,-0.027,-0.188,19.81,73.8,40.584503,-3.554574,610.0,4,5,93.9,4.922
20.37,1,0.013,-0.011,0.024,-0.006,-0.015,0.013,-1.62,-0.026,-0.189,19.81,73.8,40.584503,-3.554574,610.0,4,5,93.9,4.922
20.47,1,0.02,-0.035,0.014,0.013,-0.022,0.021,-1.619,-0.025,-0.191,19.81,73.8,40.584503,-3.554574,610.0,4,5,93.9,4.922
20.58,1,-0.051,-0.016,-0.012,-0.012,-0.017,0.001,-1.619,-0.025,-0.192,19.81,73.8,40.584503,-3.554574,610.0,4,5,93.9,4.922
20.67,1,0.004,-0.054,0.024,-0.016,-0.028,0.0,-1.62,-0.025,-0.194,19.81,73.8,40.584503,-3.554574,610.0,4,5,93.9,4.922
20.77,1,-0.046,-0.001,-0.005,-0.023,-0.029,0.01,-1.621,-0.026,-0.196,19.81,73.8,40.584503,-3.554574,610.0,4,5,93.9,4.922
20.98,1,0.036,0.035,-0.01,0.019,0.022,0.009,-1.619,-0.023,-0.199,20.85,75.6,40.584488,-3.554337,610.3,4,5,94.9,3.867
21.07,1,-0.056,0.024,-0.016,-0.005,0.014,-0.005,-1.619,-0.019,-0.2,20.85,75.6,40.584488,-3.554337,610.3,4,5,94.9,3.867
21.18,1,-0.065,-0.015,-0.006,-0.05,0.005,-0.007,-1.621,-0.017,-0.202,20.85,75.6,40.584488,-3.554337,610.3,4,5,94.9,3.867
21.28,1,-0.061,-0.052,0.029,-0.037,-0.024,0.004,-1.623,-0.018,-0.204,20.85,75.6,40.584488,-3.554337,610.3,4,5,94.9,3.867
21.37,1,0.017,0.027,-0.039,-0.03,-0.008,-0.015,-1.624,-0.022,-0.207,20.85,75.6,40.584488,-3.554337,610.3,4,5,94.9,3.867
21.47,1,0.032,0.017,0.022,-0.0,0.011,0.0,-1.622,-0.025,-0.209,20.85,75.6,40.584488,-3.554337,610.3,4,5,94.9,3.867
21.57,1,-0.019,-0.007,0.001,-0.002,0.003,0.0,-1.621,-0.025,-0.211,20.85,75.6,40.584488,-3.554337,610.3,4,5,94.9,3.867
21.67,1,-0.046,0.009,-0.022,-0.026,0.013,-0.006,-1.622,-0.024,-0.212,20.85,75.6,40.584488,-3.554337,610.3,4,5,94.9,3.867
21.78,1,-0.002,-0.012,0.047,-0.016,-0.005,0.018,-1.624,-0.023,-0.214,20.85,75.6,40.584488,-3.554337,610.3,4,5,94.9,3.867
21.87,1,-0.001,-0.014,0.017,-0.007,-0.016,0.026,-1.632,-0.018,-0.216,20.85,75.6,40.584488,-3.554337,610.3,4,5,94.9,3.867
21.97,1,0.012,0.021,-0.006,-0.0,0.004,0.007,-1.637,-0.015,-0.218,21.85,78.0,40.584465,-3.55408,610.6,4,5,96.3,2.461
22.08,1,-0.025,-0.012,-0.016,-0.008,-0.001,0.002,-1.637,-0.015,-0.219,21.85,78.0,40.584465,-3.55408,610.6,4,5,96.3,2.461
22.18,1,-0.004,-0.033,-0.0,0.0,-0.018,-0.007,-1.638,-0.014,-0.22,21.85,78.0,40.584465,-3.55408,610.6,4,5,96.3,2.461
22.28,1,-0.067,-0.026,-0.034,-0.035,-0.02,-0.013,-1.638,-0.013,-0.221,21.85,78.0,40.584465,-3.55408,610.6,4,5,96.3,2.461
22.39,1,-0.04,-0.001,0.007,-0.046,-0.008,-0.017,-1.64,-0.015,-0.223,21.85,78.0,40.584465,-3.55408,610.6,4,5,96.3,2.461
22.49,1,0.001,0.015,0.003,-0.026,-0.003,0.002,-1.64,-0.017,-0.225,21.85,78.0,40.584465,-3.55408,610.6,4,5,96.3,2.461
22.58,1,0.022,0.022,-0.013,0.005,0.012,-0.004,-1.639,-0.018,-0.226,21.85,78.0,40.584465,-3.55408,610.6,4,5,96.3,2.461
22.68,1,-0.039,0.013,-0.02,-0.011,0.017,-0.01,-1.638,-0.017,-0.227,21.85,78.0,40.584465,-3.55408,610.6,4,5,96.3,2.461
22.78,1,0.024,-0.011,0.003,-0.002,0.007,-0.012,-1.636,-0.014,-0.228,21.85,78.0,40.584465,-3.55408,610.6,4,5,96.3,2.461
22.88,1,0.008,-0.002,-0.036,0.004,-0.005,-0.015,-1.635,-0.014,-0.229,21.85,78.0,40.584465,-3.55408,610.6,4,5,96.3,2.461
22.98,1,0.003,0.001,0.01,0.0,-0.005,-0.015,-1.636,-0.014,-0.231,22.81,80.0,40.584427,-3.553822,610.8,4,5,97.4,2.461
23.08,1,-0.011,0.001,-0.01,-0.001,0.001,-0.004,-1.635,-0.013,-0.232,22.81,80.0,40.584427,-3.553822,610.8,4,5,97.4,2.461
23.18,1,-0.002,0.01,-0.01,0.002,0.01,-0.008,-1.635,-0.012,-0.233,22.81,80.0,40.584427,-3.553822,610.8,4,5,97.4,2.461
23.28,1,-0.011,0.004,-0.016,-0.006,0.004,-0.008,-1.635,-0.011,-0.234,22.81,80.0,40.584427,-3.553822,610.8,4,5,97.4,2.461
23.38,1,-0.036,-0.023,0.002,-0.018,-0.007,-0.011,-1.636,-0.01,-0.234,22.81,80.0,40.584427,-3.553822,610.8,4,5,97.4,2.461
23.48,1,-0.053,-0.02,0.0,-0.04,-0.014,-0.001,-1.637,-0.01,-0.235,22.81,80.0,40.584427,-3.553822,610.8,4,5,97.4,2.461
23.59,1,-0.006,-0.014,0.03,-0.029,-0.016,0.014,-1.638,-0.009,-0.235,22.81,80.0,40.584427,-3.553822,610.8,4,5,97.4,2.461
23.68,1,-0.01,0.009,-0.007,-0.011,-0.008,0.011,-1.637,-0.008,-0.236,22.81,80.0,40.584427,-3.553822,610.8,4,5,97.4,2.461
23.78,1,-0.017,-0.044,-0.013,-0.021,-0.016,-0.011,-1.638,-0.006,-0.235,22.81,80.0,40.584427,-3.553822,610.8,4,5,97.4,2.461
23.88,1,0.005,-0.045,0.007,-0.009,-0.031,0.005,-1.638,-0.006,-0.236,22.81,80.0,40.584427,-3.553822,610.8,4,5,97.4,2.461
23.98,1,-0.05,-0.018,-0.034,-0.021,-0.035,-0.015,-1.638,-0.006,-0.236,23.82,81.6,40.584396,-3.553555,611.3,4,5,97.7,1.406
24.08,1,0.028,-0.031,0.038,-0.007,-0.028,0.005,-1.638,-0.007,-0.237,23.82,81.6,40.584396,-3.553555,611.3,4,5,97.7,1.406
24.18,1,-0.001,-0.017,-0.038,0.001,-0.026,-0.007,-1.636,-0.008,-0.237,23.82,81.6,40.584396,-3.553555,611.3,4,5,97.7,1.406
24.28,1,-0.028,-0.004,-0.005,-0.007,-0.014,-0.017,-1.635,-0.009,-0.238,23.82,81.6,40.584396,-3.553555,611.3,4,5,97.7,1.406
24.38,1,-0.047,0.005,-0.022,-0.026,0.001,-0.013,-1.636,-0.009,-0.238,23.82,81.6,40.584396,-3.553555,611.3,4,5,97.7,1.406
24.48,1,-0.072,0.009,-0.01,-0.05,0.003,-0.014,-1.638,-0.009,-0.238,23.82,81.6,40.584396,-3.553555,611.3,4,5,97.7,1.406
24.59,1,-0.018,-0.006,0.009,-0.042,-0.007,-0.005,-1.64,-0.011,-0.239,23.82,81.6,40.584396,-3.553555,611.3,4,5,97.7,1.406
24.68,1,0.033,-0.001,-0.022,-0.01,-0.002,-0.002,-1.638,-0.012,-0.24,23.82,81.6,40.584396,-3.553555,611.3,4,5,97.7,1.406
24.78,1,0.022,0.023,-0.024,0.013,0.014,-0.017,-1.639,-0.013,-0.241,23.82,81.6,40.584396,-3.553555,611.3,4,5,97.7,1.406
24.89,1,0.013,0.014,0.005,0.021,0.015,-0.017,-1.639,-0.013,-0.243,23.82,81.6,40.584396,-3.553555,611.3,4,5,97.7,1.406
24.98,1,0.035,0.018,-0.009,0.024,0.013,-0.005,-1.638,-0.013,-0.244,24.81,81.8,40.584366,-3.553293,611.7,4,5,98.1,0.703
25.08,1,-0.019,0.016,-0.034,0.007,0.011,-0.017,-1.637,-0.013,-0.245,24.81,81.8,40.584366,-3.553293,611.7,4,5,98.1,0.703
25.19,1,-0.023,0.017,-0.014,-0.01,0.018,-0.025,-1.636,-0.015,-0.247,24.81,81.8,40.584366,-3.553293,611.7,4,5,98.1,0.703
25.28,1,-0.036,0.025,-0.011,-0.03,0.024,-0.02,-1.636,-0.016,-0.249,24.81,81.8,40.584366,-3.553293,611.7,4,5,98.1,0.703
25.39,1,-0.038,0.029,-0.058,-0.029,0.022,-0.029,-1.636,-0.019,-0.251,24.81,81.8,40.584366,-3.553293,611.7,4,5,98.1,0.703
25.49,1,-0.047,0.047,-0.033,-0.037,0.03,-0.034,-1.638,-0.02,-0.252,24.81,81.8,40.584366,-3.553293,611.7,4,5,98.1,0.703
25.59,1,-0.039,0.02,-0.038,-0.037,0.034,-0.031,-1.64,-0.018,-0.253,24.81,81.8,40.584366,-3.553293,611.7,4,5,98.1,0.703
25.69,1,-0.012,0.011,-0.002,-0.037,0.032,-0.024,-1.641,-0.016,-0.254,24.81,81.8,40.584366,-3.553293,611.7,4,5,98.1,0.703
25.79,1,0.011,0.023,-0.042,-0.017,0.019,-0.027,-1.64,-0.016,-0.256,24.81,81.8,40.584366,-3.553293,611.7,4,5,98.1,0.703
25.89,1,0.035,0.027,-0.008,0.016,0.024,-0.026,-1.64,-0.018,-0.258,24.81,81.8,40.584366,-3.553293,611.7,4,5,98.1,0.703
25.99,1,0.038,0.006,-0.049,0.034,0.017,-0.02,-1.636,-0.01,-0.259,25.82,86.4,40.584324,-3.553012,611.9,4,5,99.5,1.758
26.1,1,0.015,0.048,0.004,0.028,0.021,-0.029,-1.628,-0.007,-0.261,25.82,86.4,40.584324,-3.553012,611.9,4,5,99.5,1.758
26.19,1,0.051,0.054,-0.009,0.038,0.036,-0.007,-1.627,-0.006,-0.263,25.82,86.4,40.584324,-3.553012,611.9,4,5,99.5,1.758
26.29,1,0.01,0.052,-0.016,0.025,0.054,-0.019,-1.626,-0.005,-0.265,25.82,86.4,40.584324,-3.553012,611.9,4,5,99.5,1.758
26.39,1,-0.062,-0.003,0.012,-0.017,0.035,-0.006,-1.629,-0.004,-0.266,25.82,86.4,40.584324,-3.553012,611.9,4,5,99.5,1.758
26.5,1,-0.098,0.02,0.008,-0.061,0.015,0.001,-1.632,-0.004,-0.268,25.82,86.4,40.584324,-3.553012,611.9,4,5,99.5,1.758
26.6,1,-0.033,0.064,0.009,-0.055,0.027,0.017,-1.634,-0.005,-0.271,25.82,86.4,40.584324,-3.553012,611.9,4,5,99.5,1.758
26.7,1,-0.053,0.067,-0.011,-0.046,0.064,-0.004,-1.636,-0.005,-0.273,25.82,86.4,40.584324,-3.553012,611.9,4,5,99.5,1.758
26.8,1,-0.003,0.054,-0.013,-0.03,0.058,-0.01,-1.636,-0.004,-0.275,25.82,86.4,40.584324,-3.553012,611.9,4,5,99.5,1.758
26.89,1,-0.007,0.042,-0.028,-0.019,0.047,-0.015,-1.637,-0.003,-0.277,25.82,86.4,40.584324,-3.553012,611.9,4,5,99.5,1.758
26.99,1,0.045,0.043,-0.023,0.01,0.047,-0.024,-1.635,-0.003,-0.279,26.83,86.4,40.58429,-3.552732,612.1,4,5,99.5,1.406
27.09,1,0.027,0.065,0.0,0.024,0.053,-0.011,-1.63,-0.002,-0.282,26.83,86.4,40.58429,-3.552732,612.1,4,5,99.5,1.406
27.19,1,0.027,0.075,-0.004,0.023,0.062,-0.001,-1.632,-0.006,-0.284,26.83,86.4,40.58429,-3.552732,612.1,4,5,99.5,1.406
27.3,1,0.033,0.041,-0.026,0.03,0.061,-0.013,-1.632,-0.008,-0.287,26.83,86.4,40.58429,-3.552732,612.1,4,5,99.5,1.406
27.39,1,-0.03,0.065,-0.022,0.007,0.058,-0.023,-1.632,-0.008,-0.289,26.83,86.4,40.58429,-3.552732,612.1,4,5,99.5,1.406
27.5,1,-0.006,0.065,-0.015,-0.005,0.062,-0.021,-1.627,-0.016,-0.292,26.83,86.4,40.58429,-3.552732,612.1,4,5,99.5,1.406
27.59,1,-0.021,0.019,0.005,-0.01,0.043,-0.004,-1.63,-0.028,-0.295,26.83,86.4,40.58429,-3.552732,612.1,4,5,99.5,1.406
27.7,1,-0.043,0.052,-0.006,-0.036,0.043,-0.003,-1.63,-0.035,-0.297,26.83,86.4,40.58429,-3.552732,612.1,4,5,99.5,1.406
27.79,1,0.012,0.058,0.021,-0.01,0.047,0.003,-1.628,-0.034,-0.299,26.83,86.4,40.58429,-3.552732,612.1,4,5,99.5,1.406
27.89,1,0.025,0.036,-0.013,0.007,0.043,0.001,-1.628,-0.031,-0.301,26.83,86.4,40.58429,-3.552732,612.1,4,5,99.5,1.406
27.99,1,0.006,0.017,-0.01,0.012,0.034,-0.007,-1.627,-0.03,-0.304,27.82,89.8,40.584232,-3.552425,612.7,4,5,101.6,2.109
28.09,1,-0.047,0.034,0.027,-0.018,0.029,0.006,-1.628,-0.03,-0.307,27.82,89.8,40.584232,-3.552425,612.7,4,5,101.6,2.109
28.19,1,-0.026,0.063,-0.005,-0.026,0.047,0.005,-1.629,-0.031,-0.31,27.82,89.8,40.584232,-3.552425,612.7,4,5,101.6,2.109
28.29,1,0.015,0.017,-0.023,-0.007,0.042,-0.003,-1.628,-0.031,-0.312,27.82,89.8,40.584232,-3.552425,612.7,4,5,101.6,2.109
28.39,1,-0.027,0.03,0.001,-0.008,0.033,-0.007,-1.629,-0.03,-0.315,27.82,89.8,40.584232,-3.552425,612.7,4,5,101.6,2.109
28.49,1,0.008,0.026,0.017,-0.006,0.026,0.005,-1.623,-0.035,-0.317,27.82,89.8,40.584232,-3.552425,612.7,4,5,101.6,2.109
28.59,1,0.024,0.043,0.003,0.006,0.031,0.003,-1.621,-0.044,-0.32,27.82,89.8,40.584232,-3.552425,612.7,4,5,101.6,2.109
28.7,1,-0.01,0.031,-0.015,0.006,0.03,0.003,-1.614,-0.049,-0.322,27.82,89.8,40.584232,-3.552425,612.7,4,5,101.6,2.109
28.79,1,0.004,-0.025,0.032,-0.001,0.016,0.01,-1.61,-0.056,-0.323,27.82,89.8,40.584232,-3.552425,612.7,4,5,101.6,2.109
28.9,1,-0.041,-0.007,0.021,-0.013,-0.005,0.02,-1.61,-0.056,-0.325,27.82,89.8,40.584232,-3.552425,612.7,4,5,101.6,2.109
29.0,1,-0.023,-0.015,0.02,-0.023,-0.01,0.013,-1.608,-0.06,-0.327,28.82,89.2,40.584194,-3.55214,613.2,4,5,102.0,2.461
29.1,1,0.001,-0.008,0.035,-0.016,-0.012,0.024,-1.614,-0.058,-0.329,28.82,89.2,40.584194,-3.55214,613.2,4,5,102.0,2.461
29.2,1,0.019,0.018,0.02,-0.001,-0.0,0.027,-1.619,-0.056,-0.332,28.82,89.2,40.584194,-3.55214,613.2,4,5,102.0,2.461
29.3,1,-0.05,-0.002,0.011,-0.017,0.003,0.022,-1.619,-0.054,-0.334,28.82,89.2,40.584194,-3.55214,613.2,4,5,102.0,2.461
29.4,1,-0.035,0.012,0.011,-0.025,0.007,0.013,-1.622,-0.052,-0.336,28.82,89.2,40.584194,-3.55214,613.2,4,5,102.0,2.461
29.5,1,-0.002,0.008,-0.013,-0.025,0.012,0.002,-1.625,-0.047,-0.338,28.82,89.2,40.584194,-3.55214,613.2,4,5,102.0,2.461
29.6,1,-0.017,0.032,-0.01,-0.018,0.012,-0.009,-1.626,-0.049,-0.34,28.82,89.2,40.584194,-3.55214,613.2,4,5,102.0,2.461
29.7,1,-0.013,0.023,0.018,-0.013,0.024,0.001,-1.626,-0.051,-0.343,28.82,89.2,40.584194,-3.55214,613.2,4,5,102.0,2.461
29.8,1,0.005,0.03,-0.012,-0.002,0.024,0.001,-1.624,-0.056,-0.345,28.82,89.2,40.584194,-3.55214,613.2,4,5,102.0,2.461
29.9,1,-0.026,0.007,-0.02,-0.011,0.023,-0.011,-1.625,-0.057,-0.348,28.82,89.2,40.584194,-3.55214,613.2,4,5,102.0,2.461
30.0,1,-0.046,0.025,-0.006,-0.03,0.02,-0.012,-1.627,-0.061,-0.35,29.82,94.3,40.584122,-3.551831,613.8,4,5,105.5,3.867
30.1,1,-0.049,-0.007,0.013,-0.04,0.011,0.001,-1.628,-0.061,-0.352,29.82,94.3,40.584122,-3.551831,613.8,4,5,105.5,3.867
30.21,1,-0.012,0.052,-0.024,-0.032,0.02,-0.001,-1.628,-0.062,-0.355,29.82,94.3,40.584122,-3.551831,613.8,4,5,105.5,3.867
30.3,1,0.011,0.059,-0.006,-0.013,0.045,-0.014,-1.628,-0.064,-0.36,29.82,94.3,40.584122,-3.551831,613.8,4,5,105.5,3.867
30.41,1,-0.023,0.076,-0.019,-0.01,0.063,-0.015,-1.629,-0.063,-0.363,29.82,94.3,40.584122,-3.551831,613.8,4,5,105.5,3.867
30.5,1,0.0,0.033,-0.003,-0.011,0.05,-0.014,-1.629,-0.063,-0.365,29.82,94.3,40.584122,-3.551831,613.8,4,5,105.5,3.867
30.6,1,0.022,0.015,-0.011,0.003,0.036,-0.007,-1.626,-0.063,-0.367,29.82,94.3,40.584122,-3.551831,613.8,4,5,105.5,3.867
30.7,1,0.012,-0.037,0.015,0.018,-0.001,0.001,-1.625,-0.062,-0.369,29.82,94.3,40.584122,-3.551831,613.8,4,5,105.5,3.867
30.81,1,-0.084,-0.027,-0.011,-0.026,-0.018,-0.001,-1.626,-0.062,-0.37,29.82,94.3,40.584122,-3.551831,613.8,4,5,105.5,3.867
30.9,1,-0.062,-0.029,0.003,-0.049,-0.025,0.005,-1.628,-0.062,-0.371,29.82,94.3,40.584122,-3.551831,613.8,4,5,105.5,3.867
31.0,1,-0.038,-0.008,0.012,-0.054,-0.017,0.0,-1.628,-0.061,-0.372,30.82,96.2,40.584072,-3.551535,614.5,6,5,107.2,5.273
31.1,1,0.022,-0.01,-0.008,-0.022,-0.015,0.002,-1.627,-0.06,-0.372,30.82,96.2,40.584072,-3.551535,614.5,6,5,107.2,5.273
31.2,1,-0.017,-0.011,-0.02,0.001,-0.019,-0.009,-1.626,-0.059,-0.373,30.82,96.2,40.584072,-3.551535,614.5,6,5,107.2,5.273
31.3,1,-0.025,-0.025,-0.001,-0.015,-0.014,-0.012,-1.627,-0.059,-0.374,30.82,96.2,40.584072,-3.551535,614.5,6,5,107.2,5.273
31.41,1,-0.005,-0.005,-0.013,-0.023,-0.014,-0.008,-1.63,-0.061,-0.375,30.82,96.2,40.584072,-3.551535,614.5,6,5,107.2,5.273
31.5,1,0.038,0.007,-0.015,0.003,-0.004,-0.01,-1.633,-0.059,-0.376,30.82,96.2,40.584072,-3.551535,614.5,6,5,107.2,5.273
31.61,1,0.036,-0.004,-0.035,0.03,0.001,-0.015,-1.631,-0.059,-0.377,30.82,96.2,40.584072,-3.551535,614.5,6,5,107.2,5.273
31.7,1,-0.003,0.013,0.014,0.024,0.005,-0.026,-1.63,-0.053,-0.378,30.82,96.2,40.584072,-3.551535,614.5,6,5,107.2,5.273
31.8,1,-0.039,0.001,-0.013,-0.014,0.006,0.006,-1.63,-0.054,-0.379,30.82,96.2,40.584072,-3.551535,614.5,6,5,107.2,5.273
31.91,1,-0.021,0.023,0.006,-0.022,0.009,-0.003,-1.632,-0.054,-0.38,30.82,96.2,40.584072,-3.551535,614.5,6,5,107.2,5.273
32.01,1,-0.034,-0.002,-0.008,-0.022,0.013,-0.002,-1.633,-0.053,-0.381,31.82,98.2,40.584003,-3.551243,614.8,6,5,109.0,3.516
32.11,1,-0.0,0.025,-0.029,-0.02,0.01,-0.016,-1.639,-0.05,-0.383,31.82,98.2,40.584003,-3.551243,614.8,6,5,109.0,3.516
32.21,1,-0.015,0.031,-0.03,-0.01,0.02,-0.025,-1.638,-0.047,-0.384,31.82,98.2,40.584003,-3.551243,614.8,6,5,109.0,3.516
32.31,1,-0.006,0.034,0.001,-0.013,0.033,-0.013,-1.639,-0.046,-0.386,31.82,98.2,40.584003,-3.551243,614.8,6,5,109.0,3.516
32.41,1,0.027,0.029,-0.032,0.009,0.031,-0.021,-1.638,-0.044,-0.388,31.82,98.2,40.584003,-3.551243,614.8,6,5,109.0,3.516
32.5,1,0.047,0.02,-0.017,0.023,0.027,-0.024,-1.638,-0.043,-0.389,31.82,98.2,40.584003,-3.551243,614.8,6,5,109.0,3.516
32.61,1,-0.028,0.04,-0.009,0.008,0.028,-0.013,-1.639,-0.044,-0.391,31.82,98.2,40.584003,-3.551243,614.8,6,5,109.0,3.516
32.71,1,-0.016,0.014,-0.103,-0.01,0.026,-0.048,-1.63,-0.048,-0.392,31.82,98.2,40.584003,-3.551243,614.8,6,5,109.0,3.516
32.81,1,-0.018,0.021,-0.077,-0.012,0.021,-0.076,-1.626,-0.048,-0.394,31.82,98.2,40.584003,-3.551243,614.8,6,5,109.0,3.516
32.91,1,-0.032,0.021,-0.129,-0.021,0.021,-0.095,-1.625,-0.047,-0.396,31.82,98.2,40.584003,-3.551243,614.8,6,5,109.0,3.516
33.01,1,-0.012,0.026,-0.108,-0.023,0.022,-0.108,-1.624,-0.048,-0.398,32.82,100.3,40.583916,-3.550927,615.2,6,5,110.4,3.164
33.11,1,0.004,0.026,-0.133,-0.009,0.027,-0.113,-1.613,-0.05,-0.399,32.82,100.3,40.583916,-3.550927,615.2,6,5,110.4,3.164
33.21,1,0.011,0.026,-0.119,0.003,0.027,-0.124,-1.596,-0.051,-0.401,32.82,100.3,40.583916,-3.550927,615.2,6,5,110.4,3.164
33.32,1,-0.035,0.028,-0.07,-0.007,0.025,-0.103,-1.58,-0.054,-0.402,32.82,100.3,40.583916,-3.550927,615.2,6,5,110.4,3.164
33.41,1,-0.03,0.024,-0.069,-0.027,0.025,-0.082,-1.573,-0.057,-0.403,32.82,100.3,40.583916,-3.550927,615.2,6,5,110.4,3.164
33.51,1,-0.004,0.03,-0.045,-0.013,0.025,-0.062,-1.565,-0.058,-0.405,32.82,100.3,40.583916,-3.550927,615.2,6,5,110.4,3.164
33.61,1,-0.027,0.018,-0.047,-0.018,0.025,-0.052,-1.557,-0.06,-0.405,32.82,100.3,40.583916,-3.550927,615.2,6,5,110.4,3.164
33.71,1,-0.038,0.022,-0.04,-0.029,0.023,-0.051,-1.556,-0.06,-0.407,32.82,100.3,40.583916,-3.550927,615.2,6,5,110.4,3.164
33.81,1,-0.021,0.003,-0.041,-0.029,0.017,-0.039,-1.555,-0.06,-0.408,32.82,100.3,40.583916,-3.550927,615.2,6,5,110.4,3.164
33.91,1,0.034,0.009,-0.041,-0.005,0.009,-0.042,-1.551,-0.057,-0.409,32.82,100.3,40.583916,-3.550927,615.2,6,5,110.4,3.164
34.02,1,0.022,-0.003,-0.016,0.019,0.004,-0.03,-1.551,-0.055,-0.411,33.86,99.9,40.58382,-3.550625,615.4,6,5,112.5,3.516
34.11,1,-0.001,0.033,-0.049,0.014,0.008,-0.035,-1.545,-0.055,-0.412,33.86,99.9,40.58382,-3.550625,615.4,6,5,112.5,3.516
34.21,1,-0.038,0.043,-0.012,-0.012,0.031,-0.032,-1.543,-0.056,-0.414,33.86,99.9,40.58382,-3.550625,615.4,6,5,112.5,3.516
34.31,1,0.001,0.041,-0.059,-0.022,0.039,-0.033,-1.542,-0.056,-0.415,33.86,99.9,40.58382,-3.550625,615.4,6,5,112.5,3.516
34.41,1,0.006,0.045,-0.066,-0.002,0.04,-0.056,-1.539,-0.056,-0.416,33.86,99.9,40.58382,-3.550625,615.4,6,5,112.5,3.516
34.51,1,0.035,0.02,-0.03,0.015,0.035,-0.046,-1.538,-0.056,-0.418,33.86,99.9,40.58382,-3.550625,615.4,6,5,112.5,3.516
34.61,1,0.003,0.015,-0.028,0.016,0.027,-0.039,-1.529,-0.059,-0.419,33.86,99.9,40.58382,-3.550625,615.4,6,5,112.5,3.516
34.72,1,-0.029,0.011,-0.018,0.002,0.016,-0.024,-1.526,-0.061,-0.42,33.86,99.9,40.58382,-3.550625,615.4,6,5,112.5,3.516
34.81,1,-0.016,0.011,-0.037,-0.015,0.017,-0.029,-1.524,-0.061,-0.421,33.86,99.9,40.58382,-3.550625,615.4,6,5,112.5,3.516
34.91,1,-0.023,-0.009,-0.046,-0.02,-0.001,-0.034,-1.525,-0.063,-0.423,33.86,99.9,40.58382,-3.550625,615.4,6,5,112.5,3.516
35.01,1,-0.025,0.003,-0.036,-0.02,-0.001,-0.042,-1.525,-0.063,-0.424,34.82,99.1,40.583717,-3.550336,615.5,6,5,114.6,4.219
35.11,1,-0.007,0.032,-0.013,-0.014,0.011,-0.029,-1.525,-0.063,-0.425,34.82,99.1,40.583717,-3.550336,615.5,6,5,114.6,4.219
35.22,1,-0.039,0.005,-0.024,-0.019,0.017,-0.02,-1.525,-0.065,-0.427,34.82,99.1,40.583717,-3.550336,615.5,6,5,114.6,4.219
35.31,1,-0.025,-0.037,-0.034,-0.035,-0.006,-0.027,-1.525,-0.062,-0.427,34.82,99.1,40.583717,-3.550336,615.5,6,5,114.6,4.219
35.41,1,0.024,0.004,-0.038,-0.007,-0.009,-0.031,-1.526,-0.063,-0.429,34.82,99.1,40.583717,-3.550336,615.5,6,5,114.6,4.219
35.51,1,0.001,-0.015,-0.009,0.005,-0.009,-0.025,-1.527,-0.062,-0.43,34.82,99.1,40.583717,-3.550336,615.5,6,5,114.6,4.219
35.61,1,0.001,0.01,-0.022,0.003,-0.005,-0.022,-1.527,-0.061,-0.431,34.82,99.1,40.583717,-3.550336,615.5,6,5,114.6,4.219
35.72,1,-0.004,0.012,-0.064,-0.001,0.006,-0.04,-1.526,-0.063,-0.432,34.82,99.1,40.583717,-3.550336,615.5,6,5,114.6,4.219
35.81,1,-0.048,-0.008,-0.039,-0.023,0.005,-0.036,-1.526,-0.063,-0.433,34.82,99.1,40.583717,-3.550336,615.5,6,5,114.6,4.219
35.93,1,-0.056,-0.004,-0.025,-0.038,0.003,-0.036,-1.527,-0.063,-0.434,34.82,99.1,40.583717,-3.550336,615.5,6,5,114.6,4.219
36.01,1,-0.017,0.012,-0.021,-0.036,-0.003,-0.028,-1.528,-0.063,-0.435,35.82,97.4,40.583607,-3.550042,615.6,6,5,116.4,3.867
36.12,1,0.007,-0.007,-0.033,-0.013,-0.001,-0.034,-1.527,-0.063,-0.436,35.82,97.4,40.583607,-3.550042,615.6,6,5,116.4,3.867
36.22,1,-0.002,-0.005,-0.033,-0.006,-0.002,-0.031,-1.525,-0.063,-0.437,35.82,97.4,40.583607,-3.550042,615.6,6,5,116.4,3.867
36.32,1,0.005,0.001,0.015,-0.001,-0.003,-0.017,-1.525,-0.066,-0.439,35.82,97.4,40.583607,-3.550042,615.6,6,5,116.4,3.867
36.43,1,-0.002,0.016,0.0,0.004,0.004,0.008,-1.529,-0.064,-0.44,35.82,97.4,40.583607,-3.550042,615.6,6,5,116.4,3.867
36.52,1,-0.004,0.017,-0.032,0.0,0.018,-0.017,-1.529,-0.064,-0.441,35.82,97.4,40.583607,-3.550042,615.6,6,5,116.4,3.867
36.62,1,0.002,0.017,-0.011,-0.003,0.013,-0.02,-1.529,-0.063,-0.443,35.82,97.4,40.583607,-3.550042,615.6,6,5,116.4,3.867
36.72,1,-0.008,0.004,-0.007,-0.001,0.012,-0.01,-1.527,-0.064,-0.444,35.82,97.4,40.583607,-3.550042,615.6,6,5,116.4,3.867
36.82,1,-0.002,0.025,-0.018,-0.004,0.014,-0.012,-1.524,-0.067,-0.445,35.82,97.4,40.583607,-3.550042,615.6,6,5,116.4,3.867
36.92,1,-0.033,0.008,-0.007,-0.022,0.009,-0.017,-1.525,-0.064,-0.446,35.82,97.4,40.583607,-3.550042,615.6,6,5,116.4,3.867
37.02,1,-0.011,-0.007,-0.002,-0.011,0.003,-0.008,-1.526,-0.058,-0.446,36.83,95.9,40.583492,-3.549763,616.1,6,5,118.1,3.516
37.12,1,-0.025,0.01,-0.002,-0.02,0.008,0.001,-1.525,-0.056,-0.447,36.83,95.9,40.583492,-3.549763,616.1,6,5,118.1,3.516
37.22,1,-0.024,0.001,-0.019,-0.023,0.002,-0.006,-1.528,-0.053,-0.447,36.83,95.9,40.583492,-3.549763,616.1,6,5,118.1,3.516
37.32,1,-0.007,-0.005,0.01,-0.015,0.009,-0.008,-1.529,-0.053,-0.448,36.83,95.9,40.583492,-3.549763,616.1,6,5,118.1,3.516
37.42,1,0.04,0.02,0.007,0.007,0.004,0.004,-1.53,-0.053,-0.448,36.83,95.9,40.583492,-3.549763,616.1,6,5,118.1,3.516
37.52,1,0.03,0.008,-0.013,0.025,0.006,-0.001,-1.527,-0.049,-0.448,36.83,95.9,40.583492,-3.549763,616.1,6,5,118.1,3.516
37.62,1,-0.021,-0.008,-0.002,0.006,0.006,-0.0,-1.527,-0.045,-0.449,36.83,95.9,40.583492,-3.549763,616.1,6,5,118.1,3.516
37.72,1,-0.027,0.071,0.008,-0.009,0.023,-0.0,-1.53,-0.046,-0.45,36.83,95.9,40.583492,-3.549763,616.1,6,5,118.1,3.516
37.82,1,-0.022,0.003,0.007,-0.027,0.03,0.004,-1.53,-0.045,-0.45,36.83,95.9,40.583492,-3.549763,616.1,6,5,118.1,3.516
37.92,1,-0.004,-0.008,0.006,-0.012,0.008,0.006,-1.531,-0.045,-0.451,36.83,95.9,40.583492,-3.549763,616.1,6,5,118.1,3.516
38.02,1,-0.006,0.017,-0.004,-0.003,0.008,0.002,-1.533,-0.044,-0.452,37.83,93.1,40.583378,-3.549507,616.0,6,5,120.2,3.867
38.12,1,0.001,0.015,0.009,-0.009,0.012,-0.004,-1.534,-0.044,-0.452,37.83,93.1,40.583378,-3.549507,616.0,6,5,120.2,3.867
38.22,1,-0.022,-0.002,0.029,-0.009,0.009,0.02,-1.537,-0.049,-0.453,37.83,93.1,40.583378,-3.549507,616.0,6,5,120.2,3.867
38.33,1,-0.002,0.009,0.03,-0.007,0.007,0.024,-1.538,-0.05,-0.454,37.83,93.1,40.583378,-3.549507,616.0,6,5,120.2,3.867
38.42,1,-0.004,0.008,0.014,-0.004,0.003,0.025,-1.537,-0.05,-0.454,37.83,93.1,40.583378,-3.549507,616.0,6,5,120.2,3.867
38.52,1,-0.036,-0.013,0.014,-0.018,-0.002,0.013,-1.538,-0.05,-0.454,37.83,93.1,40.583378,-3.549507,616.0,6,5,120.2,3.867
38.62,1,-0.019,-0.023,0.024,-0.024,-0.008,0.016,-1.537,-0.053,-0.455,37.83,93.1,40.583378,-3.549507,616.0,6,5,120.2,3.867
38.72,1,-0.021,-0.023,0.01,-0.021,-0.02,0.019,-1.536,-0.056,-0.455,37.83,93.1,40.583378,-3.549507,616.0,6,5,120.2,3.867
38.83,1,-0.012,-0.008,0.038,-0.019,-0.012,0.025,-1.538,-0.056,-0.456,37.83,93.1,40.583378,-3.549507,616.0,6,5,120.2,3.867
38.93,1,0.001,-0.01,0.01,-0.01,-0.013,0.024,-1.542,-0.055,-0.456,37.83,93.1,40.583378,-3.549507,616.0,6,5,120.2,3.867
39.03,1,0.002,0.014,0.025,0.0,0.001,0.021,-1.542,-0.054,-0.456,38.82,93.1,40.583252,-3.549241,616.1,6,5,122.0,3.867
39.13,1,-0.04,-0.039,-0.004,-0.013,-0.014,0.012,-1.541,-0.053,-0.456,38.82,93.1,40.583252,-3.549241,616.1,6,5,122.0,3.867
39.23,1,-0.036,-0.042,0.009,-0.033,-0.033,0.004,-1.542,-0.052,-0.455,38.82,93.1,40.583252,-3.549241,616.1,6,5,122.0,3.867
39.32,1,-0.023,-0.041,0.041,-0.025,-0.043,0.026,-1.544,-0.051,-0.454,38.82,93.1,40.583252,-3.549241,616.1,6,5,122.0,3.867
39.43,1,0.008,-0.027,0.011,-0.016,-0.036,0.018,-1.543,-0.048,-0.453,38.82,93.1,40.583252,-3.549241,616.1,6,5,122.0,3.867
39.53,1,-0.024,-0.022,0.021,-0.014,-0.025,0.02,-1.544,-0.047,-0.453,38.82,93.1,40.583252,-3.549241,616.1,6,5,122.0,3.867
39.63,1,-0.02,0.013,0.002,-0.019,-0.006,0.006,-1.545,-0.048,-0.452,38.82,93.1,40.583252,-3.549241,616.1,6,5,122.0,3.867
39.73,1,-0.002,0.03,0.046,-0.008,0.011,0.026,-1.544,-0.05,-0.452,38.82,93.1,40.583252,-3.549241,616.1,6,5,122.0,3.867
39.83,1,-0.004,-0.006,0.01,-0.011,0.011,0.025,-1.543,-0.049,-0.452,38.82,93.1,40.583252,-3.549241,616.1,6,5,122.0,3.867
39.93,1,-0.018,0.017,0.024,-0.005,0.008,0.021,-1.544,-0.05,-0.453,38.82,93.1,40.583252,-3.549241,616.1,6,5,122.0,3.867
40.03,1,-0.005,0.023,0.035,-0.008,0.013,0.027,-1.547,-0.051,-0.455,39.82,92.9,40.583111,-3.548973,616.6,6,5,123.4,3.164
40.13,1,-0.007,0.03,0.016,-0.013,0.023,0.025,-1.546,-0.054,-0.456,39.82,92.9,40.583111,-3.548973,616.6,6,5,123.4,3.164
40.23,1,-0.012,0.038,0.014,-0.006,0.031,0.017,-1.549,-0.054,-0.457,39.82,92.9,40.583111,-3.548973,616.6,6,5,123.4,3.164
40.33,1,-0.039,-0.01,0.031,-0.025,0.013,0.019,-1.551,-0.054,-0.458,39.82,92.9,40.583111,-3.548973,616.6,6,5,123.4,3.164
40.43,1,-0.054,0.052,0.003,-0.041,0.021,0.018,-1.552,-0.057,-0.46,39.82,92.9,40.583111,-3.548973,616.6,6,5,123.4,3.164
40.53,1,0.005,0.042,0.054,-0.026,0.037,0.033,-1.552,-0.057,-0.46,39.82,92.9,40.583111,-3.548973,616.6,6,5,123.4,3.164
40.63,1,0.006,0.03,0.018,-0.0,0.039,0.029,-1.549,-0.056,-0.461,39.82,92.9,40.583111,-3.548973,616.6,6,5,123.4,3.164
40.73,1,0.022,-0.004,0.014,-0.0,0.02,0.015,-1.55,-0.054,-0.462,39.82,92.9,40.583111,-3.548973,616.6,6,5,123.4,3.164
40.83,1,-0.037,0.021,0.047,-0.004,0.014,0.036,-1.558,-0.049,-0.463,39.82,92.9,40.583111,-3.548973,616.6,6,5,123.4,3.164
40.93,1,-0.044,0.002,0.001,-0.025,0.016,0.022,-1.561,-0.05,-0.464,39.82,92.9,40.583111,-3.548973,616.6,6,5,123.4,3.164
41.03,1,-0.02,-0.026,0.015,-0.032,-0.003,0.012,-1.563,-0.043,-0.463,40.83,91.8,40.582985,-3.5487,616.4,6,5,124.8,2.812
41.13,1,-0.001,-0.045,0.036,-0.018,-0.026,0.025,-1.568,-0.038,-0.462,40.83,91.8,40.582985,-3.5487,616.4,6,5,124.8,2.812
41.23,1,0.009,-0.013,0.021,-0.002,-0.027,0.024,-1.568,-0.036,-0.462,40.83,91.8,40.582985,-3.5487,616.4,6,5,124.8,2.812
41.33,1,-0.011,-0.025,0.016,0.004,-0.023,0.024,-1.566,-0.038,-0.46,40.83,91.8,40.582985,-3.5487,616.4,6,5,124.8,2.812
41.44,1,0.002,-0.025,0.029,-0.004,-0.025,0.022,-1.567,-0.037,-0.459,40.83,91.8,40.582985,-3.5487,616.4,6,5,124.8,2.812
41.53,1,-0.019,-0.017,0.034,-0.011,-0.024,0.029,-1.57,-0.029,-0.457,40.83,91.8,40.582985,-3.5487,616.4,6,5,124.8,2.812
41.63,1,-0.016,-0.022,0.01,-0.014,-0.02,0.024,-1.572,-0.024,-0.456,40.83,91.8,40.582985,-3.5487,616.4,6,5,124.8,2.812
41.73,1,0.02,-0.029,0.034,-0.004,-0.026,0.022,-1.576,-0.018,-0.454,40.83,91.8,40.582985,-3.5487,616.4,6,5,124.8,2.812
41.83,1,-0.022,-0.011,-0.003,0.001,-0.019,0.02,-1.573,-0.019,-0.452,40.83,91.8,40.582985,-3.5487,616.4,6,5,124.8,2.812
41.93,1,-0.018,-0.018,0.016,-0.013,-0.019,0.007,-1.572,-0.02,-0.45,40.83,91.8,40.582985,-3.5487,616.4,6,5,124.8,2.812
42.04,1,-0.005,-0.035,0.025,-0.012,-0.022,0.018,-1.574,-0.018,-0.448,41.86,93.0,40.582855,-3.548465,616.6,6,5,127.6,4.219
42.13,1,-0.035,-0.03,0.033,-0.016,-0.032,0.03,-1.571,-0.018,-0.446,41.86,93.0,40.582855,-3.548465,616.6,6,5,127.6,4.219
42.23,1,-0.044,-0.025,-0.005,-0.036,-0.024,0.01,-1.573,-0.016,-0.444,41.86,93.0,40.582855,-3.548465,616.6,6,5,127.6,4.219
42.33,1,0.016,-0.004,-0.003,-0.019,-0.021,-0.001,-1.577,-0.016,-0.443,41.86,93.0,40.582855,-3.548465,616.6,6,5,127.6,4.219
42.43,1,0.006,0.022,0.011,-0.001,-0.001,0.008,-1.576,-0.017,-0.441,41.86,93.0,40.582855,-3.548465,616.6,6,5,127.6,4.219
42.54,1,-0.026,0.005,-0.025,-0.003,0.008,-0.002,-1.573,-0.016,-0.44,41.86,93.0,40.582855,-3.548465,616.6,6,5,127.6,4.219
42.64,1,0.008,0.008,0.034,-0.01,0.011,0.006,-1.576,-0.015,-0.439,41.86,93.0,40.582855,-3.548465,616.6,6,5,127.6,4.219
42.73,1,-0.021,0.033,0.002,-0.013,0.014,0.008,-1.577,-0.016,-0.439,41.86,93.0,40.582855,-3.548465,616.6,6,5,127.6,4.219
42.83,1,-0.01,0.044,0.02,-0.01,0.034,0.014,-1.576,-0.02,-0.439,41.86,93.0,40.582855,-3.548465,616.6,6,5,127.6,4.219
42.94,1,-0.034,0.058,-0.018,-0.021,0.049,0.001,-1.576,-0.025,-0.44,41.86,93.0,40.582855,-3.548465,616.6,6,5,127.6,4.219
43.04,1,-0.004,0.03,0.015,-0.016,0.036,0.004,-1.578,-0.028,-0.439,42.83,90.5,40.582722,-3.548225,616.8,6,5,127.6,2.812
43.14,1,-0.043,0.022,-0.014,-0.025,0.031,-0.005,-1.58,-0.031,-0.439,42.83,90.5,40.582722,-3.548225,616.8,6,5,127.6,2.812
43.24,1,-0.02,0.01,0.006,-0.032,0.024,0.001,-1.582,-0.031,-0.439,42.83,90.5,40.582722,-3.548225,616.8,6,5,127.6,2.812
43.35,1,-0.004,0.031,0.008,-0.014,0.02,0.004,-1.584,-0.029,-0.44,42.83,90.5,40.582722,-3.548225,616.8,6,5,127.6,2.812
43.44,1,-0.047,0.045,-0.023,-0.023,0.035,-0.006,-1.583,-0.034,-0.44,42.83,90.5,40.582722,-3.548225,616.8,6,5,127.6,2.812
43.54,1,0.032,0.038,-0.025,-0.005,0.04,-0.016,-1.583,-0.036,-0.44,42.83,90.5,40.582722,-3.548225,616.8,6,5,127.6,2.812
43.64,1,0.002,0.027,0.005,0.006,0.031,-0.008,-1.58,-0.039,-0.44,42.83,90.5,40.582722,-3.548225,616.8,6,5,127.6,2.812
43.74,1,-0.02,0.007,0.012,-0.003,0.021,-0.001,-1.579,-0.044,-0.44,42.83,90.5,40.582722,-3.548225,616.8,6,5,127.6,2.812
43.84,1,-0.016,0.049,-0.009,-0.017,0.029,0.002,-1.579,-0.048,-0.441,42.83,90.5,40.582722,-3.548225,616.8,6,5,127.6,2.812
43.94,1,-0.025,0.044,-0.004,-0.021,0.041,-0.002,-1.58,-0.05,-0.442,42.83,90.5,40.582722,-3.548225,616.8,6,5,127.6,2.812
44.04,1,-0.014,0.023,0.001,-0.018,0.037,-0.008,-1.58,-0.055,-0.443,43.83,92.8,40.582569,-3.547982,617.5,6,5,128.7,1.055
44.14,1,-0.03,0.039,-0.013,-0.023,0.029,-0.0,-1.582,-0.06,-0.445,43.83,92.8,40.582569,-3.547982,617.5,6,5,128.7,1.055
44.24,1,-0.009,0.064,-0.007,-0.019,0.045,-0.006,-1.582,-0.06,-0.447,43.83,92.8,40.582569,-3.547982,617.5,6,5,128.7,1.055
44.35,1,0.013,0.047,0.021,-0.001,0.05,0.004,-1.582,-0.061,-0.449,43.83,92.8,40.582569,-3.547982,617.5,6,5,128.7,1.055
44.44,1,-0.036,0.076,-0.02,-0.011,0.062,-0.001,-1.581,-0.067,-0.452,43.83,92.8,40.582569,-3.547982,617.5,6,5,128.7,1.055
44.55,1,-0.007,0.052,-0.001,-0.02,0.063,-0.01,-1.58,-0.069,-0.454,43.83,92.8,40.582569,-3.547982,617.5,6,5,128.7,1.055
44.65,1,0.017,0.046,-0.008,-0.004,0.05,-0.005,-1.58,-0.071,-0.456,43.83,92.8,40.582569,-3.547982,617.5,6,5,128.7,1.055
44.74,1,-0.003,0.06,-0.01,0.005,0.058,-0.012,-1.58,-0.075,-0.459,43.83,92.8,40.582569,-3.547982,617.5,6,5,128.7,1.055
44.84,1,-0.023,0.074,-0.003,-0.013,0.065,-0.01,-1.577,-0.078,-0.461,43.83,92.8,40.582569,-3.547982,617.5,6,5,128.7,1.055
44.94,1,-0.019,0.019,-0.03,-0.011,0.051,-0.008,-1.575,-0.081,-0.463,43.83,92.8,40.582569,-3.547982,617.5,6,5,128.7,1.055
45.04,1,-0.018,0.053,-0.063,-0.017,0.037,-0.037,-1.574,-0.082,-0.465,44.81,93.8,40.582413,-3.547753,618.1,4,5,130.4,2.812
45.14,1,-0.028,0.02,-0.03,-0.026,0.035,-0.043,-1.575,-0.082,-0.466,44.81,93.8,40.582413,-3.547753,618.1,4,5,130.4,2.812
45.24,1,0.012,0.015,-0.017,-0.01,0.026,-0.026,-1.575,-0.082,-0.467,44.81,93.8,40.582413,-3.547753,618.1,4,5,130.4,2.812
45.34,1,-0.0,0.022,-0.038,0.002,0.02,-0.03,-1.571,-0.084,-0.468,44.81,93.8,40.582413,-3.547753,618.1,4,5,130.4,2.812
45.44,1,-0.002,-0.025,-0.034,-0.002,0.003,-0.033,-1.566,-0.081,-0.468,44.81,93.8,40.582413,-3.547753,618.1,4,5,130.4,2.812
45.55,1,-0.026,-0.018,-0.026,-0.008,-0.013,-0.031,-1.559,-0.077,-0.467,44.81,93.8,40.582413,-3.547753,618.1,4,5,130.4,2.812
45.65,1,-0.007,-0.016,-0.02,-0.016,-0.011,-0.025,-1.556,-0.076,-0.467,44.81,93.8,40.582413,-3.547753,618.1,4,5,130.4,2.812
45.75,1,-0.017,-0.017,-0.023,-0.014,-0.017,-0.019,-1.556,-0.073,-0.466,44.81,93.8,40.582413,-3.547753,618.1,4,5,130.4,2.812
45.84,1,0.002,-0.058,-0.051,-0.005,-0.03,-0.043,-1.55,-0.068,-0.464,44.81,93.8,40.582413,-3.547753,618.1,4,5,130.4,2.812
45.94,1,-0.041,-0.047,-0.033,-0.019,-0.05,-0.036,-1.552,-0.063,-0.463,44.81,93.8,40.582413,-3.547753,618.1,4,5,130.4,2.812
46.04,1,0.002,-0.063,-0.01,-0.018,-0.049,-0.023,-1.55,-0.057,-0.461,45.83,94.1,40.58226,-3.547539,618.4,4,5,132.9,4.219
46.14,1,0.004,-0.042,-0.006,-0.004,-0.049,-0.017,-1.547,-0.057,-0.458,45.83,94.1,40.58226,-3.547539,618.4,4,5,132.9,4.219
46.24,1,0.026,-0.057,-0.049,0.011,-0.052,-0.022,-1.546,-0.057,-0.455,45.83,94.1,40.58226,-3.547539,618.4,4,5,132.9,4.219
46.34,1,0.007,-0.076,-0.035,0.015,-0.067,-0.033,-1.544,-0.056,-0.452,45.83,94.1,40.58226,-3.547539,618.4,4,5,132.9,4.219
46.44,1,-0.075,-0.079,-0.016,-0.022,-0.072,-0.028,-1.543,-0.05,-0.449,45.83,94.1,40.58226,-3.547539,618.4,4,5,132.9,4.219
46.54,1,-0.06,-0.045,-0.022,-0.056,-0.062,-0.024,-1.542,-0.044,-0.447,45.83,94.1,40.58226,-3.547539,618.4,4,5,132.9,4.219
46.64,1,0.011,-0.041,-0.034,-0.028,-0.051,-0.028,-1.54,-0.043,-0.444,45.83,94.1,40.58226,-3.547539,618.4,4,5,132.9,4.219
46.75,1,-0.022,-0.029,-0.014,-0.016,-0.036,-0.026,-1.539,-0.041,-0.441,45.83,94.1,40.58226,-3.547539,618.4,4,5,132.9,4.219
46.85,1,-0.015,-0.056,-0.026,-0.016,-0.039,-0.016,-1.541,-0.039,-0.438,45.83,94.1,40.58226,-3.547539,618.4,4,5,132.9,4.219
46.95,1,0.028,-0.035,-0.024,0.004,-0.047,-0.024,-1.541,-0.039,-0.436,45.83,94.1,40.58226,-3.547539,618.4,4,5,132.9,4.219
47.05,1,-0.022,-0.06,-0.038,-0.002,-0.051,-0.032,-1.541,-0.038,-0.433,46.83,92.8,40.582096,-3.547322,618.6,4,5,134.6,4.219
47.15,1,-0.05,-0.04,-0.042,-0.026,-0.048,-0.039,-1.54,-0.034,-0.43,46.83,92.8,40.582096,-3.547322,618.6,4,5,134.6,4.219
47.25,1,0.008,-0.032,-0.026,-0.019,-0.04,-0.036,-1.539,-0.033,-0.428,46.83,92.8,40.582096,-3.547322,618.6,4,5,134.6,4.219
47.35,1,-0.015,-0.001,-0.087,-0.009,-0.026,-0.046,-1.537,-0.031,-0.425,46.83,92.8,40.582096,-3.547322,618.6,4,5,134.6,4.219
47.45,1,-0.006,-0.016,-0.018,-0.017,-0.01,-0.05,-1.537,-0.03,-0.423,46.83,92.8,40.582096,-3.547322,618.6,4,5,134.6,4.219
47.56,1,0.003,-0.007,-0.031,-0.003,-0.015,-0.033,-1.536,-0.03,-0.421,46.83,92.8,40.582096,-3.547322,618.6,4,5,134.6,4.219
47.65,1,-0.015,-0.001,-0.018,-0.005,-0.0,-0.026,-1.535,-0.028,-0.419,46.83,92.8,40.582096,-3.547322,618.6,4,5,134.6,4.219
47.75,1,-0.009,-0.012,-0.027,-0.01,-0.009,-0.028,-1.531,-0.026,-0.417,46.83,92.8,40.582096,-3.547322,618.6,4,5,134.6,4.219
47.85,1,0.009,-0.005,-0.012,-0.001,-0.008,-0.017,-1.529,-0.024,-0.415,46.83,92.8,40.582096,-3.547322,618.6,4,5,134.6,4.219
47.95,1,-0.007,0.007,-0.055,-0.001,-0.003,-0.033,-1.524,-0.021,-0.412,46.83,92.8,40.582096,-3.547322,618.6,4,5,134.6,4.219
48.05,1,-0.019,-0.02,-0.021,-0.006,-0.01,-0.037,-1.522,-0.023,-0.41,47.83,92.0,40.581944,-3.547116,618.6,4,5,135.4,2.461
48.16,1,-0.046,-0.023,-0.023,-0.029,-0.018,-0.027,-1.521,-0.022,-0.408,47.83,92.0,40.581944,-3.547116,618.6,4,5,135.4,2.461
48.26,1,-0.002,0.011,-0.015,-0.029,-0.005,-0.018,-1.52,-0.02,-0.405,47.83,92.0,40.581944,-3.547116,618.6,4,5,135.4,2.461
48.35,1,-0.031,0.001,-0.013,-0.02,0.003,-0.017,-1.516,-0.02,-0.403,47.83,92.0,40.581944,-3.547116,618.6,4,5,135.4,2.461
48.45,1,-0.011,-0.011,0.007,-0.017,-0.0,-0.013,-1.513,-0.019,-0.401,47.83,92.0,40.581944,-3.547116,618.6,4,5,135.4,2.461
48.55,1,-0.044,-0.007,-0.047,-0.03,-0.005,-0.022,-1.509,-0.016,-0.398,47.83,92.0,40.581944,-3.547116,618.6,4,5,135.4,2.461
48.65,1,-0.014,-0.01,-0.008,-0.024,-0.011,-0.019,-1.508,-0.016,-0.396,47.83,92.0,40.581944,-3.547116,618.6,4,5,135.4,2.461
48.76,1,-0.024,-0.011,0.011,-0.021,-0.009,0.002,-1.505,-0.015,-0.393,47.83,92.0,40.581944,-3.547116,618.6,4,5,135.4,2.461
48.86,1,0.007,-0.007,0.01,-0.014,-0.009,0.007,-1.504,-0.014,-0.39,47.83,92.0,40.581944,-3.547116,618.6,4,5,135.4,2.461
48.96,1,-0.026,-0.033,0.003,-0.01,-0.022,0.006,-1.499,-0.015,-0.387,47.83,92.0,40.581944,-3.547116,618.6,4,5,135.4,2.461
49.05,1,-0.016,-0.018,0.025,-0.013,-0.02,0.012,-1.498,-0.014,-0.384,48.84,91.5,40.581779,-3.546903,618.9,4,5,135.0,0.352
49.16,1,0.001,-0.022,0.014,-0.007,-0.021,0.017,-1.499,-0.014,-0.381,48.84,91.5,40.581779,-3.546903,618.9,4,5,135.0,0.352
49.25,1,-0.005,-0.021,0.007,-0.009,-0.016,0.01,-1.5,-0.014,-0.377,48.84,91.5,40.581779,-3.546903,618.9,4,5,135.0,0.352
49.35,1,-0.041,-0.023,0.003,-0.026,-0.021,0.004,-1.499,-0.015,-0.374,48.84,91.5,40.581779,-3.546903,618.9,4,5,135.0,0.352
49.46,1,-0.013,-0.014,-0.002,-0.021,-0.019,0.001,-1.5,-0.013,-0.371,48.84,91.5,40.581779,-3.546903,618.9,4,5,135.0,0.352
49.55,1,0.023,-0.009,-0.01,-0.003,-0.016,-0.003,-1.499,-0.011,-0.368,48.84,91.5,40.581779,-3.546903,618.9,4,5,135.0,0.352
49.65,1,0.002,-0.01,0.015,0.006,-0.017,0.007,-1.495,-0.012,-0.366,48.84,91.5,40.581779,-3.546903,618.9,4,5,135.0,0.352
49.75,1,-0.01,-0.061,0.0,-0.002,-0.027,0.003,-1.497,-0.014,-0.363,48.84,91.5,40.581779,-3.546903,618.9,4,5,135.0,0.352
49.86,1,-0.033,-0.018,0.036,-0.016,-0.031,0.016,-1.5,-0.015,-0.36,48.84,91.5,40.581779,-3.546903,618.9,4,5,135.0,0.352
49.96,1,-0.011,-0.018,0.025,-0.014,-0.021,0.025,-1.502,-0.017,-0.357,48.84,91.5,40.581779,-3.546903,618.9,4,5,135.0,0.352
50.06,1,0.026,-0.03,0.017,0.002,-0.03,0.02,-1.502,-0.016,-0.354,49.83,87.1,40.581631,-3.546714,619.1,4,5,135.0,0.352
50.16,1,-0.013,-0.039,0.022,0.002,-0.036,0.021,-1.504,-0.013,-0.351,49.83,87.1,40.581631,-3.546714,619.1,4,5,135.0,0.352
50.26,1,-0.022,-0.012,0.017,-0.014,-0.02,0.02,-1.508,-0.009,-0.348,49.83,87.1,40.581631,-3.546714,619.1,4,5,135.0,0.352
50.36,1,-0.036,0.005,0.001,-0.022,-0.006,0.015,-1.508,-0.006,-0.345,49.83,87.1,40.581631,-3.546714,619.1,4,5,135.0,0.352
50.46,1,0.039,-0.019,0.014,-0.003,-0.017,0.005,-1.508,-0.005,-0.342,49.83,87.1,40.581631,-3.546714,619.1,4,5,135.0,0.352
50.56,1,-0.027,-0.026,0.007,-0.003,-0.019,0.014,-1.507,-0.003,-0.339,49.83,87.1,40.581631,-3.546714,619.1,4,5,135.0,0.352
50.66,1,-0.021,-0.016,0.008,-0.013,-0.017,0.011,-1.507,-0.001,-0.336,49.83,87.1,40.581631,-3.546714,619.1,4,5,135.0,0.352
50.76,1,-0.001,0.016,0.021,-0.016,-0.003,0.012,-1.509,0.001,-0.333,49.83,87.1,40.581631,-3.546714,619.1,4,5,135.0,0.352
50.86,1,0.005,-0.017,0.033,-0.001,-0.004,0.026,-1.506,0.0,-0.33,49.83,87.1,40.581631,-3.546714,619.1,4,5,135.0,0.352
50.96,1,0.002,-0.022,-0.006,0.009,-0.016,0.008,-1.509,0.001,-0.327,49.83,87.1,40.581631,-3.546714,619.1,4,5,135.0,0.352
51.06,1,-0.012,-0.026,0.03,-0.005,-0.025,0.018,-1.513,0.005,-0.323,50.83,84.7,40.581478,-3.546512,619.3,4,5,135.0,0.0
51.16,1,-0.031,-0.006,0.031,-0.019,-0.018,0.023,-1.513,0.006,-0.32,50.83,84.7,40.581478,-3.546512,619.3,4,5,135.0,0.0
51.26,1,0.026,-0.013,0.002,-0.009,-0.01,0.016,-1.514,0.008,-0.317,50.83,84.7,40.581478,-3.546512,619.3,4,5,135.0,0.0
51.36,1,-0.027,0.012,-0.013,-0.004,0.004,-0.004,-1.517,0.009,-0.314,50.83,84.7,40.581478,-3.546512,619.3,4,5,135.0,0.0
51.46,1,0.032,-0.004,-0.01,0.005,-0.004,-0.003,-1.518,0.01,-0.311,50.83,84.7,40.581478,-3.546512,619.3,4,5,135.0,0.0
51.56,1,0.02,-0.022,0.018,0.016,-0.013,0.004,-1.52,0.01,-0.308,50.83,84.7,40.581478,-3.546512,619.3,4,5,135.0,0.0
51.66,1,-0.016,-0.02,0.007,0.006,-0.016,0.015,-1.518,0.01,-0.305,50.83,84.7,40.581478,-3.546512,619.3,4,5,135.0,0.0
51.76,1,-0.015,0.031,0.02,-0.008,0.003,0.007,-1.515,0.009,-0.303,50.83,84.7,40.581478,-3.546512,619.3,4,5,135.0,0.0
51.86,1,-0.009,0.007,-0.002,-0.008,0.013,0.006,-1.515,0.01,-0.3,50.83,84.7,40.581478,-3.546512,619.3,4,5,135.0,0.0
51.96,1,-0.03,0.011,0.032,-0.015,0.01,0.019,-1.515,0.009,-0.299,50.83,84.7,40.581478,-3.546512,619.3,4,5,135.0,0.0
52.06,1,-0.018,0.062,0.006,-0.024,0.027,0.01,-1.516,0.007,-0.297,51.83,83.7,40.581337,-3.546325,619.5,4,5,134.6,0.352
52.16,1,-0.007,0.055,0.03,-0.016,0.051,0.019,-1.517,0.005,-0.297,51.83,83.7,40.581337,-3.546325,619.5,4,5,134.6,0.352
52.26,1,-0.032,0.076,0.01,-0.016,0.061,0.018,-1.517,0.003,-0.298,51.83,83.7,40.581337,-3.546325,619.5,4,5,134.6,0.352
52.37,1,0.011,0.067,0.048,-0.013,0.062,0.029,-1.521,-0.005,-0.298,51.83,83.7,40.581337,-3.546325,619.5,4,5,134.6,0.352
52.46,1,0.018,0.075,0.041,0.0,0.075,0.04,-1.524,-0.014,-0.299,51.83,83.7,40.581337,-3.546325,619.5,4,5,134.6,0.352
52.56,1,0.031,0.047,0.021,0.027,0.066,0.031,-1.522,-0.016,-0.299,51.83,83.7,40.581337,-3.546325,619.5,4,5,134.6,0.352
52.66,1,-0.027,0.016,0.019,0.004,0.037,0.023,-1.52,-0.019,-0.299,51.83,83.7,40.581337,-3.546325,619.5,4,5,134.6,0.352
52.76,1,-0.08,0.006,0.004,-0.039,0.015,0.02,-1.522,-0.02,-0.298,51.83,83.7,40.581337,-3.546325,619.5,4,5,134.6,0.352
52.86,1,-0.02,0.002,0.013,-0.042,0.011,0.013,-1.527,-0.023,-0.297,51.83,83.7,40.581337,-3.546325,619.5,4,5,134.6,0.352
52.97,1,-0.016,0.009,0.025,-0.029,0.009,0.014,-1.532,-0.022,-0.296,51.83,83.7,40.581337,-3.546325,619.5,4,5,134.6,0.352
53.06,1,-0.022,-0.002,0.03,-0.02,0.001,0.024,-1.532,-0.022,-0.295,52.83,83.8,40.581181,-3.54612,619.6,4,5,135.0,0.352
53.17,1,0.014,0.006,0.023,-0.005,0.007,0.021,-1.528,-0.02,-0.294,52.83,83.8,40.581181,-3.54612,619.6,4,5,135.0,0.352
53.26,1,-0.016,0.007,0.032,-0.005,0.008,0.03,-1.531,-0.021,-0.292,52.83,83.8,40.581181,-3.54612,619.6,4,5,135.0,0.352
53.36,1,-0.004,-0.004,0.023,-0.009,-0.001,0.022,-1.535,-0.022,-0.291,52.83,83.8,40.581181,-3.54612,619.6,4,5,135.0,0.352
53.46,1,-0.005,-0.021,0.021,-0.009,-0.005,0.027,-1.539,-0.024,-0.289,52.83,83.8,40.581181,-3.54612,619.6,4,5,135.0,0.352
53.57,1,-0.036,-0.014,0.038,-0.016,-0.014,0.031,-1.542,-0.023,-0.288,52.83,83.8,40.581181,-3.54612,619.6,4,5,135.0,0.352
53.66,1,-0.021,-0.003,0.011,-0.025,-0.011,0.027,-1.547,-0.022,-0.287,52.83,83.8,40.581181,-3.54612,619.6,4,5,135.0,0.352
53.78,1,-0.025,-0.016,0.025,-0.021,-0.008,0.02,-1.551,-0.021,-0.285,52.83,83.8,40.581181,-3.54612,619.6,4,5,135.0,0.352
53.87,1,0.029,-0.018,0.008,-0.004,-0.016,0.014,-1.552,-0.023,-0.283,52.83,83.8,40.581181,-3.54612,619.6,4,5,135.0,0.352
53.97,1,-0.006,-0.051,0.01,0.007,-0.033,0.013,-1.551,-0.019,-0.279,52.83,83.8,40.581181,-3.54612,619.6,4,5,135.0,0.352
54.07,1,-0.012,-0.084,0.009,-0.005,-0.059,0.012,-1.552,-0.011,-0.275,53.83,81.4,40.581039,-3.545931,619.8,4,5,135.0,0.352
54.17,1,-0.036,-0.077,0.001,-0.023,-0.07,0.005,-1.551,-0.007,-0.271,53.83,81.4,40.581039,-3.545931,619.8,4,5,135.0,0.352
54.27,1,-0.036,-0.036,0.042,-0.03,-0.058,0.021,-1.552,-0.003,-0.267,53.83,81.4,40.581039,-3.545931,619.8,4,5,135.0,0.352
54.37,1,-0.037,-0.033,-0.026,-0.036,-0.033,0.0,-1.553,-0.003,-0.264,53.83,81.4,40.581039,-3.545931,619.8,4,5,135.0,0.352
54.48,1,-0.016,-0.067,0.033,-0.027,-0.059,0.01,-1.554,-0.002,-0.259,53.83,81.4,40.581039,-3.545931,619.8,4,5,135.0,0.352
54.57,1,-0.006,-0.081,0.035,-0.015,-0.065,0.027,-1.554,-0.002,-0.255,53.83,81.4,40.581039,-3.545931,619.8,4,5,135.0,0.352
54.67,1,-0.006,-0.068,0.033,-0.006,-0.071,0.031,-1.554,-0.001,-0.25,53.83,81.4,40.581039,-3.545931,619.8,4,5,135.0,0.352
54.77,1,-0.02,-0.077,0.021,-0.017,-0.072,0.027,-1.554,-0.001,-0.246,53.83,81.4,40.581039,-3.545931,619.8,4,5,135.0,0.352
54.88,1,0.003,-0.055,0.001,-0.006,-0.063,0.02,-1.554,-0.002,-0.242,53.83,81.4,40.581039,-3.545931,619.8,4,5,135.0,0.352
54.97,1,-0.012,-0.041,-0.003,-0.006,-0.058,0.003,-1.554,0.001,-0.238,53.83,81.4,40.581039,-3.545931,619.8,4,5,135.0,0.352
55.07,1,0.005,-0.021,0.036,-0.002,-0.039,0.014,-1.558,0.003,-0.235,54.83,81.4,40.580898,-3.545747,619.9,4,5,134.6,0.352
55.17,1,-0.01,-0.005,0.009,-0.002,-0.018,0.018,-1.561,0.006,-0.231,54.83,81.4,40.580898,-3.545747,619.9,4,5,134.6,0.352
55.27,1,-0.011,0.035,-0.018,-0.003,-0.003,0.003,-1.567,0.007,-0.229,54.83,81.4,40.580898,-3.545747,619.9,4,5,134.6,0.352
55.38,1,0.001,0.003,-0.029,-0.009,0.013,-0.018,-1.569,0.006,-0.227,54.83,81.4,40.580898,-3.545747,619.9,4,5,134.6,0.352
55.48,1,-0.009,0.016,0.017,-0.008,0.012,-0.003,-1.57,0.005,-0.226,54.83,81.4,40.580898,-3.545747,619.9,4,5,134.6,0.352
55.58,1,-0.015,0.035,0.016,-0.01,0.023,0.01,-1.571,0.004,-0.225,54.83,81.4,40.580898,-3.545747,619.9,4,5,134.6,0.352
55.67,1,-0.009,0.044,0.003,-0.014,0.037,0.004,-1.57,0.004,-0.224,54.83,81.4,40.580898,-3.545747,619.9,4,5,134.6,0.352
55.78,1,-0.015,0.055,-0.005,-0.01,0.043,0.001,-1.57,0.004,-0.224,54.83,81.4,40.580898,-3.545747,619.9,4,5,134.6,0.352
55.87,1,-0.028,0.051,-0.005,-0.015,0.054,-0.003,-1.57,0.005,-0.224,54.83,81.4,40.580898,-3.545747,619.9,4,5,134.6,0.352
55.97,1,-0.004,0.038,-0.021,-0.02,0.049,-0.007,-1.57,0.003,-0.223,54.83,81.4,40.580898,-3.545747,619.9,4,5,134.6,0.352
56.07,1,0.023,0.014,0.006,0.005,0.027,-0.004,-1.569,-0.005,-0.223,55.83,81.0,40.580761,-3.54554,620.1,4,5,133.2,1.758
56.17,1,-0.022,0.032,0.015,-0.004,0.023,0.004,-1.567,-0.008,-0.223,55.83,81.0,40.580761,-3.54554,620.1,4,5,133.2,1.758
56.27,1,-0.016,0.025,0.018,-0.01,0.028,0.009,-1.566,-0.008,-0.223,55.83,81.0,40.580761,-3.54554,620.1,4,5,133.2,1.758
56.37,1,-0.008,0.029,0.004,-0.017,0.033,0.009,-1.566,-0.011,-0.223,55.83,81.0,40.580761,-3.54554,620.1,4,5,133.2,1.758
56.47,1,0.006,0.016,0.042,-0.001,0.022,0.021,-1.568,-0.013,-0.224,55.83,81.0,40.580761,-3.54554,620.1,4,5,133.2,1.758
56.57,1,0.005,0.045,0.018,0.003,0.026,0.028,-1.569,-0.019,-0.224,55.83,81.0,40.580761,-3.54554,620.1,4,5,133.2,1.758
56.67,1,0.008,0.024,-0.001,0.0,0.029,0.012,-1.571,-0.023,-0.224,55.83,81.0,40.580761,-3.54554,620.1,4,5,133.2,1.758
56.78,1,-0.007,0.01,0.023,0.012,0.018,0.016,-1.569,-0.029,-0.225,55.83,81.0,40.580761,-3.54554,620.1,4,5,133.2,1.758
56.87,1,-0.008,0.016,-0.007,-0.014,0.02,0.004,-1.57,-0.029,-0.224,55.83,81.0,40.580761,-3.54554,620.1,4,5,133.2,1.758
56.97,1,0.001,0.023,0.016,-0.004,0.021,0.009,-1.572,-0.027,-0.225,55.83,81.0,40.580761,-3.54554,620.1,4,5,133.2,1.758
57.07,1,-0.004,-0.008,0.026,0.001,0.006,0.018,-1.571,-0.03,-0.225,56.83,81.0,40.580627,-3.545337,620.6,4,5,132.9,1.758
57.18,1,0.004,0.007,0.02,-0.002,0.006,0.018,-1.568,-0.033,-0.225,56.83,81.0,40.580627,-3.545337,620.6,4,5,132.9,1.758
57.29,1,-0.001,-0.006,0.003,-0.001,0.004,0.015,-1.566,-0.035,-0.225,56.83,81.0,40.580627,-3.545337,620.6,4,5,132.9,1.758
57.38,1,-0.007,0.003,0.009,-0.003,0.006,0.007,-1.565,-0.039,-0.224,56.83,81.0,40.580627,-3.545337,620.6,4,5,132.9,1.758
57.49,1,-0.016,-0.044,-0.017,-0.009,-0.022,-0.002,-1.565,-0.039,-0.223,56.83,81.0,40.580627,-3.545337,620.6,4,5,132.9,1.758
57.58,1,-0.014,-0.076,0.028,-0.009,-0.048,0.007,-1.565,-0.038,-0.221,56.83,81.0,40.580627,-3.545337,620.6,4,5,132.9,1.758
57.68,1,-0.01,-0.086,0.002,-0.014,-0.065,0.007,-1.565,-0.036,-0.219,56.83,81.0,40.580627,-3.545337,620.6,4,5,132.9,1.758
57.78,1,0.0,-0.067,-0.012,-0.009,-0.073,0.007,-1.567,-0.034,-0.217,56.83,81.0,40.580627,-3.545337,620.6,4,5,132.9,1.758
57.88,1,0.02,-0.062,0.015,0.009,-0.068,0.002,-1.572,-0.03,-0.214,56.83,81.0,40.580627,-3.545337,620.6,4,5,132.9,1.758
57.98,1,0.001,-0.035,-0.013,0.005,-0.049,0.001,-1.572,-0.03,-0.212,56.83,81.0,40.580627,-3.545337,620.6,4,5,132.9,1.758
58.09,1,-0.018,-0.065,-0.028,-0.005,-0.05,-0.02,-1.571,-0.03,-0.209,57.83,80.9,40.580482,-3.545141,620.8,4,5,133.2,0.352
58.18,1,0.0,-0.05,-0.007,-0.01,-0.061,-0.012,-1.571,-0.03,-0.207,57.83,80.9,40.580482,-3.545141,620.8,4,5,133.2,0.352
58.28,1,-0.01,-0.041,-0.005,0.002,-0.057,-0.006,-1.57,-0.029,-0.204,57.83,80.9,40.580482,-3.545141,620.8,4,5,133.2,0.352
58.38,1,-0.007,-0.065,-0.039,-0.005,-0.048,-0.023,-1.57,-0.021,-0.201,57.83,80.9,40.580482,-3.545141,620.8,4,5,133.2,0.352
58.48,1,-0.043,-0.034,0.0,-0.024,-0.047,-0.018,-1.57,-0.015,-0.198,57.83,80.9,40.580482,-3.545141,620.8,4,5,133.2,0.352
58.59,1,-0.006,-0.062,0.018,-0.023,-0.052,0.003,-1.57,-0.015,-0.195,57.83,80.9,40.580482,-3.545141,620.8,4,5,133.2,0.352
58.69,1,-0.018,-0.056,-0.011,-0.015,-0.056,0.0,-1.568,-0.013,-0.192,57.83,80.9,40.580482,-3.545141,620.8,4,5,133.2,0.352
58.79,1,-0.03,-0.04,-0.001,-0.024,-0.049,-0.003,-1.568,-0.007,-0.19,57.83,80.9,40.580482,-3.545141,620.8,4,5,133.2,0.352
58.88,1,-0.006,-0.017,0.011,-0.018,-0.034,0.001,-1.57,-0.005,-0.187,57.83,80.9,40.580482,-3.545141,620.8,4,5,133.2,0.352
58.98,1,-0.026,-0.002,-0.016,-0.017,-0.014,0.0,-1.569,-0.004,-0.185,57.83,80.9,40.580482,-3.545141,620.8,4,5,133.2,0.352
59.08,1,0.026,-0.032,0.007,-0.005,-0.02,-0.004,-1.571,-0.005,-0.182,58.83,81.1,40.580349,-3.54494,621.2,4,5,133.2,0.352
59.18,1,0.032,-0.009,-0.009,0.011,-0.019,-0.003,-1.572,-0.005,-0.181,58.83,81.1,40.580349,-3.54494,621.2,4,5,133.2,0.352
59.29,1,-0.02,-0.019,-0.001,0.013,-0.02,0.001,-1.569,-0.002,-0.179,58.83,81.1,40.580349,-3.54494,621.2,4,5,133.2,0.352
59.38,1,-0.008,-0.004,0.019,-0.004,-0.008,0.004,-1.569,0.001,-0.177,58.83,81.1,40.580349,-3.54494,621.2,4,5,133.2,0.352
59.48,1,-0.014,0.003,-0.01,-0.01,-0.004,0.001,-1.568,0.005,-0.175,58.83,81.1,40.580349,-3.54494,621.2,4,5,133.2,0.352
59.58,1,0.013,-0.046,0.032,0.001,-0.017,0.011,-1.566,0.004,-0.173,58.83,81.1,40.580349,-3.54494,621.2,4,5,133.2,0.352
59.69,1,0.01,0.036,-0.014,0.003,0.002,0.005,-1.566,0.007,-0.172,58.83,81.1,40.580349,-3.54494,621.2,4,5,133.2,0.352
59.78,1,-0.002,0.002,0.0,0.007,0.0,0.003,-1.566,0.008,-0.171,58.83,81.1,40.580349,-3.54494,621.2,4,5,133.2,0.352
59.88,1,-0.002,-0.023,0.033,-0.001,-0.007,0.011,-1.565,0.006,-0.169,58.83,81.1,40.580349,-3.54494,621.2,4,5,133.2,0.352
59.99,1,-0.031,0.025,0.014,-0.017,0.007,0.015,-1.563,0.002,-0.168,58.83,81.1,40.580349,-3.54494,621.2,4,5,133.2,0.352
60.08,1,-0.026,-0.018,-0.033,-0.025,0.002,-0.005,-1.564,0.002,-0.167,59.85,80.7,40.580208,-3.544745,621.6,4,5,131.8,1.406
60.19,1,-0.006,0.022,0.006,-0.011,-0.001,-0.006,-1.564,0.002,-0.166,59.85,80.7,40.580208,-3.544745,621.6,4,5,131.8,1.406
60.28,1,0.013,0.001,0.004,-0.003,0.013,0.006,-1.564,0.002,-0.164,59.85,80.7,40.580208,-3.544745,621.6,4,5,131.8,1.406
60.38,1,0.001,0.018,-0.028,0.0,0.007,-0.01,-1.563,0.002,-0.163,59.85,80.7,40.580208,-3.544745,621.6,4,5,131.8,1.406
60.54,1,0.004,0.016,0.023,0.008,0.009,-0.001,-1.562,0.002,-0.162,59.85,80.7,40.580208,-3.544745,621.6,4,5,131.8,1.406
60.58,1,-0.057,0.032,-0.029,-0.027,0.025,-0.011,-1.562,0.002,-0.161,59.85,80.7,40.580208,-3.544745,621.6,4,5,131.8,1.406
60.68,1,-0.011,0.018,-0.01,-0.024,0.027,-0.017,-1.562,0.002,-0.16,59.85,80.7,40.580208,-3.544745,621.6,4,5,131.8,1.406
60.79,1,0.036,-0.01,0.0,-0.003,0.012,-0.005,-1.562,0.002,-0.159,59.85,80.7,40.580208,-3.544745,621.6,4,5,131.8,1.406
60.89,1,-0.024,0.029,-0.001,0.01,0.004,0.009,-1.562,0.001,-0.159,59.85,80.7,40.580208,-3.544745,621.6,4,5,131.8,1.406
60.99,1,0.028,-0.006,0.02,0.011,0.011,-0.0,-1.561,0.002,-0.158,59.85,80.7,40.580208,-3.544745,621.6,4,5,131.8,1.406
61.1,1,-0.011,0.012,-0.006,-0.001,0.009,0.002,-1.562,0.003,-0.157,60.81,80.5,40.580074,-3.544544,622.4,4,5,131.1,2.109
61.2,1,-0.037,0.043,0.042,-0.02,0.014,0.022,-1.563,0.003,-0.156,60.81,80.5,40.580074,-3.544544,622.4,4,5,131.1,2.109
61.29,1,-0.023,0.041,-0.006,-0.026,0.041,0.009,-1.562,0.003,-0.156,60.81,80.5,40.580074,-3.544544,622.4,4,5,131.1,2.109
61.39,1,0.022,-0.001,0.009,-0.007,0.022,0.008,-1.562,0.003,-0.156,60.81,80.5,40.580074,-3.544544,622.4,4,5,131.1,2.109
61.49,1,-0.007,0.018,0.008,0.005,0.012,0.015,-1.561,0.003,-0.155,60.81,80.5,40.580074,-3.544544,622.4,4,5,131.1,2.109
61.59,1,-0.029,0.035,0.004,-0.01,0.02,0.003,-1.561,0.003,-0.155,60.81,80.5,40.580074,-3.544544,622.4,4,5,131.1,2.109
61.69,1,-0.022,0.007,0.01,-0.022,0.025,0.004,-1.559,0.003,-0.154,60.81,80.5,40.580074,-3.544544,622.4,4,5,131.1,2.109
61.79,1,-0.011,0.027,0.006,-0.016,0.018,0.009,-1.557,-0.0,-0.154,60.81,80.5,40.580074,-3.544544,622.4,4,5,131.1,2.109
61.89,1,-0.065,-0.003,0.023,-0.032,0.009,0.014,-1.558,-0.002,-0.154,60.81,80.5,40.580074,-3.544544,622.4,4,5,131.1,2.109
61.99,1,0.031,0.017,0.003,-0.025,0.008,0.012,-1.558,-0.003,-0.153,60.81,80.5,40.580074,-3.544544,622.4,4,5,131.1,2.109
62.09,1,0.014,0.018,0.002,0.011,0.018,0.007,-1.556,-0.009,-0.153,61.84,80.2,40.579945,-3.544346,622.7,4,5,130.4,1.406
62.19,1,-0.003,0.011,0.009,0.01,0.017,-0.002,-1.556,-0.02,-0.153,61.84,80.2,40.579945,-3.544346,622.7,4,5,130.4,1.406
62.29,1,-0.014,-0.016,-0.006,-0.001,0.004,0.006,-1.559,-0.022,-0.153,61.84,80.2,40.579945,-3.544346,622.7,4,5,130.4,1.406
62.4,1,-0.054,0.025,0.012,-0.031,0.008,0.003,-1.553,-0.024,-0.154,61.84,80.2,40.579945,-3.544346,622.7,4,5,130.4,1.406
62.49,1,0.007,-0.006,0.022,-0.027,0.002,0.016,-1.554,-0.024,-0.153,61.84,80.2,40.579945,-3.544346,622.7,4,5,130.4,1.406
62.59,1,0.022,0.011,0.055,0.006,0.006,0.028,-1.555,-0.024,-0.154,61.84,80.2,40.579945,-3.544346,622.7,4,5,130.4,1.406
62.69,1,0.029,0.012,0.006,0.02,0.012,0.029,-1.555,-0.025,-0.154,61.84,80.2,40.579945,-3.544346,622.7,4,5,130.4,1.406
62.8,1,0.028,-0.012,-0.003,0.028,-0.001,0.01,-1.557,-0.025,-0.153,61.84,80.2,40.579945,-3.544346,622.7,4,5,130.4,1.406
62.89,1,-0.028,0.009,0.011,0.003,-0.002,0.006,-1.556,-0.025,-0.153,61.84,80.2,40.579945,-3.544346,622.7,4,5,130.4,1.406
63.0,1,0.002,-0.046,0.031,-0.007,-0.016,0.022,-1.56,-0.025,-0.152,61.84,80.2,40.579945,-3.544346,622.7,4,5,130.4,1.406
63.1,1,-0.026,-0.019,-0.016,-0.008,-0.023,0.006,-1.561,-0.022,-0.152,62.88,79.7,40.579811,-3.54415,623.1,4,5,130.1,1.055
63.19,1,-0.008,-0.026,0.007,-0.015,-0.023,0.003,-1.561,-0.015,-0.15,62.88,79.7,40.579811,-3.54415,623.1,4,5,130.1,1.055
63.29,1,-0.017,-0.011,0.004,-0.015,-0.019,0.006,-1.563,-0.009,-0.149,62.88,79.7,40.579811,-3.54415,623.1,4,5,130.1,1.055
63.39,1,-0.017,-0.045,0.033,-0.014,-0.031,0.017,-1.564,-0.007,-0.147,62.88,79.7,40.579811,-3.54415,623.1,4,5,130.1,1.055
63.49,1,-0.008,-0.008,0.021,-0.016,-0.022,0.016,-1.565,-0.006,-0.145,62.88,79.7,40.579811,-3.54415,623.1,4,5,130.1,1.055
63.6,1,-0.001,-0.025,0.007,-0.006,-0.021,0.015,-1.565,-0.003,-0.143,62.88,79.7,40.579811,-3.54415,623.1,4,5,130.1,1.055
63.69,1,0.029,-0.025,0.008,0.01,-0.02,0.011,-1.564,-0.001,-0.141,62.88,79.7,40.579811,-3.54415,623.1,4,5,130.1,1.055
63.79,1,0.019,-0.032,0.025,0.02,-0.024,0.016,-1.562,0.001,-0.14,62.88,79.7,40.579811,-3.54415,623.1,4,5,130.1,1.055
63.89,1,-0.001,-0.02,0.005,0.01,-0.026,0.014,-1.56,0.002,-0.138,62.88,79.7,40.579811,-3.54415,623.1,4,5,130.1,1.055
63.99,1,-0.009,-0.006,0.013,0.001,-0.017,0.013,-1.561,0.001,-0.137,62.88,79.7,40.579811,-3.54415,623.1,4,5,130.1,1.055
64.09,1,0.001,-0.015,0.002,-0.002,-0.018,0.007,-1.563,0.004,-0.135,63.82,79.8,40.579685,-3.543946,623.6,4,5,130.1,0.352
64.2,1,-0.012,-0.0,0.014,-0.007,-0.008,0.01,-1.566,0.008,-0.134,63.82,79.8,40.579685,-3.543946,623.6,4,5,130.1,0.352
64.3,1,-0.043,-0.007,0.013,-0.02,-0.009,0.017,-1.568,0.01,-0.132,63.82,79.8,40.579685,-3.543946,623.6,4,5,130.1,0.352
64.4,1,-0.019,-0.037,0.002,-0.029,-0.018,0.0,-1.567,0.01,-0.13,63.82,79.8,40.579685,-3.543946,623.6,4,5,130.1,0.352
64.5,1,0.004,-0.012,0.017,-0.012,-0.016,0.011,-1.567,0.009,-0.129,63.82,79.8,40.579685,-3.543946,623.6,4,5,130.1,0.352
64.6,1,0.031,-0.02,0.001,0.011,-0.019,0.01,-1.565,0.008,-0.127,63.82,79.8,40.579685,-3.543946,623.6,4,5,130.1,0.352
64.7,1,-0.013,-0.022,-0.008,0.007,-0.018,0.001,-1.565,0.012,-0.125,63.82,79.8,40.579685,-3.543946,623.6,4,5,130.1,0.352
64.8,1,0.002,0.002,0.001,-0.009,-0.012,-0.005,-1.568,0.015,-0.123,63.82,79.8,40.579685,-3.543946,623.6,4,5,130.1,0.352
64.9,1,-0.001,-0.007,0.016,0.004,-0.009,0.007,-1.565,0.015,-0.121,63.82,79.8,40.579685,-3.543946,623.6,4,5,130.1,0.352
65.0,1,-0.012,-0.024,0.037,-0.002,-0.014,0.021,-1.567,0.017,-0.119,63.82,79.8,40.579685,-3.543946,623.6,4,5,130.1,0.352
65.1,1,0.021,0.013,0.015,0.005,-0.003,0.025,-1.567,0.017,-0.118,64.84,80.3,40.579563,-3.543731,624.0,4,5,129.0,1.055
65.2,1,0.026,0.003,-0.014,0.013,0.004,0.002,-1.565,0.02,-0.116,64.84,80.3,40.579563,-3.543731,624.0,4,5,129.0,1.055
65.3,1,-0.016,-0.003,0.011,0.008,-0.0,0.004,-1.563,0.021,-0.114,64.84,80.3,40.579563,-3.543731,624.0,4,5,129.0,1.055
65.4,1,0.01,-0.014,0.038,0.005,-0.011,0.014,-1.565,0.024,-0.112,64.84,80.3,40.579563,-3.543731,624.0,4,5,129.0,1.055
65.51,1,-0.04,0.003,0.004,-0.017,-0.002,0.017,-1.565,0.026,-0.11,64.84,80.3,40.579563,-3.543731,624.0,4,5,129.0,1.055
65.6,1,0.01,-0.008,0.019,-0.011,-0.005,0.017,-1.567,0.025,-0.109,64.84,80.3,40.579563,-3.543731,624.0,4,5,129.0,1.055
65.7,1,0.021,0.009,-0.014,0.01,0.003,0.002,-1.566,0.026,-0.107,64.84,80.3,40.579563,-3.543731,624.0,4,5,129.0,1.055
65.8,1,0.003,-0.003,-0.004,0.009,0.0,-0.001,-1.565,0.028,-0.105,64.84,80.3,40.579563,-3.543731,624.0,4,5,129.0,1.055
65.9,1,-0.02,0.024,-0.006,-0.006,0.013,-0.003,-1.566,0.026,-0.103,64.84,80.3,40.579563,-3.543731,624.0,4,5,129.0,1.055
66.01,1,0.003,0.013,0.024,-0.007,0.011,0.008,-1.568,0.026,-0.101,64.84,80.3,40.579563,-3.543731,624.0,4,5,129.0,1.055
66.1,1,0.008,0.017,-0.002,0.006,0.014,0.006,-1.568,0.027,-0.1,65.81,79.8,40.579437,-3.543527,624.2,4,5,127.6,2.461
66.2,1,-0.012,-0.016,0.018,-0.004,0.001,0.009,-1.567,0.028,-0.098,65.81,79.8,40.579437,-3.543527,624.2,4,5,127.6,2.461
66.3,1,0.032,-0.027,0.023,0.013,-0.013,0.014,-1.567,0.028,-0.096,65.81,79.8,40.579437,-3.543527,624.2,4,5,127.6,2.461
66.4,1,-0.012,0.034,-0.018,0.005,0.008,0.001,-1.567,0.029,-0.096,65.81,79.8,40.579437,-3.543527,624.2,4,5,127.6,2.461
66.51,1,-0.042,0.008,-0.001,-0.019,0.007,0.002,-1.571,0.029,-0.094,65.81,79.8,40.579437,-3.543527,624.2,4,5,127.6,2.461
66.6,1,-0.035,0.009,0.009,-0.028,0.012,-0.0,-1.574,0.027,-0.093,65.81,79.8,40.579437,-3.543527,624.2,4,5,127.6,2.461
66.71,1,0.005,0.017,0.001,-0.016,0.013,0.007,-1.575,0.026,-0.093,65.81,79.8,40.579437,-3.543527,624.2,4,5,127.6,2.461
66.8,1,-0.015,0.03,-0.011,-0.015,0.02,0.002,-1.575,0.024,-0.092,65.81,79.8,40.579437,-3.543527,624.2,4,5,127.6,2.461
66.9,1,-0.018,0.017,0.002,-0.014,0.018,-0.007,-1.573,0.022,-0.091,65.81,79.8,40.579437,-3.543527,624.2,4,5,127.6,2.461
67.0,1,0.006,0.02,0.014,-0.009,0.015,0.005,-1.573,0.02,-0.09,65.81,79.8,40.579437,-3.543527,624.2,4,5,127.6,2.461
67.11,1,-0.017,0.01,-0.018,-0.006,0.019,-0.003,-1.57,0.022,-0.09,66.89,80.1,40.579319,-3.543316,624.7,4,5,126.2,2.812
67.21,1,0.005,0.003,0.013,-0.006,0.012,-0.002,-1.569,0.018,-0.089,66.89,80.1,40.579319,-3.543316,624.7,4,5,126.2,2.812
67.3,1,-0.006,0.021,0.001,-0.003,0.015,0.005,-1.567,0.012,-0.088,66.89,80.1,40.579319,-3.543316,624.7,4,5,126.2,2.812
67.4,1,0.005,0.022,-0.011,-0.001,0.02,-0.007,-1.566,0.008,-0.088,66.89,80.1,40.579319,-3.543316,624.7,4,5,126.2,2.812
67.5,1,-0.015,0.004,-0.008,-0.003,0.011,-0.003,-1.565,0.006,-0.087,66.89,80.1,40.579319,-3.543316,624.7,4,5,126.2,2.812
67.6,1,0.011,0.002,0.034,-0.003,0.007,0.01,-1.567,0.006,-0.086,66.89,80.1,40.579319,-3.543316,624.7,4,5,126.2,2.812
67.7,1,0.006,0.01,-0.014,-0.002,0.012,0.002,-1.57,0.011,-0.085,66.89,80.1,40.579319,-3.543316,624.7,4,5,126.2,2.812
67.81,1,0.016,0.012,-0.003,0.018,-0.002,0.001,-1.574,0.014,-0.085,66.89,80.1,40.579319,-3.543316,624.7,4,5,126.2,2.812
67.92,1,-0.079,0.014,-0.027,-0.026,0.017,-0.015,-1.575,0.015,-0.084,66.89,80.1,40.579319,-3.543316,624.7,4,5,126.2,2.812
68.01,1,-0.034,0.013,0.007,-0.043,0.015,-0.006,-1.57,0.013,-0.083,66.89,80.1,40.579319,-3.543316,624.7,4,5,126.2,2.812
68.11,1,-0.004,0.017,0.004,-0.026,0.014,-0.0,-1.568,0.009,-0.083,67.84,79.8,40.579197,-3.54311,624.9,4,5,124.8,2.812
68.21,1,-0.051,0.015,0.01,-0.023,0.01,0.011,-1.567,0.006,-0.083,67.84,79.8,40.579197,-3.54311,624.9,4,5,124.8,2.812
68.31,1,0.016,0.01,0.011,-0.02,0.012,0.008,-1.569,0.003,-0.082,67.84,79.8,40.579197,-3.54311,624.9,4,5,124.8,2.812
68.41,1,0.059,0.045,-0.0,0.012,0.028,0.008,-1.569,-0.003,-0.083,67.84,79.8,40.579197,-3.54311,624.9,4,5,124.8,2.812
68.52,1,-0.017,0.016,-0.006,0.02,0.03,-0.003,-1.572,-0.005,-0.084,67.84,79.8,40.579197,-3.54311,624.9,4,5,124.8,2.812
68.62,1,0.011,0.076,-0.01,0.008,0.047,-0.006,-1.574,-0.011,-0.085,67.84,79.8,40.579197,-3.54311,624.9,4,5,124.8,2.812
68.71,1,-0.004,0.052,-0.005,0.004,0.053,-0.009,-1.576,-0.011,-0.087,67.84,79.8,40.579197,-3.54311,624.9,4,5,124.8,2.812
68.81,1,-0.01,0.129,-0.005,-0.007,0.074,-0.01,-1.576,-0.014,-0.093,67.84,79.8,40.579197,-3.54311,624.9,4,5,124.8,2.812
68.91,1,-0.044,0.242,-0.033,-0.021,0.158,-0.018,-1.576,-0.02,-0.103,67.84,79.8,40.579197,-3.54311,624.9,4,5,124.8,2.812
69.01,1,0.009,0.325,-0.004,-0.009,0.249,-0.01,-1.576,-0.026,-0.116,67.84,79.8,40.579197,-3.54311,624.9,4,5,124.8,2.812
69.11,1,0.005,0.241,-0.027,-0.001,0.268,-0.016,-1.576,-0.023,-0.126,68.81,80.3,40.579075,-3.542892,624.9,4,5,124.5,1.758
69.21,1,-0.006,0.091,-0.003,-0.004,0.19,-0.013,-1.576,-0.015,-0.13,68.81,80.3,40.579075,-3.542892,624.9,4,5,124.5,1.758
69.31,1,0.008,-0.053,0.008,-0.001,0.072,-0.006,-1.576,-0.007,-0.131,68.81,80.3,40.579075,-3.542892,624.9,4,5,124.5,1.758
69.41,1,-0.016,-0.062,-0.003,-0.002,-0.013,-0.002,-1.576,-0.005,-0.131,68.81,80.3,40.579075,-3.542892,624.9,4,5,124.5,1.758
69.51,1,-0.045,0.032,-0.007,-0.024,-0.015,-0.002,-1.577,-0.008,-0.132,68.81,80.3,40.579075,-3.542892,624.9,4,5,124.5,1.758
69.61,1,-0.028,0.009,-0.033,-0.029,0.003,-0.016,-1.577,-0.01,-0.132,68.81,80.3,40.579075,-3.542892,624.9,4,5,124.5,1.758
69.71,1,0.014,-0.011,-0.013,-0.009,0.006,-0.021,-1.577,-0.011,-0.132,68.81,80.3,40.579075,-3.542892,624.9,4,5,124.5,1.758
69.82,1,0.009,-0.013,-0.011,-0.003,-0.005,-0.011,-1.576,-0.01,-0.131,68.81,80.3,40.579075,-3.542892,624.9,4,5,124.5,1.758
69.91,1,0.018,-0.027,0.002,0.012,-0.02,-0.006,-1.575,-0.01,-0.13,68.81,80.3,40.579075,-3.542892,624.9,4,5,124.5,1.758
70.01,1,-0.02,-0.04,-0.001,0.004,-0.027,-0.009,-1.58,-0.004,-0.129,68.81,80.3,40.579075,-3.542892,624.9,4,5,124.5,1.758
70.11,1,-0.028,-0.012,-0.043,-0.015,-0.023,-0.015,-1.582,0.002,-0.128,69.88,79.9,40.578964,-3.542683,625.2,4,5,124.5,0.352
70.22,1,-0.019,-0.014,-0.01,-0.018,-0.015,-0.016,-1.582,0.001,-0.127,69.88,79.9,40.578964,-3.542683,625.2,4,5,124.5,0.352
70.31,1,-0.004,-0.007,-0.003,-0.023,-0.018,-0.011,-1.582,0.003,-0.125,69.88,79.9,40.578964,-3.542683,625.2,4,5,124.5,0.352
70.42,1,-0.014,0.001,-0.012,-0.009,-0.006,-0.008,-1.585,0.003,-0.124,69.88,79.9,40.578964,-3.542683,625.2,4,5,124.5,0.352
70.51,1,-0.034,0.01,-0.007,-0.022,0.001,-0.011,-1.584,0.008,-0.123,69.88,79.9,40.578964,-3.542683,625.2,4,5,124.5,0.352
70.61,1,-0.007,-0.01,-0.036,-0.015,0.004,-0.02,-1.582,0.004,-0.122,69.88,79.9,40.578964,-3.542683,625.2,4,5,124.5,0.352
70.71,1,-0.017,-0.025,0.002,-0.016,-0.015,-0.018,-1.582,0.004,-0.121,69.88,79.9,40.578964,-3.542683,625.2,4,5,124.5,0.352
70.81,1,-0.024,-0.01,-0.015,-0.022,-0.016,-0.01,-1.584,0.005,-0.121,69.88,79.9,40.578964,-3.542683,625.2,4,5,124.5,0.352
71.02,1,-0.017,0.022,-0.022,-0.019,0.004,-0.017,-1.584,0.003,-0.12,69.88,79.9,40.578964,-3.542683,625.2,4,5,124.5,0.352
71.11,1,-0.012,0.003,0.005,-0.004,0.006,-0.012,-1.581,0.001,-0.119,69.88,79.9,40.578964,-3.542683,625.2,4,5,124.5,0.352
71.22,1,-0.005,0.013,-0.015,-0.015,0.013,-0.01,-1.578,-0.001,-0.119,70.82,80.4,40.578842,-3.542473,625.4,4,5,126.2,1.758
71.31,1,-0.038,0.041,-0.014,-0.022,0.019,-0.009,-1.58,-0.002,-0.119,70.82,80.4,40.578842,-3.542473,625.4,4,5,126.2,1.758
71.42,1,-0.015,0.003,0.004,-0.02,0.018,-0.01,-1.583,-0.0,-0.119,70.82,80.4,40.578842,-3.542473,625.4,4,5,126.2,1.758
71.52,1,-0.032,0.004,-0.014,-0.027,0.009,-0.003,-1.585,-0.0,-0.119,70.82,80.4,40.578842,-3.542473,625.4,4,5,126.2,1.758
71.62,1,-0.005,0.017,-0.016,-0.018,0.013,-0.007,-1.584,-0.001,-0.119,70.82,80.4,40.578842,-3.542473,625.4,4,5,126.2,1.758
71.72,1,0.018,0.015,-0.027,-0.002,0.013,-0.024,-1.583,-0.004,-0.119,70.82,80.4,40.578842,-3.542473,625.4,4,5,126.2,1.758
71.82,1,-0.037,0.0,-0.038,-0.015,0.007,-0.028,-1.579,-0.004,-0.119,70.82,80.4,40.578842,-3.542473,625.4,4,5,126.2,1.758
71.92,1,-0.026,0.01,0.032,-0.014,0.007,-0.006,-1.577,-0.002,-0.119,70.82,80.4,40.578842,-3.542473,625.4,4,5,126.2,1.758
72.02,1,-0.004,-0.005,-0.039,-0.021,0.006,-0.016,-1.575,0.0,-0.119,70.82,80.4,40.578842,-3.542473,625.4,4,5,126.2,1.758
72.12,1,0.011,-0.033,0.013,-0.008,-0.009,-0.006,-1.575,0.001,-0.118,70.82,80.4,40.578842,-3.542473,625.4,4,5,126.2,1.758
72.22,1,0.005,-0.013,-0.007,0.007,-0.023,-0.002,-1.575,0.001,-0.117,71.92,80.6,40.57872,-3.54225,625.6,4,5,125.2,1.055
72.32,1,-0.009,-0.004,-0.032,0.002,-0.011,-0.013,-1.576,0.002,-0.117,71.92,80.6,40.57872,-3.54225,625.6,4,5,125.2,1.055
72.42,1,-0.004,-0.025,-0.006,-0.008,-0.011,-0.017,-1.575,0.002,-0.116,71.92,80.6,40.57872,-3.54225,625.6,4,5,125.2,1.055
72.52,1,-0.01,-0.001,0.001,-0.004,-0.016,-0.002,-1.574,0.002,-0.115,71.92,80.6,40.57872,-3.54225,625.6,4,5,125.2,1.055
72.62,1,-0.018,0.003,-0.002,-0.011,-0.0,-0.008,-1.574,0.002,-0.114,71.92,80.6,40.57872,-3.54225,625.6,4,5,125.2,1.055
72.73,1,-0.006,-0.029,0.003,-0.017,-0.012,-0.002,-1.574,0.002,-0.113,71.92,80.6,40.57872,-3.54225,625.6,4,5,125.2,1.055
72.82,1,-0.011,-0.019,-0.013,-0.007,-0.02,-0.004,-1.573,0.002,-0.112,71.92,80.6,40.57872,-3.54225,625.6,4,5,125.2,1.055
72.92,1,0.005,-0.011,-0.017,0.001,-0.015,-0.012,-1.573,0.003,-0.111,71.92,80.6,40.57872,-3.54225,625.6,4,5,125.2,1.055
73.02,1,-0.009,-0.009,-0.028,-0.009,-0.014,-0.016,-1.571,0.003,-0.11,71.92,80.6,40.57872,-3.54225,625.6,4,5,125.2,1.055
73.12,1,-0.001,-0.016,-0.009,-0.0,-0.014,-0.015,-1.57,0.006,-0.109,71.92,80.6,40.57872,-3.54225,625.6,4,5,125.2,1.055
73.22,1,-0.006,-0.003,0.004,-0.006,-0.005,-0.011,-1.57,0.005,-0.108,72.97,80.2,40.578613,-3.542041,625.9,4,5,124.8,1.406
73.32,1,0.004,-0.012,-0.015,0.001,-0.007,-0.006,-1.574,0.008,-0.107,72.97,80.2,40.578613,-3.542041,625.9,4,5,124.8,1.406
73.43,1,-0.013,0.001,-0.002,-0.01,-0.007,-0.006,-1.572,0.01,-0.107,72.97,80.2,40.578613,-3.542041,625.9,4,5,124.8,1.406
73.52,1,-0.036,0.016,-0.019,-0.018,0.007,-0.011,-1.571,0.011,-0.106,72.97,80.2,40.578613,-3.542041,625.9,4,5,124.8,1.406
73.62,1,-0.005,0.036,-0.026,-0.017,0.018,-0.022,-1.573,0.011,-0.106,72.97,80.2,40.578613,-3.542041,625.9,4,5,124.8,1.406
73.72,1,-0.02,0.02,-0.025,-0.016,0.019,-0.021,-1.572,0.011,-0.106,72.97,80.2,40.578613,-3.542041,625.9,4,5,124.8,1.406
73.82,1,-0.021,-0.007,0.004,-0.02,0.016,-0.019,-1.575,0.01,-0.106,72.97,80.2,40.578613,-3.542041,625.9,4,5,124.8,1.406
73.93,1,-0.021,0.022,-0.021,-0.018,0.01,-0.008,-1.577,0.009,-0.106,72.97,80.2,40.578613,-3.542041,625.9,4,5,124.8,1.406
74.02,1,0.0,0.011,-0.026,-0.01,0.011,-0.018,-1.577,0.009,-0.107,72.97,80.2,40.578613,-3.542041,625.9,4,5,124.8,1.406
74.13,1,-0.033,0.032,-0.024,-0.019,0.019,-0.024,-1.575,0.007,-0.107,72.97,80.2,40.578613,-3.542041,625.9,4,5,124.8,1.406
74.22,1,-0.025,-0.002,-0.026,-0.023,0.016,-0.023,-1.577,0.001,-0.107,73.95,80.6,40.578495,-3.541821,626.3,4,5,123.4,1.758
74.32,1,0.023,0.024,0.02,-0.004,0.012,-0.005,-1.571,-0.001,-0.107,73.95,80.6,40.578495,-3.541821,626.3,4,5,123.4,1.758
74.43,1,-0.023,0.003,-0.011,-0.006,0.014,-0.006,-1.567,-0.002,-0.107,73.95,80.6,40.578495,-3.541821,626.3,4,5,123.4,1.758
74.53,1,-0.017,-0.008,-0.004,-0.014,0.003,-0.007,-1.565,-0.005,-0.107,73.95,80.6,40.578495,-3.541821,626.3,4,5,123.4,1.758
74.62,1,-0.011,0.002,-0.01,-0.019,-0.001,-0.006,-1.566,-0.009,-0.108,73.95,80.6,40.578495,-3.541821,626.3,4,5,123.4,1.758
74.72,1,-0.013,0.009,-0.019,-0.011,0.005,-0.009,-1.565,-0.01,-0.108,73.95,80.6,40.578495,-3.541821,626.3,4,5,123.4,1.758
74.82,1,0.012,0.01,-0.003,-0.001,0.006,-0.012,-1.564,-0.009,-0.108,73.95,80.6,40.578495,-3.541821,626.3,4,5,123.4,1.758
74.92,1,-0.018,-0.018,-0.005,-0.003,-0.003,-0.006,-1.562,-0.007,-0.108,73.95,80.6,40.578495,-3.541821,626.3,4,5,123.4,1.758
75.02,1,-0.047,0.017,-0.012,-0.027,0.0,-0.009,-1.562,-0.006,-0.108,73.95,80.6,40.578495,-3.541821,626.3,4,5,123.4,1.758
75.13,1,0.003,-0.001,-0.004,-0.023,0.005,-0.012,-1.563,-0.005,-0.109,73.95,80.6,40.578495,-3.541821,626.3,4,5,123.4,1.758
75.23,1,-0.0,-0.001,0.007,-0.0,0.005,0.004,-1.563,-0.009,-0.109,74.94,80.4,40.578384,-3.5416,626.4,4,5,122.7,2.109
75.34,1,0.018,0.008,-0.001,0.004,0.002,-0.002,-1.563,-0.01,-0.109,74.94,80.4,40.578384,-3.5416,626.4,4,5,122.7,2.109
75.43,1,-0.03,0.004,-0.012,-0.007,0.008,0.003,-1.562,-0.013,-0.109,74.94,80.4,40.578384,-3.5416,626.4,4,5,122.7,2.109
75.53,1,0.002,-0.007,-0.01,-0.008,-0.007,-0.014,-1.564,-0.015,-0.109,74.94,80.4,40.578384,-3.5416,626.4,4,5,122.7,2.109
75.63,1,-0.018,-0.001,-0.035,-0.013,-0.003,-0.018,-1.563,-0.015,-0.108,74.94,80.4,40.578384,-3.5416,626.4,4,5,122.7,2.109
75.73,1,-0.003,-0.028,0.009,-0.007,-0.011,-0.012,-1.564,-0.014,-0.108,74.94,80.4,40.578384,-3.5416,626.4,4,5,122.7,2.109
75.83,1,-0.003,-0.004,-0.002,-0.007,-0.012,-0.003,-1.564,-0.013,-0.108,74.94,80.4,40.578384,-3.5416,626.4,4,5,122.7,2.109
75.94,1,-0.024,-0.018,-0.019,-0.013,-0.014,-0.012,-1.564,-0.01,-0.108,74.94,80.4,40.578384,-3.5416,626.4,4,5,122.7,2.109
76.04,1,-0.01,-0.026,0.002,-0.009,-0.019,-0.004,-1.561,-0.01,-0.108,74.94,80.4,40.578384,-3.5416,626.4,4,5,122.7,2.109
76.13,1,-0.053,-0.026,-0.03,-0.03,-0.021,-0.015,-1.564,-0.01,-0.108,74.94,80.4,40.578384,-3.5416,626.4,4,5,122.7,2.109
76.23,1,0.012,-0.014,0.005,-0.022,-0.02,-0.006,-1.566,-0.011,-0.107,75.81,80.4,40.578274,-3.541373,626.4,4,5,122.3,1.055
76.33,1,0.053,-0.031,0.006,0.018,-0.025,0.003,-1.567,-0.011,-0.107,75.81,80.4,40.578274,-3.541373,626.4,4,5,122.3,1.055
76.43,1,0.033,-0.024,-0.013,0.028,-0.022,-0.007,-1.563,-0.011,-0.106,75.81,80.4,40.578274,-3.541373,626.4,4,5,122.3,1.055
76.53,1,-0.049,-0.017,0.001,0.006,-0.024,-0.002,-1.563,-0.007,-0.105,75.81,80.4,40.578274,-3.541373,626.4,4,5,122.3,1.055
76.63,1,-0.005,-0.02,0.015,-0.015,-0.022,0.001,-1.562,-0.007,-0.104,75.81,80.4,40.578274,-3.541373,626.4,4,5,122.3,1.055
76.73,1,-0.001,-0.004,0.004,-0.004,-0.013,0.008,-1.563,-0.003,-0.104,75.81,80.4,40.578274,-3.541373,626.4,4,5,122.3,1.055
76.83,1,0.013,-0.021,0.016,0.002,-0.014,0.011,-1.565,-0.001,-0.103,75.81,80.4,40.578274,-3.541373,626.4,4,5,122.3,1.055
76.93,1,-0.023,-0.033,-0.019,-0.01,-0.022,-0.001,-1.564,-0.001,-0.102,75.81,80.4,40.578274,-3.541373,626.4,4,5,122.3,1.055
77.04,1,-0.016,-0.027,0.009,-0.01,-0.026,-0.002,-1.561,-0.0,-0.102,75.81,80.4,40.578274,-3.541373,626.4,4,5,122.3,1.055
77.13,1,-0.023,-0.012,-0.011,-0.021,-0.022,-0.004,-1.561,-0.001,-0.101,75.81,80.4,40.578274,-3.541373,626.4,4,5,122.3,1.055
77.23,1,-0.012,-0.021,-0.019,-0.019,-0.018,-0.012,-1.561,-0.002,-0.101,76.84,80.1,40.578159,-3.541144,626.6,4,5,121.3,1.406
77.33,1,-0.019,-0.018,0.003,-0.008,-0.02,-0.006,-1.562,-0.001,-0.1,76.84,80.1,40.578159,-3.541144,626.6,4,5,121.3,1.406
77.43,1,-0.029,-0.007,-0.001,-0.022,-0.014,-0.001,-1.563,-0.002,-0.099,76.84,80.1,40.578159,-3.541144,626.6,4,5,121.3,1.406
77.53,1,0.005,-0.021,0.0,-0.018,-0.012,-0.003,-1.563,-0.002,-0.098,76.84,80.1,40.578159,-3.541144,626.6,4,5,121.3,1.406
77.63,1,-0.021,0.015,0.025,-0.012,-0.007,0.012,-1.563,-0.004,-0.098,76.84,80.1,40.578159,-3.541144,626.6,4,5,121.3,1.406
77.75,1,0.004,-0.009,-0.015,-0.009,-0.001,0.001,-1.566,-0.006,-0.097,76.84,80.1,40.578159,-3.541144,626.6,4,5,121.3,1.406
77.83,1,-0.013,-0.006,0.005,-0.002,-0.008,0.002,-1.565,-0.004,-0.097,76.84,80.1,40.578159,-3.541144,626.6,4,5,121.3,1.406
77.93,1,-0.036,-0.011,-0.014,-0.02,-0.005,-0.004,-1.561,-0.006,-0.097,76.84,80.1,40.578159,-3.541144,626.6,4,5,121.3,1.406
78.03,1,0.003,0.012,-0.001,-0.015,0.004,-0.007,-1.559,-0.005,-0.098,76.84,80.1,40.578159,-3.541144,626.6,4,5,121.3,1.406
78.14,1,-0.001,0.036,0.011,-0.005,0.016,0.006,-1.557,-0.002,-0.098,76.84,80.1,40.578159,-3.541144,626.6,4,5,121.3,1.406
78.24,1,0.022,0.002,-0.004,0.006,0.016,0.004,-1.555,-0.001,-0.098,77.81,77.7,40.578064,-3.540922,626.8,4,5,120.6,1.758
78.33,1,-0.003,0.012,0.007,0.005,0.006,0.006,-1.556,0.0,-0.099,77.81,77.7,40.578064,-3.540922,626.8,4,5,120.6,1.758
78.44,1,-0.028,0.034,-0.007,-0.011,0.02,-0.003,-1.559,0.0,-0.099,77.81,77.7,40.578064,-3.540922,626.8,4,5,120.6,1.758
78.54,1,-0.029,0.039,-0.027,-0.023,0.034,-0.016,-1.559,-0.0,-0.1,77.81,77.7,40.578064,-3.540922,626.8,4,5,120.6,1.758
78.64,1,-0.038,0.007,0.015,-0.028,0.021,-0.009,-1.561,0.0,-0.101,77.81,77.7,40.578064,-3.540922,626.8,4,5,120.6,1.758
78.74,1,0.021,0.031,-0.024,-0.014,0.023,-0.008,-1.563,-0.001,-0.102,77.81,77.7,40.578064,-3.540922,626.8,4,5,120.6,1.758
78.84,1,-0.009,0.032,-0.004,-0.005,0.026,-0.01,-1.566,-0.003,-0.103,77.81,77.7,40.578064,-3.540922,626.8,4,5,120.6,1.758
78.94,1,0.017,0.024,-0.004,0.007,0.024,-0.002,-1.569,-0.003,-0.103,77.81,77.7,40.578064,-3.540922,626.8,4,5,120.6,1.758
79.04,1,-0.017,0.013,-0.02,0.001,0.025,-0.015,-1.566,-0.005,-0.104,77.81,77.7,40.578064,-3.540922,626.8,4,5,120.6,1.758
79.14,1,-0.025,0.031,-0.003,-0.013,0.027,-0.006,-1.566,-0.003,-0.105,77.81,77.7,40.578064,-3.540922,626.8,4,5,120.6,1.758
79.24,1,0.025,0.011,-0.029,-0.003,0.016,-0.017,-1.566,-0.003,-0.106,78.81,79.7,40.577961,-3.540699,627.3,3,5,119.9,1.406
79.34,1,0.016,0.019,0.004,0.015,0.018,-0.006,-1.565,-0.004,-0.107,78.81,79.7,40.577961,-3.540699,627.3,3,5,119.9,1.406
79.45,1,0.002,0.003,-0.028,0.008,0.014,-0.02,-1.563,-0.006,-0.108,78.81,79.7,40.577961,-3.540699,627.3,3,5,119.9,1.406
79.54,1,-0.032,0.006,-0.058,-0.008,0.008,-0.035,-1.558,-0.009,-0.109,78.81,79.7,40.577961,-3.540699,627.3,3,5,119.9,1.406
79.65,1,-0.032,0.019,-0.031,-0.03,0.014,-0.038,-1.556,-0.006,-0.109,78.81,79.7,40.577961,-3.540699,627.3,3,5,119.9,1.406
79.74,1,0.024,-0.007,-0.033,-0.007,0.005,-0.036,-1.548,-0.007,-0.11,78.81,79.7,40.577961,-3.540699,627.3,3,5,119.9,1.406
79.84,1,-0.003,0.026,-0.031,0.006,0.008,-0.034,-1.539,-0.011,-0.111,78.81,79.7,40.577961,-3.540699,627.3,3,5,119.9,1.406
79.94,1,0.005,0.022,-0.031,0.004,0.017,-0.035,-1.536,-0.017,-0.112,78.81,79.7,40.577961,-3.540699,627.3,3,5,119.9,1.406
80.05,1,-0.026,0.005,-0.032,-0.009,0.011,-0.028,-1.533,-0.019,-0.113,78.81,79.7,40.577961,-3.540699,627.3,3,5,119.9,1.406
80.15,1,-0.037,0.013,-0.011,-0.024,0.018,-0.025,-1.531,-0.021,-0.114,78.81,79.7,40.577961,-3.540699,627.3,3,5,119.9,1.406
80.25,1,-0.032,-0.006,0.003,-0.032,0.001,-0.009,-1.529,-0.018,-0.114,79.9,79.4,40.577873,-3.540485,627.4,4,5,119.2,1.406
80.35,1,-0.033,0.01,-0.026,-0.029,0.006,-0.011,-1.528,-0.018,-0.115,79.9,79.4,40.577873,-3.540485,627.4,4,5,119.2,1.406
80.44,1,-0.001,-0.01,-0.077,-0.024,0.007,-0.037,-1.526,-0.019,-0.116,79.9,79.4,40.577873,-3.540485,627.4,4,5,119.2,1.406
80.54,1,0.015,-0.01,-0.014,0.005,0.001,-0.036,-1.525,-0.018,-0.116,79.9,79.4,40.577873,-3.540485,627.4,4,5,119.2,1.406
80.64,1,-0.015,-0.076,-0.057,-0.007,-0.037,-0.045,-1.524,-0.015,-0.114,79.9,79.4,40.577873,-3.540485,627.4,4,5,119.2,1.406
80.74,1,0.003,-0.126,-0.012,-0.005,-0.085,-0.037,-1.524,-0.005,-0.11,79.9,79.4,40.577873,-3.540485,627.4,4,5,119.2,1.406
80.94,1,-0.022,-0.148,-0.037,-0.019,-0.159,-0.044,-1.517,0.03,-0.096,79.9,79.4,40.577873,-3.540485,627.4,4,5,119.2,1.406
81.04,1,-0.018,-0.088,-0.086,-0.02,-0.125,-0.055,-1.515,0.038,-0.091,79.9,79.4,40.577873,-3.540485,627.4,4,5,119.2,1.406
81.14,1,-0.018,-0.024,-0.089,-0.018,-0.074,-0.081,-1.508,0.039,-0.088,79.9,79.4,40.577873,-3.540485,627.4,4,5,119.2,1.406
81.24,1,0.011,-0.026,-0.027,0.0,-0.045,-0.056,-1.504,0.043,-0.085,79.9,79.4,40.577873,-3.540485,627.4,4,5,119.2,1.406
81.34,1,-0.018,-0.018,-0.02,-0.012,-0.024,-0.03,-1.499,0.042,-0.081,80.82,78.2,40.57777,-3.540258,627.7,4,5,119.2,0.703
81.45,1,-0.03,-0.03,0.009,-0.018,-0.028,-0.02,-1.5,0.045,-0.077,80.82,78.2,40.57777,-3.540258,627.7,4,5,119.2,0.703
81.56,1,-0.007,-0.014,0.032,-0.017,-0.025,0.011,-1.503,0.049,-0.074,80.82,78.2,40.57777,-3.540258,627.7,4,5,119.2,0.703
81.64,1,-0.036,0.001,-0.01,-0.023,-0.012,0.007,-1.502,0.051,-0.071,80.82,78.2,40.57777,-3.540258,627.7,4,5,119.2,0.703
81.74,1,0.007,0.009,0.015,-0.014,-0.001,0.004,-1.504,0.048,-0.068,80.82,78.2,40.57777,-3.540258,627.7,4,5,119.2,0.703
81.84,1,-0.004,0.035,0.021,-0.006,0.017,0.017,-1.503,0.043,-0.067,80.82,78.2,40.57777,-3.540258,627.7,4,5,119.2,0.703
81.94,1,-0.024,0.055,-0.003,-0.011,0.035,0.005,-1.502,0.039,-0.066,80.82,78.2,40.57777,-3.540258,627.7,4,5,119.2,0.703
82.04,1,-0.01,0.062,-0.034,-0.02,0.053,-0.011,-1.502,0.032,-0.067,80.82,78.2,40.57777,-3.540258,627.7,4,5,119.2,0.703
82.15,1,0.029,0.073,0.027,0.005,0.06,0.0,-1.504,0.023,-0.068,80.82,78.2,40.57777,-3.540258,627.7,4,5,119.2,0.703
82.25,1,-0.011,0.065,0.04,0.011,0.066,0.021,-1.506,0.017,-0.069,80.82,78.2,40.57777,-3.540258,627.7,4,5,119.2,0.703
82.35,1,-0.042,0.056,-0.013,-0.019,0.059,0.013,-1.508,0.014,-0.07,81.82,77.0,40.577682,-3.540036,627.9,3,5,118.1,1.055
82.45,1,0.019,0.024,0.021,-0.009,0.044,0.008,-1.513,0.012,-0.071,81.82,77.0,40.577682,-3.540036,627.9,3,5,118.1,1.055
82.56,1,0.018,0.037,0.032,0.006,0.038,0.018,-1.514,0.009,-0.073,81.82,77.0,40.577682,-3.540036,627.9,3,5,118.1,1.055
82.65,1,-0.003,0.047,0.027,0.005,0.042,0.027,-1.518,0.007,-0.075,81.82,77.0,40.577682,-3.540036,627.9,3,5,118.1,1.055
82.75,1,-0.042,0.064,0.021,-0.013,0.052,0.027,-1.519,-0.0,-0.077,81.82,77.0,40.577682,-3.540036,627.9,3,5,118.1,1.055
82.86,1,-0.026,0.063,-0.003,-0.03,0.06,0.014,-1.52,-0.006,-0.079,81.82,77.0,40.577682,-3.540036,627.9,3,5,118.1,1.055
82.95,1,0.002,0.022,0.025,-0.015,0.053,0.014,-1.521,-0.012,-0.082,81.82,77.0,40.577682,-3.540036,627.9,3,5,118.1,1.055
83.05,1,-0.033,0.049,0.028,-0.016,0.039,0.023,-1.521,-0.018,-0.084,81.82,77.0,40.577682,-3.540036,627.9,3,5,118.1,1.055
83.15,1,-0.004,0.014,0.019,-0.014,0.029,0.024,-1.524,-0.02,-0.087,81.82,77.0,40.577682,-3.540036,627.9,3,5,118.1,1.055
83.25,1,0.011,0.026,0.023,-0.005,0.027,0.017,-1.527,-0.022,-0.089,81.82,77.0,40.577682,-3.540036,627.9,3,5,118.1,1.055
83.35,1,-0.016,0.036,0.017,-0.004,0.03,0.022,-1.527,-0.023,-0.092,82.82,74.3,40.577602,-3.539817,627.9,3,5,115.7,3.516
83.45,1,-0.009,0.036,0.015,-0.009,0.034,0.018,-1.529,-0.023,-0.094,82.82,74.3,40.577602,-3.539817,627.9,3,5,115.7,3.516
83.55,1,0.006,0.018,-0.0,-0.003,0.028,0.011,-1.534,-0.025,-0.096,82.82,74.3,40.577602,-3.539817,627.9,3,5,115.7,3.516
83.65,1,-0.007,0.001,0.017,-0.005,0.012,0.008,-1.535,-0.028,-0.098,82.82,74.3,40.577602,-3.539817,627.9,3,5,115.7,3.516
83.76,1,-0.029,-0.002,0.028,-0.013,0.006,0.018,-1.538,-0.028,-0.099,82.82,74.3,40.577602,-3.539817,627.9,3,5,115.7,3.516
83.85,1,0.006,-0.0,0.03,-0.009,0.001,0.025,-1.538,-0.03,-0.101,82.82,74.3,40.577602,-3.539817,627.9,3,5,115.7,3.516
83.96,1,-0.058,0.018,0.014,-0.023,0.004,0.027,-1.538,-0.03,-0.103,82.82,74.3,40.577602,-3.539817,627.9,3,5,115.7,3.516
84.05,1,-0.01,-0.031,0.016,-0.031,0.005,0.014,-1.541,-0.028,-0.104,82.82,74.3,40.577602,-3.539817,627.9,3,5,115.7,3.516
84.15,1,-0.008,0.038,-0.005,-0.014,0.013,0.007,-1.544,-0.026,-0.105,82.82,74.3,40.577602,-3.539817,627.9,3,5,115.7,3.516
84.26,1,0.003,0.024,0.044,-0.004,0.011,0.02,-1.544,-0.024,-0.106,82.82,74.3,40.577602,-3.539817,627.9,3,5,115.7,3.516
84.36,1,-0.001,-0.035,0.026,0.0,-0.003,0.028,-1.544,-0.022,-0.106,83.82,72.6,40.57753,-3.539603,628.1,3,5,115.7,2.461
84.46,1,-0.018,-0.012,0.013,-0.007,-0.017,0.026,-1.543,-0.022,-0.107,83.82,72.6,40.57753,-3.539603,628.1,3,5,115.7,2.461
84.56,1,-0.026,-0.006,0.012,-0.023,-0.01,0.012,-1.543,-0.024,-0.107,83.82,72.6,40.57753,-3.539603,628.1,3,5,115.7,2.461
84.65,1,-0.009,-0.006,0.023,-0.015,-0.004,0.019,-1.548,-0.026,-0.108,83.82,72.6,40.57753,-3.539603,628.1,3,5,115.7,2.461
84.75,1,-0.005,0.007,0.018,-0.008,-0.003,0.017,-1.551,-0.024,-0.109,83.82,72.6,40.57753,-3.539603,628.1,3,5,115.7,2.461
84.86,1,-0.029,-0.007,0.027,-0.017,-0.006,0.022,-1.551,-0.023,-0.109,83.82,72.6,40.57753,-3.539603,628.1,3,5,115.7,2.461
84.96,1,-0.024,-0.025,0.037,-0.025,-0.008,0.029,-1.552,-0.023,-0.109,83.82,72.6,40.57753,-3.539603,628.1,3,5,115.7,2.461
85.05,1,0.014,-0.022,0.071,-0.008,-0.02,0.046,-1.558,-0.023,-0.109,83.82,72.6,40.57753,-3.539603,628.1,3,5,115.7,2.461
85.16,1,0.001,-0.013,0.05,0.006,-0.018,0.056,-1.558,-0.024,-0.11,83.82,72.6,40.57753,-3.539603,628.1,3,5,115.7,2.461
85.26,1,-0.003,-0.013,0.039,0.001,-0.017,0.05,-1.559,-0.025,-0.11,83.82,72.6,40.57753,-3.539603,628.1,3,5,115.7,2.461
85.35,1,-0.013,-0.009,0.016,-0.01,-0.009,0.032,-1.561,-0.022,-0.11,84.82,72.2,40.577446,-3.539383,628.3,3,5,116.0,0.352
85.45,1,-0.002,-0.029,0.012,-0.006,-0.02,0.016,-1.56,-0.02,-0.11,84.82,72.2,40.577446,-3.539383,628.3,3,5,116.0,0.352
85.55,1,0.013,-0.053,0.015,0.007,-0.039,0.02,-1.561,-0.02,-0.111,84.82,72.2,40.577446,-3.539383,628.3,3,5,116.0,0.352
85.66,1,-0.016,-0.029,0.035,-0.004,-0.031,0.029,-1.56,-0.02,-0.11,84.82,72.2,40.577446,-3.539383,628.3,3,5,116.0,0.352
85.77,1,-0.004,-0.029,0.022,-0.009,-0.033,0.022,-1.562,-0.019,-0.11,84.82,72.2,40.577446,-3.539383,628.3,3,5,116.0,0.352
85.87,1,-0.013,-0.025,0.018,-0.006,-0.029,0.022,-1.567,-0.014,-0.11,84.82,72.2,40.577446,-3.539383,628.3,3,5,116.0,0.352
85.96,1,-0.052,-0.014,-0.011,-0.029,-0.021,0.001,-1.571,-0.009,-0.111,84.82,72.2,40.577446,-3.539383,628.3,3,5,116.0,0.352
86.06,1,-0.024,-0.014,0.042,-0.033,-0.015,0.017,-1.574,-0.01,-0.11,84.82,72.2,40.577446,-3.539383,628.3,3,5,116.0,0.352
86.16,1,0.005,-0.014,-0.001,-0.016,-0.016,0.018,-1.573,-0.013,-0.11,84.82,72.2,40.577446,-3.539383,628.3,3,5,116.0,0.352
86.26,1,-0.03,-0.005,0.002,-0.014,-0.009,0.01,-1.574,-0.011,-0.11,84.82,72.2,40.577446,-3.539383,628.3,3,5,116.0,0.352
86.36,1,-0.03,0.001,0.002,-0.034,-0.002,-0.0,-1.575,-0.012,-0.11,85.83,72.9,40.57737,-3.539167,628.5,3,5,116.0,0.352
86.46,1,0.01,-0.029,0.027,-0.009,-0.017,0.011,-1.574,-0.013,-0.11,85.83,72.9,40.57737,-3.539167,628.5,3,5,116.0,0.352
86.56,1,0.027,-0.052,0.074,0.01,-0.034,0.041,-1.573,-0.01,-0.11,85.83,72.9,40.57737,-3.539167,628.5,3,5,116.0,0.352
86.66,1,-0.008,-0.0,0.025,0.01,-0.022,0.044,-1.576,-0.01,-0.11,85.83,72.9,40.57737,-3.539167,628.5,3,5,116.0,0.352
86.76,1,-0.021,0.028,-0.008,-0.01,0.004,0.018,-1.575,-0.014,-0.111,85.83,72.9,40.57737,-3.539167,628.5,3,5,116.0,0.352
86.86,1,0.011,0.012,0.033,0.001,0.009,0.018,-1.577,-0.018,-0.112,85.83,72.9,40.57737,-3.539167,628.5,3,5,116.0,0.352
86.96,1,-0.011,0.028,0.02,-0.004,0.021,0.027,-1.582,-0.021,-0.113,85.83,72.9,40.57737,-3.539167,628.5,3,5,116.0,0.352
87.06,1,0.015,0.013,0.023,0.002,0.018,0.016,-1.58,-0.021,-0.115,85.83,72.9,40.57737,-3.539167,628.5,3,5,116.0,0.352
87.17,1,0.021,0.029,-0.012,0.009,0.018,0.008,-1.583,-0.021,-0.116,85.83,72.9,40.57737,-3.539167,628.5,3,5,116.0,0.352
87.26,1,-0.034,0.01,0.025,-0.003,0.022,0.012,-1.585,-0.023,-0.118,85.83,72.9,40.57737,-3.539167,628.5,3,5,116.0,0.352
87.36,1,-0.041,0.047,-0.027,-0.028,0.025,-0.003,-1.587,-0.022,-0.119,86.82,73.6,40.577293,-3.538943,628.9,3,5,115.7,0.352
87.46,1,-0.031,0.014,0.013,-0.035,0.022,-0.001,-1.589,-0.021,-0.12,86.82,73.6,40.577293,-3.538943,628.9,3,5,115.7,0.352
87.56,1,-0.015,-0.01,-0.012,-0.022,0.011,0.0,-1.589,-0.021,-0.122,86.82,73.6,40.577293,-3.538943,628.9,3,5,115.7,0.352
87.66,1,-0.015,0.015,0.041,-0.018,0.008,0.015,-1.59,-0.021,-0.123,86.82,73.6,40.577293,-3.538943,628.9,3,5,115.7,0.352
87.76,1,0.024,-0.008,0.017,0.001,0.005,0.019,-1.589,-0.02,-0.125,86.82,73.6,40.577293,-3.538943,628.9,3,5,115.7,0.352
87.86,1,-0.018,-0.009,-0.016,-0.002,-0.006,-0.001,-1.589,-0.019,-0.126,86.82,73.6,40.577293,-3.538943,628.9,3,5,115.7,0.352
87.97,1,-0.04,-0.003,-0.038,-0.014,0.013,-0.014,-1.591,-0.017,-0.127,86.82,73.6,40.577293,-3.538943,628.9,3,5,115.7,0.352
88.07,1,-0.03,0.004,0.058,-0.027,-0.008,0.011,-1.594,-0.015,-0.128,86.82,73.6,40.577293,-3.538943,628.9,3,5,115.7,0.352
88.16,1,0.008,-0.018,0.012,-0.02,-0.015,0.027,-1.593,-0.015,-0.129,86.82,73.6,40.577293,-3.538943,628.9,3,5,115.7,0.352
88.27,1,0.045,0.012,0.016,0.015,-0.001,0.014,-1.591,-0.013,-0.13,86.82,73.6,40.577293,-3.538943,628.9,3,5,115.7,0.352
88.36,1,-0.007,0.009,-0.012,0.01,0.004,0.006,-1.59,-0.012,-0.131,87.82,73.7,40.577217,-3.538726,629.4,3,5,115.0,1.055
88.46,1,-0.038,0.002,0.005,-0.012,0.005,-0.002,-1.595,-0.012,-0.132,87.82,73.7,40.577217,-3.538726,629.4,3,5,115.0,1.055
88.56,1,-0.016,0.004,0.009,-0.022,0.006,0.009,-1.6,-0.009,-0.132,87.82,73.7,40.577217,-3.538726,629.4,3,5,115.0,1.055
88.66,1,-0.019,-0.012,0.012,-0.022,-0.009,0.01,-1.601,-0.008,-0.133,87.82,73.7,40.577217,-3.538726,629.4,3,5,115.0,1.055
88.76,1,0.009,-0.045,-0.004,-0.007,-0.011,-0.002,-1.599,-0.004,-0.134,87.82,73.7,40.577217,-3.538726,629.4,3,5,115.0,1.055
88.86,1,-0.065,-0.013,-0.011,-0.019,-0.02,-0.002,-1.598,-0.003,-0.134,87.82,73.7,40.577217,-3.538726,629.4,3,5,115.0,1.055
88.97,1,-0.032,0.011,0.009,-0.041,-0.015,-0.003,-1.6,-0.004,-0.135,87.82,73.7,40.577217,-3.538726,629.4,3,5,115.0,1.055
89.06,1,0.011,0.019,-0.005,-0.016,0.011,0.0,-1.6,-0.004,-0.135,87.82,73.7,40.577217,-3.538726,629.4,3,5,115.0,1.055
89.16,1,-0.004,-0.002,-0.006,-0.008,0.004,-0.006,-1.601,-0.003,-0.135,87.82,73.7,40.577217,-3.538726,629.4,3,5,115.0,1.055
89.27,1,-0.01,-0.034,0.023,-0.007,-0.014,0.006,-1.601,-0.003,-0.134,87.82,73.7,40.577217,-3.538726,629.4,3,5,115.0,1.055
89.38,1,-0.052,-0.025,-0.016,-0.027,-0.021,-0.003,-1.602,-0.004,-0.134,88.82,74.8,40.577152,-3.538512,629.5,3,5,115.0,0.703
89.47,1,-0.004,0.015,0.016,-0.02,-0.01,0.007,-1.602,-0.004,-0.134,88.82,74.8,40.577152,-3.538512,629.5,3,5,115.0,0.703
89.57,1,0.011,-0.025,-0.002,-0.004,-0.013,0.01,-1.601,-0.004,-0.134,88.82,74.8,40.577152,-3.538512,629.5,3,5,115.0,0.703
89.67,1,0.011,-0.018,-0.019,0.002,-0.013,-0.007,-1.599,-0.004,-0.133,88.82,74.8,40.577152,-3.538512,629.5,3,5,115.0,0.703
89.77,1,-0.009,-0.013,-0.006,0.008,-0.015,-0.005,-1.599,-0.003,-0.133,88.82,74.8,40.577152,-3.538512,629.5,3,5,115.0,0.703
89.87,1,-0.035,-0.024,0.029,-0.015,-0.025,0.003,-1.598,0.0,-0.132,88.82,74.8,40.577152,-3.538512,629.5,3,5,115.0,0.703
89.98,1,-0.025,-0.014,0.035,-0.028,-0.015,0.019,-1.597,0.001,-0.132,88.82,74.8,40.577152,-3.538512,629.5,3,5,115.0,0.703
90.07,1,0.019,-0.015,0.01,-0.011,-0.013,0.022,-1.598,0.003,-0.131,88.82,74.8,40.577152,-3.538512,629.5,3,5,115.0,0.703
90.17,1,0.021,0.036,-0.002,0.01,0.005,0.008,-1.596,0.001,-0.131,88.82,74.8,40.577152,-3.538512,629.5,3,5,115.0,0.703
90.28,1,-0.043,-0.008,0.021,-0.008,0.007,0.016,-1.596,0.003,-0.13,88.82,74.8,40.577152,-3.538512,629.5,3,5,115.0,0.703
90.38,1,-0.02,-0.046,-0.006,-0.019,-0.018,0.009,-1.596,0.004,-0.13,89.86,76.6,40.577072,-3.538271,629.6,3,5,115.0,0.0
90.47,1,-0.033,-0.027,0.007,-0.025,-0.02,0.004,-1.596,0.004,-0.129,89.86,76.6,40.577072,-3.538271,629.6,3,5,115.0,0.0
90.57,1,-0.013,0.038,0.011,-0.025,-0.005,0.005,-1.597,0.004,-0.13,89.86,76.6,40.577072,-3.538271,629.6,3,5,115.0,0.0
90.68,1,0.007,0.019,0.022,-0.009,0.009,0.018,-1.597,0.004,-0.13,89.86,76.6,40.577072,-3.538271,629.6,3,5,115.0,0.0
90.77,1,0.01,-0.012,0.021,0.002,0.004,0.011,-1.594,0.004,-0.129,89.86,76.6,40.577072,-3.538271,629.6,3,5,115.0,0.0
90.88,1,-0.034,-0.014,-0.003,-0.012,-0.002,0.013,-1.592,0.002,-0.13,89.86,76.6,40.577072,-3.538271,629.6,3,5,115.0,0.0
90.97,1,0.002,0.001,0.04,-0.008,-0.006,0.017,-1.596,0.002,-0.13,89.86,76.6,40.577072,-3.538271,629.6,3,5,115.0,0.0
91.07,1,0.002,0.018,0.008,-0.003,0.007,0.02,-1.595,0.003,-0.131,89.86,76.6,40.577072,-3.538271,629.6,3,5,115.0,0.0
91.17,1,0.003,-0.014,-0.014,-0.0,0.003,0.004,-1.595,0.007,-0.131,89.86,76.6,40.577072,-3.538271,629.6,3,5,115.0,0.0
91.28,1,-0.035,0.008,0.01,-0.015,-0.002,0.002,-1.594,0.006,-0.132,89.86,76.6,40.577072,-3.538271,629.6,3,5,115.0,0.0
91.38,1,-0.03,0.016,0.022,-0.029,0.008,0.008,-1.59,0.003,-0.132,90.82,78.1,40.576984,-3.538034,630.0,3,5,114.6,0.352
91.47,1,0.034,0.01,0.034,0.004,0.01,0.026,-1.593,-0.003,-0.134,90.82,78.1,40.576984,-3.538034,630.0,3,5,114.6,0.352
91.57,1,0.012,0.052,-0.043,0.016,0.028,-0.001,-1.594,-0.003,-0.135,90.82,78.1,40.576984,-3.538034,630.0,3,5,114.6,0.352
91.67,1,-0.017,-0.025,0.01,-0.003,0.007,-0.002,-1.594,-0.001,-0.135,90.82,78.1,40.576984,-3.538034,630.0,3,5,114.6,0.352
91.77,1,-0.082,0.012,-0.008,-0.034,0.005,-0.003,-1.594,0.0,-0.136,90.82,78.1,40.576984,-3.538034,630.0,3,5,114.6,0.352
91.87,1,-0.064,0.027,0.013,-0.06,0.014,0.007,-1.597,0.001,-0.138,90.82,78.1,40.576984,-3.538034,630.0,3,5,114.6,0.352
91.97,1,-0.022,-0.001,0.004,-0.051,0.015,0.0,-1.6,0.003,-0.139,90.82,78.1,40.576984,-3.538034,630.0,3,5,114.6,0.352
92.07,1,0.043,0.002,0.016,0.0,0.001,0.007,-1.602,0.006,-0.14,90.82,78.1,40.576984,-3.538034,630.0,3,5,114.6,0.352
92.18,1,0.02,-0.001,0.02,0.016,0.003,0.013,-1.601,0.002,-0.141,90.82,78.1,40.576984,-3.538034,630.0,3,5,114.6,0.352
92.28,1,0.003,0.04,-0.018,0.014,0.016,0.0,-1.597,-0.001,-0.142,90.82,78.1,40.576984,-3.538034,630.0,3,5,114.6,0.352
92.38,1,-0.045,-0.007,-0.02,-0.013,0.007,-0.009,-1.599,0.001,-0.142,91.93,79.1,40.57692,-3.537812,630.3,3,5,113.9,1.055
92.47,1,-0.071,-0.023,0.012,-0.044,-0.002,-0.005,-1.601,0.0,-0.143,91.93,79.1,40.57692,-3.537812,630.3,3,5,113.9,1.055
92.58,1,-0.022,0.026,0.034,-0.04,0.002,0.02,-1.602,-0.001,-0.144,91.93,79.1,40.57692,-3.537812,630.3,3,5,113.9,1.055
92.68,1,0.012,0.047,0.002,-0.023,0.028,0.011,-1.601,-0.001,-0.145,91.93,79.1,40.57692,-3.537812,630.3,3,5,113.9,1.055
92.78,1,0.015,-0.001,-0.001,0.009,0.019,0.006,-1.599,0.001,-0.146,91.93,79.1,40.57692,-3.537812,630.3,3,5,113.9,1.055
92.88,1,0.023,-0.003,0.002,0.02,0.007,0.007,-1.598,0.003,-0.146,91.93,79.1,40.57692,-3.537812,630.3,3,5,113.9,1.055
92.98,1,-0.021,-0.009,-0.014,-0.003,-0.001,-0.009,-1.598,0.004,-0.147,91.93,79.1,40.57692,-3.537812,630.3,3,5,113.9,1.055
93.08,1,-0.026,-0.019,0.028,-0.009,-0.017,0.007,-1.598,0.005,-0.148,91.93,79.1,40.57692,-3.537812,630.3,3,5,113.9,1.055
93.18,1,0.013,0.025,0.002,-0.015,0.005,0.008,-1.598,0.005,-0.149,91.93,79.1,40.57692,-3.537812,630.3,3,5,113.9,1.055
93.28,1,0.011,0.018,0.011,0.008,0.019,0.009,-1.597,0.005,-0.15,91.93,79.1,40.57692,-3.537812,630.3,3,5,113.9,1.055
93.38,1,-0.035,0.008,0.003,-0.009,0.011,0.005,-1.596,0.005,-0.151,92.82,80.4,40.576832,-3.537574,630.5,4,5,113.9,0.703
93.48,1,-0.045,0.0,-0.022,-0.027,0.002,-0.001,-1.598,0.007,-0.151,92.82,80.4,40.576832,-3.537574,630.5,4,5,113.9,0.703
93.58,1,0.004,0.015,0.028,-0.029,0.009,0.003,-1.601,0.006,-0.153,92.82,80.4,40.576832,-3.537574,630.5,4,5,113.9,0.703
93.68,1,0.021,0.025,0.013,0.006,0.016,0.009,-1.601,0.003,-0.153,92.82,80.4,40.576832,-3.537574,630.5,4,5,113.9,0.703
93.78,1,-0.006,0.01,-0.011,0.001,0.017,0.001,-1.6,-0.0,-0.154,92.82,80.4,40.576832,-3.537574,630.5,4,5,113.9,0.703
93.88,1,0.01,-0.015,0.008,0.006,0.002,0.001,-1.597,-0.001,-0.154,92.82,80.4,40.576832,-3.537574,630.5,4,5,113.9,0.703
93.98,1,-0.006,0.001,-0.0,-0.0,-0.001,0.005,-1.596,0.001,-0.155,92.82,80.4,40.576832,-3.537574,630.5,4,5,113.9,0.703
94.08,1,-0.011,0.013,-0.012,-0.001,0.012,-0.004,-1.597,0.002,-0.157,92.82,80.4,40.576832,-3.537574,630.5,4,5,113.9,0.703
94.18,1,-0.091,0.011,-0.044,-0.036,0.008,-0.022,-1.598,0.003,-0.157,92.82,80.4,40.576832,-3.537574,630.5,4,5,113.9,0.703
94.28,1,-0.083,-0.019,0.018,-0.079,-0.003,-0.012,-1.601,0.004,-0.157,92.82,80.4,40.576832,-3.537574,630.5,4,5,113.9,0.703
94.38,1,0.0,-0.003,0.045,-0.05,-0.012,0.021,-1.604,0.002,-0.159,93.83,81.5,40.576756,-3.537329,630.8,4,5,113.2,0.703
94.48,1,0.08,0.017,-0.0,0.016,0.008,0.015,-1.603,-0.003,-0.16,93.83,81.5,40.576756,-3.537329,630.8,4,5,113.2,0.703
94.58,1,0.064,0.015,-0.011,0.055,0.015,0.001,-1.601,-0.005,-0.162,93.83,81.5,40.576756,-3.537329,630.8,4,5,113.2,0.703
94.68,1,-0.016,0.029,-0.019,0.028,0.02,-0.013,-1.599,-0.007,-0.163,93.83,81.5,40.576756,-3.537329,630.8,4,5,113.2,0.703
94.78,1,-0.037,-0.01,0.025,-0.007,0.008,0.007,-1.601,-0.008,-0.163,93.83,81.5,40.576756,-3.537329,630.8,4,5,113.2,0.703
94.88,1,-0.043,-0.017,-0.014,-0.032,-0.007,0.001,-1.6,-0.006,-0.164,93.83,81.5,40.576756,-3.537329,630.8,4,5,113.2,0.703
94.98,1,-0.031,-0.033,0.002,-0.03,-0.017,-0.002,-1.602,-0.005,-0.165,93.83,81.5,40.576756,-3.537329,630.8,4,5,113.2,0.703
95.08,1,0.004,-0.013,0.007,-0.016,-0.02,0.007,-1.603,-0.007,-0.166,93.83,81.5,40.576756,-3.537329,630.8,4,5,113.2,0.703
95.18,1,0.014,0.023,-0.013,-0.006,-0.002,-0.006,-1.603,-0.01,-0.167,93.83,81.5,40.576756,-3.537329,630.8,4,5,113.2,0.703
95.28,1,-0.01,0.002,0.002,-0.002,0.006,-0.006,-1.6,-0.009,-0.168,93.83,81.5,40.576756,-3.537329,630.8,4,5,113.2,0.703
95.38,1,-0.01,-0.0,-0.01,-0.005,0.006,-0.003,-1.597,-0.006,-0.168,94.82,82.4,40.576672,-3.537078,631.2,4,5,113.9,0.703
95.49,1,-0.023,-0.004,0.017,-0.009,-0.003,0.002,-1.593,-0.004,-0.169,94.82,82.4,40.576672,-3.537078,631.2,4,5,113.9,0.703
95.59,1,-0.019,-0.021,-0.0,-0.022,-0.011,0.009,-1.59,-0.003,-0.17,94.82,82.4,40.576672,-3.537078,631.2,4,5,113.9,0.703
95.69,1,-0.005,-0.006,0.026,-0.011,-0.012,0.012,-1.59,-0.002,-0.171,94.82,82.4,40.576672,-3.537078,631.2,4,5,113.9,0.703
95.79,1,-0.004,-0.002,0.027,-0.012,-0.003,0.016,-1.591,-0.004,-0.172,94.82,82.4,40.576672,-3.537078,631.2,4,5,113.9,0.703
95.88,1,0.016,0.005,-0.007,0.008,-0.006,0.012,-1.59,-0.003,-0.173,94.82,82.4,40.576672,-3.537078,631.2,4,5,113.9,0.703
95.98,1,0.016,-0.001,0.011,0.012,0.007,0.01,-1.59,0.001,-0.174,94.82,82.4,40.576672,-3.537078,631.2,4,5,113.9,0.703
96.08,1,-0.056,0.009,-0.001,-0.014,0.008,0.005,-1.589,0.006,-0.174,94.82,82.4,40.576672,-3.537078,631.2,4,5,113.9,0.703
96.18,1,-0.055,0.019,0.0,-0.045,0.009,-0.002,-1.587,0.006,-0.175,94.82,82.4,40.576672,-3.537078,631.2,4,5,113.9,0.703
96.29,1,-0.027,0.005,0.025,-0.04,0.008,0.015,-1.591,0.006,-0.176,94.82,82.4,40.576672,-3.537078,631.2,4,5,113.9,0.703
96.39,1,-0.043,0.019,0.026,-0.033,0.01,0.021,-1.592,0.004,-0.177,95.85,83.4,40.576584,-3.53683,631.6,3,5,114.3,1.055
96.49,1,0.005,0.022,0.008,-0.024,0.019,0.018,-1.59,0.001,-0.179,95.85,83.4,40.576584,-3.53683,631.6,3,5,114.3,1.055
96.59,1,0.002,0.005,0.026,-0.016,0.013,0.016,-1.591,0.0,-0.18,95.85,83.4,40.576584,-3.53683,631.6,3,5,114.3,1.055
96.69,1,-0.002,0.041,0.038,0.003,0.027,0.033,-1.595,-0.002,-0.181,95.85,83.4,40.576584,-3.53683,631.6,3,5,114.3,1.055
96.79,1,0.025,-0.0,-0.011,0.012,0.015,0.01,-1.595,-0.003,-0.182,95.85,83.4,40.576584,-3.53683,631.6,3,5,114.3,1.055
96.9,1,0.007,0.026,0.007,0.013,0.018,0.008,-1.595,-0.003,-0.184,95.85,83.4,40.576584,-3.53683,631.6,3,5,114.3,1.055
97.0,1,-0.038,0.03,-0.001,-0.009,0.027,-0.001,-1.594,-0.003,-0.185,95.85,83.4,40.576584,-3.53683,631.6,3,5,114.3,1.055
97.09,1,-0.046,0.012,-0.003,-0.031,0.014,-0.003,-1.593,-0.003,-0.186,95.85,83.4,40.576584,-3.53683,631.6,3,5,114.3,1.055
97.19,1,-0.087,-0.014,-0.005,-0.053,0.004,-0.003,-1.595,-0.002,-0.187,95.85,83.4,40.576584,-3.53683,631.6,3,5,114.3,1.055
97.29,1,0.019,0.011,0.029,-0.033,0.005,0.008,-1.594,-0.006,-0.19,95.85,83.4,40.576584,-3.53683,631.6,3,5,114.3,1.055
97.39,1,0.012,0.036,0.017,-0.009,0.017,0.025,-1.592,-0.007,-0.191,96.82,84.7,40.576508,-3.536585,631.9,3,5,114.6,0.703
97.49,1,-0.011,0.053,0.009,0.0,0.036,0.01,-1.592,-0.007,-0.193,96.82,84.7,40.576508,-3.536585,631.9,3,5,114.6,0.703
97.59,1,-0.026,0.038,-0.015,-0.011,0.04,0.004,-1.592,-0.006,-0.195,96.82,84.7,40.576508,-3.536585,631.9,3,5,114.6,0.703
97.69,1,-0.031,0.026,-0.012,-0.023,0.038,-0.008,-1.592,-0.005,-0.197,96.82,84.7,40.576508,-3.536585,631.9,3,5,114.6,0.703
97.8,1,-0.039,0.043,0.036,-0.028,0.034,0.015,-1.593,-0.005,-0.198,96.82,84.7,40.576508,-3.536585,631.9,3,5,114.6,0.703
97.9,1,-0.011,0.021,0.008,-0.029,0.032,0.007,-1.592,-0.003,-0.2,96.82,84.7,40.576508,-3.536585,631.9,3,5,114.6,0.703
97.99,1,-0.029,0.015,0.009,-0.028,0.02,0.008,-1.592,-0.004,-0.202,96.82,84.7,40.576508,-3.536585,631.9,3,5,114.6,0.703
98.1,1,-0.02,0.009,-0.007,-0.021,0.015,0.006,-1.592,-0.007,-0.204,96.82,84.7,40.576508,-3.536585,631.9,3,5,114.6,0.703
98.19,1,-0.037,0.031,0.009,-0.027,0.02,0.003,-1.593,-0.011,-0.206,96.82,84.7,40.576508,-3.536585,631.9,3,5,114.6,0.703
98.3,1,-0.019,0.012,-0.002,-0.03,0.022,0.003,-1.594,-0.012,-0.208,96.82,84.7,40.576508,-3.536585,631.9,3,5,114.6,0.703
98.4,1,0.006,0.006,0.019,-0.015,0.01,0.005,-1.595,-0.012,-0.21,97.85,86.0,40.576412,-3.536326,632.2,4,5,114.6,0.352
98.49,1,-0.025,0.041,0.06,-0.006,0.025,0.041,-1.592,-0.013,-0.212,97.85,86.0,40.576412,-3.536326,632.2,4,5,114.6,0.352
98.6,1,-0.029,0.013,-0.024,-0.029,0.029,0.012,-1.591,-0.012,-0.214,97.85,86.0,40.576412,-3.536326,632.2,4,5,114.6,0.352
98.69,1,-0.029,0.02,-0.0,-0.019,0.018,-0.002,-1.591,-0.01,-0.216,97.85,86.0,40.576412,-3.536326,632.2,4,5,114.6,0.352
98.79,1,-0.052,0.024,0.015,-0.04,0.015,0.001,-1.592,-0.008,-0.218,97.85,86.0,40.576412,-3.536326,632.2,4,5,114.6,0.352
98.89,1,-0.014,0.021,0.005,-0.031,0.021,0.015,-1.591,-0.008,-0.22,97.85,86.0,40.576412,-3.536326,632.2,4,5,114.6,0.352
99.0,1,-0.01,0.024,0.016,-0.014,0.026,0.012,-1.591,-0.008,-0.222,97.85,86.0,40.576412,-3.536326,632.2,4,5,114.6,0.352
99.1,1,0.006,0.006,0.008,-0.009,0.013,0.005,-1.591,-0.006,-0.223,97.85,86.0,40.576412,-3.536326,632.2,4,5,114.6,0.352
99.2,1,-0.042,-0.023,-0.032,-0.014,0.0,-0.004,-1.59,-0.008,-0.225,97.85,86.0,40.576412,-3.536326,632.2,4,5,114.6,0.352
99.3,1,-0.047,0.008,0.029,-0.038,0.001,0.0,-1.59,-0.009,-0.227,97.85,86.0,40.576412,-3.536326,632.2,4,5,114.6,0.352
99.39,1,0.011,0.019,0.024,-0.022,0.009,0.012,-1.59,-0.009,-0.229,98.85,86.9,40.576317,-3.536063,632.6,4,5,115.3,0.703
99.49,1,0.012,0.008,0.023,-0.003,0.008,0.018,-1.589,-0.009,-0.231,98.85,86.9,40.576317,-3.536063,632.6,4,5,115.3,0.703
99.59,1,-0.002,0.02,-0.009,-0.001,0.007,0.019,-1.588,-0.008,-0.233,98.85,86.9,40.576317,-3.536063,632.6,4,5,115.3,0.703
99.69,1,-0.016,-0.004,-0.014,0.004,0.012,-0.008,-1.588,-0.008,-0.234,98.85,86.9,40.576317,-3.536063,632.6,4,5,115.3,0.703
99.8,1,-0.05,0.022,0.002,-0.031,0.012,-0.0,-1.588,-0.007,-0.236,98.85,86.9,40.576317,-3.536063,632.6,4,5,115.3,0.703
99.9,1,-0.052,0.035,0.018,-0.041,0.022,0.008,-1.589,-0.007,-0.238,98.85,86.9,40.576317,-3.536063,632.6,4,5,115.3,0.703
100.0,1,-0.028,0.018,0.02,-0.038,0.025,0.011,-1.59,-0.007,-0.24,98.85,86.9,40.576317,-3.536063,632.6,4,5,115.3,0.703
100.1,1,0.003,0.013,0.017,-0.02,0.013,0.023,-1.589,-0.008,-0.242,98.85,86.9,40.576317,-3.536063,632.6,4,5,115.3,0.703
100.2,1,-0.014,0.022,0.008,-0.011,0.022,0.009,-1.589,-0.007,-0.244,98.85,86.9,40.576317,-3.536063,632.6,4,5,115.3,0.703
100.3,1,-0.017,0.0,0.002,-0.017,0.014,0.002,-1.589,-0.007,-0.246,98.85,86.9,40.576317,-3.536063,632.6,4,5,115.3,0.703
100.4,1,0.003,-0.0,0.014,-0.008,0.004,0.008,-1.59,-0.007,-0.248,99.82,85.9,40.576241,-3.535839,632.9,4,5,116.0,1.406
100.5,1,-0.04,0.048,-0.0,-0.016,0.023,0.005,-1.594,-0.004,-0.25,99.82,85.9,40.576241,-3.535839,632.9,4,5,116.0,1.406
100.6,1,-0.024,0.017,-0.026,-0.026,0.025,-0.007,-1.587,-0.002,-0.252,99.82,85.9,40.576241,-3.535839,632.9,4,5,116.0,1.406
100.7,1,0.012,0.005,0.066,-0.008,0.014,0.023,-1.587,-0.004,-0.254,99.82,85.9,40.576241,-3.535839,632.9,4,5,116.0,1.406
100.8,1,0.012,0.026,0.007,0.004,0.02,0.029,-1.585,-0.004,-0.256,99.82,85.9,40.576241,-3.535839,632.9,4,5,116.0,1.406
100.9,1,-0.032,0.014,-0.005,-0.005,0.02,0.006,-1.584,-0.002,-0.257,99.82,85.9,40.576241,-3.535839,632.9,4,5,116.0,1.406
101.0,1,-0.005,0.009,-0.003,-0.021,0.019,-0.002,-1.582,-0.002,-0.259,99.82,85.9,40.576241,-3.535839,632.9,4,5,116.0,1.406
101.1,1,-0.023,0.03,0.016,-0.022,0.017,0.001,-1.581,-0.006,-0.261,99.82,85.9,40.576241,-3.535839,632.9,4,5,116.0,1.406
101.21,1,0.012,0.019,0.027,-0.001,0.009,0.02,-1.581,-0.007,-0.264,99.82,85.9,40.576241,-3.535839,632.9,4,5,116.0,1.406
101.31,1,0.012,0.022,0.018,0.007,0.019,0.022,-1.58,-0.007,-0.265,99.82,85.9,40.576241,-3.535839,632.9,4,5,116.0,1.406
101.4,1,-0.015,0.018,0.011,0.002,0.022,0.01,-1.579,-0.007,-0.267,100.83,87.3,40.576145,-3.535585,633.6,4,5,116.7,1.406
101.5,1,-0.013,0.008,-0.001,-0.006,0.015,0.011,-1.578,-0.008,-0.269,100.83,87.3,40.576145,-3.535585,633.6,4,5,116.7,1.406
101.6,1,-0.066,0.03,0.015,-0.029,0.019,0.013,-1.578,-0.011,-0.271,100.83,87.3,40.576145,-3.535585,633.6,4,5,116.7,1.406
101.7,1,-0.027,0.002,0.008,-0.047,0.015,0.007,-1.582,-0.012,-0.273,100.83,87.3,40.576145,-3.535585,633.6,4,5,116.7,1.406
101.8,1,-0.01,0.02,0.029,-0.03,0.015,0.021,-1.581,-0.013,-0.275,100.83,87.3,40.576145,-3.535585,633.6,4,5,116.7,1.406
101.9,1,-0.006,0.031,-0.005,-0.011,0.022,0.009,-1.579,-0.014,-0.277,100.83,87.3,40.576145,-3.535585,633.6,4,5,116.7,1.406
102.0,1,-0.027,0.007,0.029,-0.017,0.012,0.011,-1.576,-0.017,-0.279,100.83,87.3,40.576145,-3.535585,633.6,4,5,116.7,1.406
102.1,1,-0.019,-0.019,0.045,-0.022,-0.002,0.032,-1.576,-0.018,-0.281,100.83,87.3,40.576145,-3.535585,633.6,4,5,116.7,1.406
102.21,1,-0.033,0.017,0.003,-0.026,0.01,0.025,-1.576,-0.018,-0.283,100.83,87.3,40.576145,-3.535585,633.6,4,5,116.7,1.406
102.3,1,-0.004,0.013,0.01,-0.017,0.014,0.01,-1.576,-0.019,-0.285,100.83,87.3,40.576145,-3.535585,633.6,4,5,116.7,1.406
102.41,1,0.019,-0.027,0.039,-0.001,-0.007,0.024,-1.576,-0.02,-0.287,101.83,88.5,40.576042,-3.535326,634.5,4,5,117.4,1.406
102.5,1,0.02,0.007,0.026,0.015,-0.007,0.032,-1.574,-0.022,-0.289,101.83,88.5,40.576042,-3.535326,634.5,4,5,117.4,1.406
102.6,1,-0.025,0.029,0.011,-0.006,0.015,0.015,-1.575,-0.022,-0.291,101.83,88.5,40.576042,-3.535326,634.5,4,5,117.4,1.406
102.7,1,-0.023,-0.023,0.053,-0.02,0.006,0.027,-1.575,-0.022,-0.292,101.83,88.5,40.576042,-3.535326,634.5,4,5,117.4,1.406
102.82,1,-0.057,0.023,0.022,-0.022,-0.006,0.046,-1.571,-0.023,-0.294,101.83,88.5,40.576042,-3.535326,634.5,4,5,117.4,1.406
102.9,1,0.003,-0.007,-0.001,-0.024,0.006,0.014,-1.57,-0.023,-0.295,101.83,88.5,40.576042,-3.535326,634.5,4,5,117.4,1.406
103.0,1,0.01,0.03,0.029,-0.01,0.011,0.016,-1.568,-0.026,-0.297,101.83,88.5,40.576042,-3.535326,634.5,4,5,117.4,1.406
103.11,1,0.026,-0.016,0.024,0.011,0.005,0.022,-1.569,-0.031,-0.298,101.83,88.5,40.576042,-3.535326,634.5,4,5,117.4,1.406
103.21,1,0.019,-0.014,0.041,0.022,-0.013,0.031,-1.57,-0.032,-0.299,101.83,88.5,40.576042,-3.535326,634.5,4,5,117.4,1.406
103.31,1,-0.027,-0.014,0.047,0.0,-0.006,0.037,-1.571,-0.029,-0.301,101.83,88.5,40.576042,-3.535326,634.5,4,5,117.4,1.406
103.41,1,-0.03,-0.012,0.024,-0.018,-0.011,0.037,-1.576,-0.023,-0.302,102.83,89.1,40.575932,-3.535063,635.2,4,5,118.5,1.758
103.51,1,-0.011,0.003,0.033,-0.019,-0.012,0.035,-1.578,-0.025,-0.304,102.83,89.1,40.575932,-3.535063,635.2,4,5,118.5,1.758
103.61,1,-0.02,-0.01,-0.016,-0.016,-0.001,0.008,-1.581,-0.029,-0.305,102.83,89.1,40.575932,-3.535063,635.2,4,5,118.5,1.758
103.71,1,-0.031,-0.012,0.033,-0.019,-0.007,0.014,-1.583,-0.03,-0.306,102.83,89.1,40.575932,-3.535063,635.2,4,5,118.5,1.758
103.81,1,-0.021,-0.016,0.003,-0.031,-0.016,0.012,-1.587,-0.031,-0.307,102.83,89.1,40.575932,-3.535063,635.2,4,5,118.5,1.758
103.91,1,0.01,-0.003,0.03,-0.014,-0.006,0.015,-1.585,-0.034,-0.308,102.83,89.1,40.575932,-3.535063,635.2,4,5,118.5,1.758
104.01,1,0.043,0.005,-0.03,0.024,0.005,0.005,-1.583,-0.031,-0.31,102.83,89.1,40.575932,-3.535063,635.2,4,5,118.5,1.758
104.11,1,-0.05,0.009,-0.017,-0.005,-0.006,-0.013,-1.582,-0.027,-0.31,102.83,89.1,40.575932,-3.535063,635.2,4,5,118.5,1.758
104.21,1,-0.07,0.009,-0.019,-0.041,0.006,-0.017,-1.582,-0.026,-0.312,102.83,89.1,40.575932,-3.535063,635.2,4,5,118.5,1.758
104.31,1,-0.03,0.015,0.028,-0.046,0.014,0.002,-1.579,-0.028,-0.313,102.83,89.1,40.575932,-3.535063,635.2,4,5,118.5,1.758
104.41,1,-0.011,-0.011,-0.027,-0.021,-0.001,-0.001,-1.575,-0.025,-0.313,103.84,90.0,40.575829,-3.53481,635.7,4,5,119.5,2.109
104.51,1,-0.023,-0.01,-0.024,-0.031,-0.008,-0.024,-1.574,-0.023,-0.314,103.84,90.0,40.575829,-3.53481,635.7,4,5,119.5,2.109
104.61,1,0.015,0.001,-0.004,-0.003,-0.002,-0.014,-1.572,-0.025,-0.316,103.84,90.0,40.575829,-3.53481,635.7,4,5,119.5,2.109
104.71,1,0.02,-0.019,-0.028,0.009,-0.009,-0.015,-1.571,-0.021,-0.318,103.84,90.0,40.575829,-3.53481,635.7,4,5,119.5,2.109
104.82,1,-0.012,0.023,-0.034,0.001,0.001,-0.027,-1.567,-0.02,-0.319,103.84,90.0,40.575829,-3.53481,635.7,4,5,119.5,2.109
104.91,1,-0.006,-0.001,-0.014,-0.005,0.008,-0.021,-1.566,-0.021,-0.32,103.84,90.0,40.575829,-3.53481,635.7,4,5,119.5,2.109
105.01,1,-0.026,-0.004,-0.055,-0.014,0.002,-0.034,-1.563,-0.02,-0.321,103.84,90.0,40.575829,-3.53481,635.7,4,5,119.5,2.109
105.11,1,-0.048,-0.001,-0.004,-0.025,-0.004,-0.028,-1.563,-0.022,-0.323,103.84,90.0,40.575829,-3.53481,635.7,4,5,119.5,2.109
105.21,1,-0.057,-0.011,-0.002,-0.046,-0.002,-0.012,-1.563,-0.024,-0.324,103.84,90.0,40.575829,-3.53481,635.7,4,5,119.5,2.109
105.32,1,-0.014,0.012,0.012,-0.036,0.004,-0.002,-1.56,-0.026,-0.325,103.84,90.0,40.575829,-3.53481,635.7,4,5,119.5,2.109
105.42,1,0.021,-0.01,-0.007,-0.01,-0.002,0.005,-1.555,-0.028,-0.326,104.85,90.3,40.575706,-3.534551,636.5,4,5,120.2,1.758
105.52,1,0.014,0.001,-0.011,0.013,-0.005,-0.01,-1.554,-0.027,-0.327,104.85,90.3,40.575706,-3.534551,636.5,4,5,120.2,1.758
105.62,1,-0.031,0.012,-0.023,-0.007,0.004,-0.013,-1.553,-0.026,-0.329,104.85,90.3,40.575706,-3.534551,636.5,4,5,120.2,1.758
105.71,1,-0.06,-0.009,-0.009,-0.035,0.001,-0.016,-1.552,-0.026,-0.329,104.85,90.3,40.575706,-3.534551,636.5,4,5,120.2,1.758
105.81,1,-0.032,0.018,0.02,-0.044,0.003,-0.005,-1.556,-0.024,-0.331,104.85,90.3,40.575706,-3.534551,636.5,4,5,120.2,1.758
105.91,1,0.033,0.046,0.044,-0.011,0.025,0.023,-1.557,-0.026,-0.334,104.85,90.3,40.575706,-3.534551,636.5,4,5,120.2,1.758
106.01,1,0.055,0.024,-0.01,0.025,0.036,0.019,-1.556,-0.03,-0.335,104.85,90.3,40.575706,-3.534551,636.5,4,5,120.2,1.758
106.11,1,0.011,0.012,-0.006,0.04,0.02,0.006,-1.555,-0.035,-0.337,104.85,90.3,40.575706,-3.534551,636.5,4,5,120.2,1.758
106.21,1,-0.223,-0.018,-0.076,-0.081,-0.001,-0.041,-1.558,-0.035,-0.338,104.85,90.3,40.575706,-3.534551,636.5,4,5,120.2,1.758
106.32,1,-0.206,-0.011,0.065,-0.179,-0.013,-0.014,-1.567,-0.036,-0.339,104.85,90.3,40.575706,-3.534551,636.5,4,5,120.2,1.758
106.41,1,0.038,0.009,0.062,-0.09,0.004,0.055,-1.563,-0.038,-0.341,105.87,89.4,40.575588,-3.534297,636.9,4,5,120.9,1.406
106.52,1,0.152,0.012,-0.002,0.046,0.008,0.036,-1.557,-0.037,-0.342,105.87,89.4,40.575588,-3.534297,636.9,4,5,120.9,1.406
106.62,1,0.062,-0.009,-0.036,0.088,0.0,-0.012,-1.554,-0.037,-0.343,105.87,89.4,40.575588,-3.534297,636.9,4,5,120.9,1.406
106.72,1,-0.082,0.003,0.031,0.005,-0.001,-0.0,-1.556,-0.041,-0.343,105.87,89.4,40.575588,-3.534297,636.9,4,5,120.9,1.406
106.82,1,-0.098,-0.02,0.06,-0.061,-0.011,0.037,-1.562,-0.042,-0.344,105.87,89.4,40.575588,-3.534297,636.9,4,5,120.9,1.406
106.92,1,-0.066,-0.023,0.022,-0.078,-0.016,0.036,-1.564,-0.039,-0.345,105.87,89.4,40.575588,-3.534297,636.9,4,5,120.9,1.406
107.02,1,0.025,-0.024,0.003,-0.032,-0.024,0.019,-1.565,-0.039,-0.345,105.87,89.4,40.575588,-3.534297,636.9,4,5,120.9,1.406
107.12,1,0.035,-0.041,-0.043,0.016,-0.026,-0.01,-1.563,-0.036,-0.346,105.87,89.4,40.575588,-3.534297,636.9,4,5,120.9,1.406
107.22,1,-0.02,0.004,0.006,0.003,-0.022,-0.011,-1.563,-0.037,-0.347,105.87,89.4,40.575588,-3.534297,636.9,4,5,120.9,1.406
107.32,1,-0.037,-0.012,0.031,-0.016,-0.006,0.009,-1.566,-0.038,-0.348,105.87,89.4,40.575588,-3.534297,636.9,4,5,120.9,1.406
107.42,1,-0.012,-0.019,-0.011,-0.024,-0.012,0.005,-1.567,-0.039,-0.348,106.83,89.0,40.575478,-3.534064,637.8,4,5,121.6,1.406
107.52,1,0.009,-0.031,0.006,-0.006,-0.023,-0.001,-1.566,-0.039,-0.349,106.83,89.0,40.575478,-3.534064,637.8,4,5,121.6,1.406
107.62,1,-0.024,0.007,-0.003,-0.01,-0.014,0.003,-1.566,-0.039,-0.35,106.83,89.0,40.575478,-3.534064,637.8,4,5,121.6,1.406
107.72,1,-0.03,-0.006,-0.011,-0.021,-0.007,-0.004,-1.565,-0.036,-0.35,106.83,89.0,40.575478,-3.534064,637.8,4,5,121.6,1.406
107.82,1,-0.048,-0.012,-0.014,-0.034,-0.007,-0.008,-1.565,-0.036,-0.351,106.83,89.0,40.575478,-3.534064,637.8,4,5,121.6,1.406
107.93,1,-0.025,-0.036,0.004,-0.037,-0.018,-0.012,-1.567,-0.031,-0.351,106.83,89.0,40.575478,-3.534064,637.8,4,5,121.6,1.406
108.02,1,0.045,-0.021,0.043,0.001,-0.028,0.02,-1.564,-0.036,-0.352,106.83,89.0,40.575478,-3.534064,637.8,4,5,121.6,1.406
108.12,1,0.02,0.01,0.007,0.02,-0.008,0.016,-1.561,-0.034,-0.352,106.83,89.0,40.575478,-3.534064,637.8,4,5,121.6,1.406
108.22,1,0.009,-0.039,-0.016,0.022,-0.018,0.003,-1.56,-0.028,-0.352,106.83,89.0,40.575478,-3.534064,637.8,4,5,121.6,1.406
108.32,1,0.005,-0.03,0.014,0.008,-0.021,0.002,-1.561,-0.024,-0.351,106.83,89.0,40.575478,-3.534064,637.8,4,5,121.6,1.406
108.42,1,-0.044,0.001,0.023,-0.008,-0.021,0.014,-1.559,-0.024,-0.352,107.83,88.3,40.575348,-3.533816,638.3,4,5,122.7,1.758
108.52,1,-0.009,0.016,0.035,-0.029,-0.0,0.022,-1.557,-0.024,-0.351,107.83,88.3,40.575348,-3.533816,638.3,4,5,122.7,1.758
108.62,1,0.014,-0.007,0.031,-0.006,0.004,0.032,-1.559,-0.023,-0.351,107.83,88.3,40.575348,-3.533816,638.3,4,5,122.7,1.758
108.72,1,0.023,-0.003,0.01,0.01,-0.003,0.021,-1.56,-0.025,-0.351,107.83,88.3,40.575348,-3.533816,638.3,4,5,122.7,1.758
108.82,1,0.004,-0.032,-0.022,0.014,-0.012,0.003,-1.56,-0.022,-0.351,107.83,88.3,40.575348,-3.533816,638.3,4,5,122.7,1.758
108.92,1,-0.01,-0.02,0.008,0.004,-0.023,-0.002,-1.558,-0.018,-0.351,107.83,88.3,40.575348,-3.533816,638.3,4,5,122.7,1.758
109.02,1,-0.049,-0.036,-0.012,-0.018,-0.03,-0.001,-1.557,-0.016,-0.35,107.83,88.3,40.575348,-3.533816,638.3,4,5,122.7,1.758
109.13,1,-0.054,-0.007,0.005,-0.045,-0.019,-0.002,-1.56,-0.018,-0.35,107.83,88.3,40.575348,-3.533816,638.3,4,5,122.7,1.758
109.22,1,-0.024,-0.024,-0.001,-0.041,-0.019,0.001,-1.561,-0.021,-0.35,107.83,88.3,40.575348,-3.533816,638.3,4,5,122.7,1.758
109.32,1,-0.004,-0.012,0.016,-0.018,-0.017,0.004,-1.563,-0.023,-0.349,107.83,88.3,40.575348,-3.533816,638.3,4,5,122.7,1.758
109.42,1,0.004,-0.028,-0.004,-0.005,-0.021,0.005,-1.562,-0.024,-0.349,108.86,88.7,40.575233,-3.533576,638.9,4,5,123.8,2.109
109.52,1,0.006,-0.027,0.02,-0.0,-0.02,0.009,-1.561,-0.024,-0.347,108.86,88.7,40.575233,-3.533576,638.9,4,5,123.8,2.109
109.63,1,0.022,-0.035,0.015,0.008,-0.029,0.009,-1.56,-0.025,-0.346,108.86,88.7,40.575233,-3.533576,638.9,4,5,123.8,2.109
109.73,1,0.009,-0.043,-0.013,0.009,-0.035,0.005,-1.558,-0.023,-0.345,108.86,88.7,40.575233,-3.533576,638.9,4,5,123.8,2.109
109.84,1,-0.027,-0.035,0.012,0.001,-0.04,0.006,-1.557,-0.024,-0.344,108.86,88.7,40.575233,-3.533576,638.9,4,5,123.8,2.109
109.93,1,-0.007,-0.055,-0.004,-0.009,-0.044,0.004,-1.557,-0.025,-0.343,108.86,88.7,40.575233,-3.533576,638.9,4,5,123.8,2.109
110.02,1,-0.019,-0.018,-0.001,-0.012,-0.039,-0.002,-1.557,-0.024,-0.341,108.86,88.7,40.575233,-3.533576,638.9,4,5,123.8,2.109
110.12,1,-0.032,-0.038,-0.004,-0.027,-0.037,-0.003,-1.558,-0.019,-0.34,108.86,88.7,40.575233,-3.533576,638.9,4,5,123.8,2.109
110.23,1,-0.057,-0.018,0.0,-0.038,-0.026,0.002,-1.559,-0.019,-0.338,108.86,88.7,40.575233,-3.533576,638.9,4,5,123.8,2.109
110.33,1,-0.003,-0.005,0.009,-0.029,-0.009,0.004,-1.562,-0.016,-0.338,108.86,88.7,40.575233,-3.533576,638.9,4,5,123.8,2.109
110.43,1,-0.01,-0.002,0.003,-0.012,-0.007,0.003,-1.562,-0.012,-0.337,109.83,87.5,40.575115,-3.533354,639.7,4,5,123.4,0.703
110.53,1,0.01,-0.012,0.013,-0.003,-0.012,0.003,-1.562,-0.012,-0.336,109.83,87.5,40.575115,-3.533354,639.7,4,5,123.4,0.703
110.63,1,-0.007,-0.004,0.001,-0.004,-0.01,0.011,-1.562,-0.012,-0.334,109.83,87.5,40.575115,-3.533354,639.7,4,5,123.4,0.703
110.73,1,0.002,0.003,-0.004,0.005,-0.005,-0.001,-1.563,-0.013,-0.334,109.83,87.5,40.575115,-3.533354,639.7,4,5,123.4,0.703
110.83,1,-0.068,0.001,-0.001,-0.03,-0.002,-0.001,-1.566,-0.006,-0.333,109.83,87.5,40.575115,-3.533354,639.7,4,5,123.4,0.703
111.04,1,-0.02,-0.005,-0.013,-0.028,0.002,-0.013,-1.569,-0.005,-0.332,109.83,87.5,40.575115,-3.533354,639.7,4,5,123.4,0.703
111.14,1,-0.013,0.027,0.018,-0.02,0.008,-0.003,-1.57,-0.007,-0.332,109.83,87.5,40.575115,-3.533354,639.7,4,5,123.4,0.703
111.23,1,-0.003,0.036,-0.003,-0.015,0.022,0.001,-1.57,-0.006,-0.332,109.83,87.5,40.575115,-3.533354,639.7,4,5,123.4,0.703
111.33,1,-0.017,0.037,-0.018,-0.015,0.031,-0.008,-1.568,-0.011,-0.333,109.83,87.5,40.575115,-3.533354,639.7,4,5,123.4,0.703
111.43,1,0.019,0.038,0.018,0.003,0.04,-0.004,-1.57,-0.016,-0.334,109.83,87.5,40.575115,-3.533354,639.7,4,5,123.4,0.703
111.53,1,0.045,0.063,0.01,0.02,0.047,0.01,-1.571,-0.018,-0.335,110.83,87.1,40.574986,-3.53311,640.1,6,5,123.0,0.703
111.63,1,-0.052,0.041,-0.017,-0.0,0.048,0.005,-1.571,-0.017,-0.336,110.83,87.1,40.574986,-3.53311,640.1,6,5,123.0,0.703
111.73,1,0.03,0.021,0.007,0.001,0.036,-0.003,-1.571,-0.016,-0.337,110.83,87.1,40.574986,-3.53311,640.1,6,5,123.0,0.703
111.84,1,-0.021,0.031,0.004,0.0,0.03,0.006,-1.574,-0.017,-0.338,110.83,87.1,40.574986,-3.53311,640.1,6,5,123.0,0.703
111.93,1,-0.018,0.018,-0.014,-0.014,0.025,-0.001,-1.573,-0.021,-0.339,110.83,87.1,40.574986,-3.53311,640.1,6,5,123.0,0.703
112.04,1,-0.058,0.027,0.017,-0.031,0.025,-0.001,-1.573,-0.022,-0.339,110.83,87.1,40.574986,-3.53311,640.1,6,5,123.0,0.703
112.13,1,-0.046,-0.01,0.027,-0.05,0.012,0.012,-1.575,-0.026,-0.34,110.83,87.1,40.574986,-3.53311,640.1,6,5,123.0,0.703
112.24,1,0.012,0.003,0.017,-0.025,0.003,0.019,-1.575,-0.03,-0.34,110.83,87.1,40.574986,-3.53311,640.1,6,5,123.0,0.703
112.33,1,0.056,-0.003,0.03,0.024,-0.001,0.02,-1.573,-0.032,-0.34,110.83,87.1,40.574986,-3.53311,640.1,6,5,123.0,0.703
112.44,1,0.03,-0.013,0.027,0.035,-0.006,0.027,-1.569,-0.033,-0.341,110.83,87.1,40.574986,-3.53311,640.1,6,5,123.0,0.703
112.53,1,-0.023,0.01,-0.013,0.006,0.001,0.009,-1.567,-0.033,-0.34,111.83,86.4,40.574867,-3.532859,640.7,4,5,122.7,0.703
