Timestamp_Accel,SystemActivated,accelerometerXAxis,accelerometerYAxis,accelerometerZAxis,AccelX_KF,AccelY_KF,AccelZ_KF,gyroscopeXAxis,gyroscopeYAxis,gyroscopeZAxis,Timestamp_GPS,Speed,latitude,longitude,Altitude,VerticalAccuracy,HorizontalAccuracy,Course,Difcourse
24.57,1,-0.025,-0.078,0.009,-0.036,-0.048,0.013,-1.739,0.024,-1.178,24.56,79.6,40.505848,-3.357018,605.6,3,5,275.6,0.352
24.67,1,0.01,-0.056,0.013,-0.017,-0.058,0.015,-1.737,0.024,-1.175,24.56,79.6,40.505848,-3.357018,605.6,3,5,275.6,0.352
24.77,1,-0.026,-0.045,-0.008,-0.017,-0.057,0.002,-1.735,0.026,-1.173,24.56,79.6,40.505848,-3.357018,605.6,3,5,275.6,0.352
24.87,1,-0.011,-0.037,0.009,-0.019,-0.04,-0.002,-1.735,0.023,-1.171,24.56,79.6,40.505848,-3.357018,605.6,3,5,275.6,0.352
24.98,1,-0.038,0.006,-0.002,-0.021,-0.019,0.006,-1.736,0.021,-1.17,24.56,79.6,40.505848,-3.357018,605.6,3,5,275.6,0.352
25.07,1,-0.018,-0.001,-0.008,-0.022,-0.003,-0.006,-1.734,0.02,-1.168,24.56,79.6,40.505848,-3.357018,605.6,3,5,275.6,0.352
25.17,1,0.052,0.006,0.009,0.004,-0.002,0.007,-1.732,0.019,-1.167,24.56,79.6,40.505848,-3.357018,605.6,3,5,275.6,0.352
25.27,1,0.039,0.025,-0.015,0.033,0.006,-0.005,-1.731,0.018,-1.167,24.56,79.6,40.505848,-3.357018,605.6,3,5,275.6,0.352
25.38,1,-0.046,0.018,-0.07,0.001,0.016,-0.034,-1.726,0.018,-1.167,24.56,79.6,40.505848,-3.357018,605.6,3,5,275.6,0.352
25.48,1,-0.005,0.012,-0.119,-0.015,0.017,-0.073,-1.716,0.019,-1.167,24.56,79.6,40.505848,-3.357018,605.6,3,5,275.6,0.352
25.57,1,-0.029,0.014,-0.187,-0.015,0.015,-0.131,-1.705,0.019,-1.167,25.61,85.9,40.505863,-3.357287,605.7,3,5,274.6,1.055
25.68,1,-0.081,0.015,-0.173,-0.043,0.014,-0.165,-1.693,0.017,-1.166,25.61,85.9,40.505863,-3.357287,605.7,3,5,274.6,1.055
25.78,1,-0.024,-0.002,-0.15,-0.055,0.008,-0.165,-1.683,0.015,-1.166,25.61,85.9,40.505863,-3.357287,605.7,3,5,274.6,1.055
25.88,1,0.034,-0.001,-0.12,0.001,0.003,-0.135,-1.672,0.013,-1.166,25.61,85.9,40.505863,-3.357287,605.7,3,5,274.6,1.055
25.99,1,-0.023,0.012,-0.135,-0.001,0.008,-0.132,-1.659,0.009,-1.166,25.61,85.9,40.505863,-3.357287,605.7,3,5,274.6,1.055
26.08,1,-0.056,0.034,-0.104,-0.039,0.022,-0.129,-1.648,0.003,-1.167,25.61,85.9,40.505863,-3.357287,605.7,3,5,274.6,1.055
26.19,1,-0.047,-0.022,-0.085,-0.041,0.003,-0.096,-1.644,0.002,-1.167,25.61,85.9,40.505863,-3.357287,605.7,3,5,274.6,1.055
26.28,1,-0.018,0.003,-0.102,-0.03,-0.005,-0.101,-1.643,0.0,-1.168,25.61,85.9,40.505863,-3.357287,605.7,3,5,274.6,1.055
26.38,1,0.085,0.047,-0.096,0.016,0.015,-0.098,-1.642,-0.003,-1.171,25.61,85.9,40.505863,-3.357287,605.7,3,5,274.6,1.055
26.48,1,-0.009,0.078,-0.119,0.026,0.049,-0.104,-1.643,-0.006,-1.173,25.61,85.9,40.505863,-3.357287,605.7,3,5,274.6,1.055
26.58,1,-0.017,0.043,-0.143,-0.001,0.058,-0.124,-1.64,-0.005,-1.174,26.55,87.5,40.505882,-3.357574,605.3,3,5,275.3,0.703
26.68,1,-0.037,-0.0,-0.147,-0.018,0.029,-0.142,-1.624,-0.005,-1.173,26.55,87.5,40.505882,-3.357574,605.3,3,5,275.3,0.703
26.78,1,-0.022,-0.008,-0.098,-0.024,0.01,-0.124,-1.619,-0.003,-1.173,26.55,87.5,40.505882,-3.357574,605.3,3,5,275.3,0.703
26.88,1,-0.036,-0.016,-0.075,-0.031,-0.008,-0.099,-1.614,-0.002,-1.173,26.55,87.5,40.505882,-3.357574,605.3,3,5,275.3,0.703
26.98,1,-0.012,0.003,-0.061,-0.02,-0.004,-0.076,-1.609,-0.006,-1.174,26.55,87.5,40.505882,-3.357574,605.3,3,5,275.3,0.703
27.08,1,-0.032,0.035,-0.06,-0.02,0.016,-0.064,-1.603,-0.014,-1.175,26.55,87.5,40.505882,-3.357574,605.3,3,5,275.3,0.703
27.19,1,0.039,0.044,-0.013,-0.009,0.023,-0.051,-1.599,-0.015,-1.175,26.55,87.5,40.505882,-3.357574,605.3,3,5,275.3,0.703
27.28,1,0.054,0.017,0.012,0.032,0.027,-0.009,-1.597,-0.014,-1.175,26.55,87.5,40.505882,-3.357574,605.3,3,5,275.3,0.703
27.39,1,-0.007,-0.01,-0.059,0.021,0.013,-0.029,-1.594,-0.009,-1.175,26.55,87.5,40.505882,-3.357574,605.3,3,5,275.3,0.703
27.48,1,-0.032,-0.034,0.018,-0.014,-0.009,-0.018,-1.597,-0.006,-1.174,26.55,87.5,40.505882,-3.357574,605.3,3,5,275.3,0.703
27.58,1,0.025,-0.002,-0.022,0.005,-0.015,-0.004,-1.595,-0.007,-1.175,27.54,86.8,40.505901,-3.357868,604.8,3,5,276.0,1.406
27.68,1,-0.001,-0.021,-0.015,0.013,-0.02,-0.02,-1.593,-0.01,-1.176,27.54,86.8,40.505901,-3.357868,604.8,3,5,276.0,1.406
27.8,1,-0.071,0.032,-0.001,-0.031,0.005,-0.012,-1.594,-0.013,-1.177,27.54,86.8,40.505901,-3.357868,604.8,3,5,276.0,1.406
27.88,1,0.014,-0.008,0.055,-0.024,0.002,0.02,-1.598,-0.013,-1.177,27.54,86.8,40.505901,-3.357868,604.8,3,5,276.0,1.406
28.0,1,0.074,0.005,-0.01,0.022,0.006,0.02,-1.598,-0.017,-1.178,27.54,86.8,40.505901,-3.357868,604.8,3,5,276.0,1.406
28.08,1,0.035,0.002,-0.022,0.049,0.004,-0.007,-1.597,-0.017,-1.179,27.54,86.8,40.505901,-3.357868,604.8,3,5,276.0,1.406
28.18,1,-0.027,-0.009,-0.019,0.017,-0.005,-0.016,-1.598,-0.02,-1.179,27.54,86.8,40.505901,-3.357868,604.8,3,5,276.0,1.406
28.28,1,-0.074,0.006,0.019,-0.034,0.001,-0.001,-1.601,-0.025,-1.18,27.54,86.8,40.505901,-3.357868,604.8,3,5,276.0,1.406
28.39,1,-0.051,0.013,0.021,-0.054,0.006,0.012,-1.604,-0.026,-1.181,27.54,86.8,40.505901,-3.357868,604.8,3,5,276.0,1.406
28.48,1,-0.032,-0.004,-0.0,-0.041,0.0,0.011,-1.604,-0.026,-1.181,27.54,86.8,40.505901,-3.357868,604.8,3,5,276.0,1.406
28.59,1,-0.03,0.018,0.011,-0.035,0.011,0.006,-1.605,-0.029,-1.182,28.56,88.3,40.505924,-3.358147,604.7,3,5,276.0,0.703
28.68,1,-0.008,0.0,0.043,-0.023,0.011,0.02,-1.611,-0.028,-1.182,28.56,88.3,40.505924,-3.358147,604.7,3,5,276.0,0.703
28.79,1,-0.034,-0.03,0.043,-0.024,-0.01,0.037,-1.614,-0.022,-1.182,28.56,88.3,40.505924,-3.358147,604.7,3,5,276.0,0.703
28.88,1,-0.001,-0.042,0.068,-0.019,-0.027,0.05,-1.617,-0.017,-1.183,28.56,88.3,40.505924,-3.358147,604.7,3,5,276.0,0.703
28.99,1,0.013,-0.009,0.043,-0.001,-0.021,0.056,-1.616,-0.016,-1.183,28.56,88.3,40.505924,-3.358147,604.7,3,5,276.0,0.703
29.1,1,0.004,-0.011,0.03,0.009,-0.016,0.039,-1.619,-0.011,-1.182,28.56,88.3,40.505924,-3.358147,604.7,3,5,276.0,0.703
29.19,1,-0.025,-0.034,0.056,-0.011,-0.026,0.043,-1.625,-0.01,-1.18,28.56,88.3,40.505924,-3.358147,604.7,3,5,276.0,0.703
29.29,1,-0.024,-0.035,0.039,-0.018,-0.029,0.048,-1.629,-0.01,-1.179,28.56,88.3,40.505924,-3.358147,604.7,3,5,276.0,0.703
29.39,1,-0.033,-0.037,0.029,-0.029,-0.029,0.035,-1.63,-0.007,-1.179,28.56,88.3,40.505924,-3.358147,604.7,3,5,276.0,0.703
29.49,1,-0.018,-0.022,0.015,-0.021,-0.035,0.03,-1.632,-0.006,-1.179,28.56,88.3,40.505924,-3.358147,604.7,3,5,276.0,0.703
29.6,1,-0.013,0.022,-0.036,-0.019,-0.009,-0.003,-1.63,-0.009,-1.179,29.55,91.5,40.505947,-3.358443,605.0,4,5,276.0,0.0
29.69,1,-0.015,0.028,-0.055,-0.017,0.016,-0.033,-1.625,-0.012,-1.179,29.55,91.5,40.505947,-3.358443,605.0,4,5,276.0,0.0
29.79,1,-0.023,-0.015,-0.05,-0.018,0.007,-0.044,-1.623,-0.013,-1.178,29.55,91.5,40.505947,-3.358443,605.0,4,5,276.0,0.0
29.89,1,-0.043,-0.032,-0.056,-0.024,-0.012,-0.049,-1.618,-0.01,-1.177,29.55,91.5,40.505947,-3.358443,605.0,4,5,276.0,0.0
29.99,1,-0.056,-0.038,-0.055,-0.046,-0.03,-0.054,-1.614,-0.009,-1.176,29.55,91.5,40.505947,-3.358443,605.0,4,5,276.0,0.0
30.09,1,-0.043,-0.052,-0.055,-0.045,-0.044,-0.051,-1.61,-0.007,-1.176,29.55,91.5,40.505947,-3.358443,605.0,4,5,276.0,0.0
30.19,1,-0.008,0.002,-0.037,-0.03,-0.025,-0.049,-1.607,-0.008,-1.175,29.55,91.5,40.505947,-3.358443,605.0,4,5,276.0,0.0
30.29,1,-0.018,-0.006,-0.045,-0.022,-0.016,-0.046,-1.605,-0.01,-1.173,29.55,91.5,40.505947,-3.358443,605.0,4,5,276.0,0.0
30.4,1,-0.051,-0.049,-0.044,-0.036,-0.023,-0.047,-1.602,-0.007,-1.17,29.55,91.5,40.505947,-3.358443,605.0,4,5,276.0,0.0
30.49,1,-0.023,-0.06,-0.021,-0.03,-0.042,-0.032,-1.601,-0.004,-1.168,29.55,91.5,40.505947,-3.358443,605.0,4,5,276.0,0.0
30.59,1,0.007,-0.077,-0.042,-0.021,-0.057,-0.038,-1.598,0.002,-1.165,30.57,92.6,40.50597,-3.358751,604.7,4,5,276.0,0.0
30.69,1,0.036,-0.035,-0.017,0.012,-0.054,-0.025,-1.595,0.005,-1.163,30.57,92.6,40.50597,-3.358751,604.7,4,5,276.0,0.0
30.79,1,-0.037,-0.036,-0.063,0.008,-0.046,-0.041,-1.59,0.007,-1.16,30.57,92.6,40.50597,-3.358751,604.7,4,5,276.0,0.0
30.89,1,-0.063,-0.067,-0.007,-0.038,-0.054,-0.032,-1.59,0.006,-1.158,30.57,92.6,40.50597,-3.358751,604.7,4,5,276.0,0.0
31.0,1,0.002,-0.03,-0.041,-0.028,-0.044,-0.029,-1.586,0.006,-1.155,30.57,92.6,40.50597,-3.358751,604.7,4,5,276.0,0.0
31.1,1,-0.031,-0.043,-0.033,-0.022,-0.043,-0.036,-1.584,0.008,-1.152,30.57,92.6,40.50597,-3.358751,604.7,4,5,276.0,0.0
31.19,1,-0.046,-0.024,-0.035,-0.035,-0.032,-0.034,-1.583,0.013,-1.148,30.57,92.6,40.50597,-3.358751,604.7,4,5,276.0,0.0
31.29,1,-0.038,-0.051,-0.002,-0.037,-0.037,-0.028,-1.584,0.017,-1.144,30.57,92.6,40.50597,-3.358751,604.7,4,5,276.0,0.0
31.39,1,-0.039,-0.019,-0.027,-0.038,-0.035,-0.011,-1.585,0.028,-1.141,30.57,92.6,40.50597,-3.358751,604.7,4,5,276.0,0.0
31.49,1,-0.029,-0.02,-0.007,-0.034,-0.032,-0.015,-1.588,0.033,-1.137,30.57,92.6,40.50597,-3.358751,604.7,4,5,276.0,0.0
31.6,1,-0.026,-0.028,0.028,-0.03,-0.026,0.002,-1.589,0.033,-1.134,31.55,92.6,40.505993,-3.359046,604.6,4,5,274.6,1.406
31.7,1,-0.004,-0.005,0.013,-0.017,-0.016,0.016,-1.59,0.034,-1.131,31.55,92.6,40.505993,-3.359046,604.6,4,5,274.6,1.406
31.79,1,-0.009,-0.011,-0.001,-0.013,-0.011,0.003,-1.589,0.035,-1.129,31.55,92.6,40.505993,-3.359046,604.6,4,5,274.6,1.406
31.89,1,0.015,-0.011,-0.008,0.003,-0.007,-0.001,-1.587,0.034,-1.128,31.55,92.6,40.505993,-3.359046,604.6,4,5,274.6,1.406
32.0,1,0.02,0.009,-0.002,0.015,-0.003,-0.002,-1.584,0.035,-1.126,31.55,92.6,40.505993,-3.359046,604.6,4,5,274.6,1.406
32.09,1,-0.013,0.013,-0.041,-0.003,0.007,-0.021,-1.582,0.033,-1.124,31.55,92.6,40.505993,-3.359046,604.6,4,5,274.6,1.406
32.21,1,-0.055,-0.022,-0.008,-0.022,-0.002,-0.021,-1.58,0.033,-1.121,31.55,92.6,40.505993,-3.359046,604.6,4,5,274.6,1.406
32.3,1,-0.023,-0.036,-0.011,-0.034,-0.021,-0.01,-1.579,0.035,-1.118,31.55,92.6,40.505993,-3.359046,604.6,4,5,274.6,1.406
32.4,1,-0.017,-0.046,-0.03,-0.021,-0.037,-0.017,-1.578,0.038,-1.115,31.55,92.6,40.505993,-3.359046,604.6,4,5,274.6,1.406
32.5,1,-0.007,-0.027,-0.013,-0.014,-0.037,-0.017,-1.576,0.04,-1.112,31.55,92.6,40.505993,-3.359046,604.6,4,5,274.6,1.406
32.6,1,-0.002,0.005,-0.016,-0.006,-0.018,-0.016,-1.576,0.039,-1.109,32.54,93.7,40.506008,-3.359354,605.1,4,5,273.2,2.812
32.7,1,-0.033,0.016,-0.004,-0.018,0.005,-0.014,-1.575,0.037,-1.106,32.54,93.7,40.506008,-3.359354,605.1,4,5,273.2,2.812
32.81,1,-0.015,-0.029,0.011,-0.021,-0.007,-0.002,-1.576,0.042,-1.102,32.54,93.7,40.506008,-3.359354,605.1,4,5,273.2,2.812
32.91,1,-0.026,-0.051,0.008,-0.016,-0.029,0.008,-1.578,0.048,-1.098,32.54,93.7,40.506008,-3.359354,605.1,4,5,273.2,2.812
33.0,1,-0.031,-0.039,0.004,-0.031,-0.04,0.001,-1.581,0.054,-1.093,32.54,93.7,40.506008,-3.359354,605.1,4,5,273.2,2.812
33.1,1,-0.004,-0.061,0.013,-0.021,-0.045,0.009,-1.582,0.059,-1.087,32.54,93.7,40.506008,-3.359354,605.1,4,5,273.2,2.812
33.2,1,-0.011,-0.06,-0.014,-0.016,-0.056,0.0,-1.581,0.064,-1.083,32.54,93.7,40.506008,-3.359354,605.1,4,5,273.2,2.812
33.3,1,0.009,-0.051,0.002,0.0,-0.056,0.001,-1.583,0.068,-1.078,32.54,93.7,40.506008,-3.359354,605.1,4,5,273.2,2.812
33.41,1,0.007,-0.04,-0.017,0.003,-0.051,-0.007,-1.583,0.072,-1.073,32.54,93.7,40.506008,-3.359354,605.1,4,5,273.2,2.812
33.5,1,-0.001,-0.019,-0.006,0.005,-0.034,-0.01,-1.582,0.075,-1.068,32.54,93.7,40.506008,-3.359354,605.1,4,5,273.2,2.812
33.7,1,-0.043,-0.043,0.024,-0.031,-0.036,-0.006,-1.581,0.079,-1.059,33.55,94.2,40.506016,-3.359661,604.8,4,5,271.4,3.164
33.8,1,-0.014,-0.054,0.007,-0.028,-0.042,0.012,-1.582,0.077,-1.054,33.55,94.2,40.506016,-3.359661,604.8,4,5,271.4,3.164
33.91,1,0.013,-0.013,-0.008,-0.002,-0.033,0.003,-1.582,0.081,-1.049,33.55,94.2,40.506016,-3.359661,604.8,4,5,271.4,3.164
34.0,1,-0.069,-0.012,-0.022,-0.028,-0.021,-0.01,-1.583,0.082,-1.046,33.55,94.2,40.506016,-3.359661,604.8,4,5,271.4,3.164
34.1,1,-0.027,0.01,0.032,-0.042,-0.009,0.004,-1.585,0.078,-1.043,33.55,94.2,40.506016,-3.359661,604.8,4,5,271.4,3.164
34.2,1,-0.021,0.051,-0.034,-0.023,0.02,0.002,-1.583,0.071,-1.041,33.55,94.2,40.506016,-3.359661,604.8,4,5,271.4,3.164
34.3,1,-0.09,0.057,-0.037,-0.051,0.039,-0.029,-1.581,0.066,-1.039,33.55,94.2,40.506016,-3.359661,604.8,4,5,271.4,3.164
34.4,1,-0.013,0.058,-0.008,-0.046,0.056,-0.021,-1.58,0.064,-1.036,33.55,94.2,40.506016,-3.359661,604.8,4,5,271.4,3.164
34.5,1,-0.021,0.04,-0.047,-0.03,0.058,-0.034,-1.578,0.061,-1.034,33.55,94.2,40.506016,-3.359661,604.8,4,5,271.4,3.164
34.61,1,-0.004,0.034,-0.04,-0.019,0.042,-0.036,-1.575,0.057,-1.032,33.55,94.2,40.506016,-3.359661,604.8,4,5,271.4,3.164
34.7,1,0.016,0.035,-0.043,0.002,0.029,-0.036,-1.572,0.058,-1.031,34.56,94.6,40.506012,-3.359968,604.7,4,5,268.6,4.57
34.8,1,-0.02,0.023,-0.052,-0.001,0.031,-0.047,-1.568,0.056,-1.029,34.56,94.6,40.506012,-3.359968,604.7,4,5,268.6,4.57
34.9,1,-0.041,0.052,-0.038,-0.024,0.038,-0.046,-1.567,0.052,-1.029,34.56,94.6,40.506012,-3.359968,604.7,4,5,268.6,4.57
35.0,1,-0.055,0.053,-0.033,-0.04,0.045,-0.038,-1.566,0.047,-1.028,34.56,94.6,40.506012,-3.359968,604.7,4,5,268.6,4.57
35.1,1,-0.034,0.068,-0.016,-0.044,0.06,-0.027,-1.564,0.041,-1.027,34.56,94.6,40.506012,-3.359968,604.7,4,5,268.6,4.57
35.2,1,-0.009,0.058,-0.01,-0.026,0.058,-0.016,-1.562,0.039,-1.025,34.56,94.6,40.506012,-3.359968,604.7,4,5,268.6,4.57
35.31,1,-0.009,0.028,-0.031,-0.009,0.047,-0.022,-1.559,0.034,-1.024,34.56,94.6,40.506012,-3.359968,604.7,4,5,268.6,4.57
35.41,1,-0.036,-0.0,-0.037,-0.031,0.028,-0.034,-1.556,0.032,-1.023,34.56,94.6,40.506012,-3.359968,604.7,4,5,268.6,4.57
35.51,1,-0.006,0.024,0.001,-0.014,0.017,-0.016,-1.555,0.03,-1.022,34.56,94.6,40.506012,-3.359968,604.7,4,5,268.6,4.57
35.61,1,-0.009,0.05,-0.042,-0.016,0.033,-0.027,-1.551,0.027,-1.021,34.56,94.6,40.506012,-3.359968,604.7,4,5,268.6,4.57
35.71,1,0.003,0.058,0.006,-0.006,0.047,-0.014,-1.551,0.024,-1.019,35.56,93.0,40.506004,-3.36027,605.0,4,5,267.5,3.867
35.81,1,-0.035,0.016,-0.039,-0.012,0.036,-0.02,-1.548,0.021,-1.018,35.56,93.0,40.506004,-3.36027,605.0,4,5,267.5,3.867
35.91,1,-0.03,-0.009,0.004,-0.03,0.016,-0.018,-1.547,0.021,-1.016,35.56,93.0,40.506004,-3.36027,605.0,4,5,267.5,3.867
36.01,1,0.038,-0.039,-0.006,-0.001,-0.015,-0.003,-1.547,0.02,-1.014,35.56,93.0,40.506004,-3.36027,605.0,4,5,267.5,3.867
36.11,1,0.003,-0.021,-0.006,0.012,-0.025,-0.01,-1.545,0.021,-1.011,35.56,93.0,40.506004,-3.36027,605.0,4,5,267.5,3.867
36.21,1,-0.083,-0.021,-0.013,-0.026,-0.018,-0.004,-1.548,0.025,-1.009,35.56,93.0,40.506004,-3.36027,605.0,4,5,267.5,3.867
36.32,1,-0.108,-0.027,0.046,-0.074,-0.023,0.009,-1.554,0.026,-1.005,35.56,93.0,40.506004,-3.36027,605.0,4,5,267.5,3.867
36.41,1,-0.058,-0.058,0.071,-0.081,-0.035,0.042,-1.557,0.028,-1.0,35.56,93.0,40.506004,-3.36027,605.0,4,5,267.5,3.867
36.51,1,-0.014,-0.064,0.029,-0.045,-0.062,0.044,-1.558,0.031,-0.996,35.56,93.0,40.506004,-3.36027,605.0,4,5,267.5,3.867
36.61,1,0.044,-0.06,0.051,-0.001,-0.062,0.044,-1.561,0.037,-0.991,35.56,93.0,40.506004,-3.36027,605.0,4,5,267.5,3.867
36.71,1,0.027,-0.022,0.003,0.024,-0.046,0.031,-1.561,0.038,-0.988,36.55,91.3,40.505993,-3.360569,604.8,3,5,267.5,1.055
36.81,1,-0.04,-0.007,0.015,-0.0,-0.026,0.014,-1.563,0.035,-0.985,36.55,91.3,40.505993,-3.360569,604.8,3,5,267.5,1.055
36.91,1,-0.056,0.005,0.031,-0.039,0.001,0.022,-1.566,0.03,-0.983,36.55,91.3,40.505993,-3.360569,604.8,3,5,267.5,1.055
37.02,1,-0.045,0.028,0.004,-0.044,0.012,0.019,-1.566,0.027,-0.981,36.55,91.3,40.505993,-3.360569,604.8,3,5,267.5,1.055
37.11,1,-0.009,0.012,-0.002,-0.03,0.01,0.004,-1.564,0.025,-0.979,36.55,91.3,40.505993,-3.360569,604.8,3,5,267.5,1.055
37.21,1,-0.009,-0.0,-0.002,-0.013,0.011,0.004,-1.562,0.025,-0.977,36.55,91.3,40.505993,-3.360569,604.8,3,5,267.5,1.055
37.31,1,0.009,0.021,0.007,-0.008,0.008,-0.002,-1.562,0.024,-0.975,36.55,91.3,40.505993,-3.360569,604.8,3,5,267.5,1.055
37.41,1,-0.003,0.008,0.022,-0.001,0.012,0.014,-1.565,0.022,-0.973,36.55,91.3,40.505993,-3.360569,604.8,3,5,267.5,1.055
37.52,1,-0.015,0.006,0.009,-0.003,0.006,0.013,-1.564,0.02,-0.971,36.55,91.3,40.505993,-3.360569,604.8,3,5,267.5,1.055
37.61,1,0.017,0.02,0.024,-0.009,0.013,0.015,-1.565,0.02,-0.969,36.55,91.3,40.505993,-3.360569,604.8,3,5,267.5,1.055
37.72,1,0.016,0.011,0.003,0.021,0.019,0.017,-1.566,0.017,-0.968,37.56,90.8,40.505978,-3.360862,605.7,3,5,265.4,1.055
37.81,1,-0.018,-0.017,0.009,-0.002,-0.005,0.002,-1.567,0.017,-0.966,37.56,90.8,40.505978,-3.360862,605.7,3,5,265.4,1.055
37.91,1,0.0,0.019,0.026,-0.004,0.007,0.022,-1.57,0.014,-0.964,37.56,90.8,40.505978,-3.360862,605.7,3,5,265.4,1.055
38.01,1,-0.048,0.052,-0.01,-0.014,0.033,0.007,-1.571,0.009,-0.962,37.56,90.8,40.505978,-3.360862,605.7,3,5,265.4,1.055
38.11,1,-0.058,0.003,0.027,-0.047,0.022,0.007,-1.573,0.01,-0.959,37.56,90.8,40.505978,-3.360862,605.7,3,5,265.4,1.055
38.21,1,0.038,-0.016,0.044,-0.019,0.001,0.032,-1.574,0.012,-0.956,37.56,90.8,40.505978,-3.360862,605.7,3,5,265.4,1.055
38.31,1,-0.006,-0.042,-0.008,0.007,-0.022,0.017,-1.572,0.016,-0.953,37.56,90.8,40.505978,-3.360862,605.7,3,5,265.4,1.055
38.42,1,0.024,-0.025,0.044,0.005,-0.031,0.018,-1.573,0.021,-0.949,37.56,90.8,40.505978,-3.360862,605.7,3,5,265.4,1.055
38.52,1,0.015,0.011,0.051,0.023,-0.009,0.04,-1.579,0.022,-0.947,37.56,90.8,40.505978,-3.360862,605.7,3,5,265.4,1.055
38.62,1,-0.039,-0.019,0.039,-0.011,-0.009,0.041,-1.584,0.021,-0.944,37.56,90.8,40.505978,-3.360862,605.7,3,5,265.4,1.055
38.72,1,-0.036,0.005,0.06,-0.027,-0.007,0.047,-1.59,0.021,-0.941,38.59,90.6,40.505955,-3.361164,606.6,3,5,264.4,3.164
38.82,1,-0.02,-0.006,0.076,-0.026,0.0,0.064,-1.598,0.024,-0.937,38.59,90.6,40.505955,-3.361164,606.6,3,5,264.4,3.164
38.92,1,0.001,-0.047,0.077,-0.016,-0.019,0.071,-1.604,0.031,-0.931,38.59,90.6,40.505955,-3.361164,606.6,3,5,264.4,3.164
39.02,1,0.022,-0.053,0.043,0.002,-0.04,0.062,-1.611,0.043,-0.925,38.59,90.6,40.505955,-3.361164,606.6,3,5,264.4,3.164
39.12,1,0.007,-0.049,0.043,0.017,-0.054,0.047,-1.614,0.049,-0.92,38.59,90.6,40.505955,-3.361164,606.6,3,5,264.4,3.164
39.22,1,-0.048,-0.043,0.01,-0.02,-0.044,0.037,-1.617,0.05,-0.915,38.59,90.6,40.505955,-3.361164,606.6,3,5,264.4,3.164
39.32,1,-0.043,0.048,0.017,-0.025,-0.013,0.019,-1.62,0.051,-0.911,38.59,90.6,40.505955,-3.361164,606.6,3,5,264.4,3.164
39.42,1,-0.023,-0.027,0.057,-0.036,-0.001,0.038,-1.621,0.052,-0.906,38.59,90.6,40.505955,-3.361164,606.6,3,5,264.4,3.164
39.52,1,-0.034,-0.025,0.015,-0.03,-0.014,0.033,-1.621,0.051,-0.902,38.59,90.6,40.505955,-3.361164,606.6,3,5,264.4,3.164
39.62,1,-0.052,-0.037,0.006,-0.041,-0.028,0.012,-1.622,0.049,-0.899,38.59,90.6,40.505955,-3.361164,606.6,3,5,264.4,3.164
39.72,1,0.013,-0.005,0.06,-0.023,-0.018,0.032,-1.623,0.046,-0.895,39.56,91.9,40.505928,-3.36146,606.9,3,5,262.3,3.164
39.82,1,0.033,0.033,-0.003,0.011,0.006,0.024,-1.621,0.044,-0.892,39.56,91.9,40.505928,-3.36146,606.9,3,5,262.3,3.164
39.92,1,-0.002,-0.008,0.021,0.01,0.005,0.018,-1.623,0.046,-0.887,39.56,91.9,40.505928,-3.36146,606.9,3,5,262.3,3.164
40.02,1,-0.001,-0.02,0.019,-0.001,-0.002,0.021,-1.626,0.048,-0.883,39.56,91.9,40.505928,-3.36146,606.9,3,5,262.3,3.164
40.13,1,-0.027,-0.008,0.019,-0.011,-0.011,0.019,-1.63,0.054,-0.879,39.56,91.9,40.505928,-3.36146,606.9,3,5,262.3,3.164
40.22,1,-0.028,-0.024,0.001,-0.019,-0.02,0.008,-1.63,0.05,-0.876,39.56,91.9,40.505928,-3.36146,606.9,3,5,262.3,3.164
40.32,1,-0.027,0.007,0.046,-0.024,-0.008,0.023,-1.634,0.045,-0.872,39.56,91.9,40.505928,-3.36146,606.9,3,5,262.3,3.164
40.42,1,-0.014,-0.003,0.053,-0.024,-0.005,0.041,-1.64,0.043,-0.867,39.56,91.9,40.505928,-3.36146,606.9,3,5,262.3,3.164
40.52,1,0.029,-0.009,0.051,0.001,-0.005,0.051,-1.646,0.044,-0.863,39.56,91.9,40.505928,-3.36146,606.9,3,5,262.3,3.164
40.62,1,0.013,-0.004,0.042,0.016,-0.003,0.046,-1.65,0.044,-0.858,39.56,91.9,40.505928,-3.36146,606.9,3,5,262.3,3.164
40.72,1,-0.017,-0.011,0.061,0.002,-0.005,0.048,-1.656,0.045,-0.854,40.56,93.3,40.505894,-3.361759,607.5,3,5,259.8,4.57
40.83,1,-0.02,-0.022,0.055,-0.019,-0.016,0.055,-1.662,0.047,-0.849,40.56,93.3,40.505894,-3.361759,607.5,3,5,259.8,4.57
40.93,1,0.024,-0.008,0.033,0.004,-0.016,0.05,-1.665,0.048,-0.845,40.56,93.3,40.505894,-3.361759,607.5,3,5,259.8,4.57
41.02,1,-0.01,-0.005,0.0,0.008,-0.008,0.025,-1.666,0.047,-0.841,40.56,93.3,40.505894,-3.361759,607.5,3,5,259.8,4.57
41.12,1,-0.066,0.011,0.004,-0.032,0.003,0.01,-1.668,0.045,-0.837,40.56,93.3,40.505894,-3.361759,607.5,3,5,259.8,4.57
41.22,1,-0.022,0.0,0.026,-0.039,0.002,0.014,-1.671,0.043,-0.834,40.56,93.3,40.505894,-3.361759,607.5,3,5,259.8,4.57
41.32,1,0.026,0.022,0.008,-0.007,0.005,0.02,-1.67,0.039,-0.831,40.56,93.3,40.505894,-3.361759,607.5,3,5,259.8,4.57
41.42,1,-0.023,0.038,-0.051,0.002,0.022,-0.014,-1.667,0.035,-0.829,40.56,93.3,40.505894,-3.361759,607.5,3,5,259.8,4.57
41.52,1,-0.077,0.016,-0.017,-0.035,0.03,-0.026,-1.665,0.033,-0.826,40.56,93.3,40.505894,-3.361759,607.5,3,5,259.8,4.57
41.62,1,0.04,0.03,0.043,-0.014,0.027,0.006,-1.667,0.028,-0.824,40.56,93.3,40.505894,-3.361759,607.5,3,5,259.8,4.57
41.72,1,0.024,0.06,-0.047,0.006,0.036,-0.008,-1.663,0.023,-0.824,41.58,92.0,40.505867,-3.36206,608.9,3,5,262.3,2.461
41.83,1,-0.042,0.092,-0.05,-0.008,0.067,-0.032,-1.661,0.02,-0.825,41.58,92.0,40.505867,-3.36206,608.9,3,5,262.3,2.461
41.93,1,-0.052,0.113,0.004,-0.032,0.093,-0.027,-1.66,0.009,-0.826,41.58,92.0,40.505867,-3.36206,608.9,3,5,262.3,2.461
42.03,1,0.007,0.09,0.01,-0.025,0.095,-0.0,-1.661,-0.001,-0.827,41.58,92.0,40.505867,-3.36206,608.9,3,5,262.3,2.461
42.13,1,0.036,0.079,-0.011,0.007,0.089,-0.003,-1.658,-0.007,-0.828,41.58,92.0,40.505867,-3.36206,608.9,3,5,262.3,2.461
42.22,1,-0.012,0.084,-0.029,0.013,0.084,-0.016,-1.655,-0.013,-0.828,41.58,92.0,40.505867,-3.36206,608.9,3,5,262.3,2.461
42.33,1,-0.054,0.065,-0.012,-0.025,0.078,-0.019,-1.654,-0.017,-0.829,41.58,92.0,40.505867,-3.36206,608.9,3,5,262.3,2.461
42.43,1,-0.013,0.038,-0.02,-0.023,0.059,-0.013,-1.654,-0.02,-0.829,41.58,92.0,40.505867,-3.36206,608.9,3,5,262.3,2.461
42.53,1,0.053,0.056,-0.023,0.02,0.057,-0.018,-1.651,-0.022,-0.829,41.58,92.0,40.505867,-3.36206,608.9,3,5,262.3,2.461
42.63,1,0.01,0.049,-0.04,0.003,0.051,-0.04,-1.647,-0.024,-0.83,41.58,92.0,40.505867,-3.36206,608.9,3,5,262.3,2.461
42.73,1,0.022,0.01,-0.044,0.01,0.029,-0.031,-1.646,-0.025,-0.83,42.56,101.1,40.505787,-3.362388,609.9,3,5,256.6,5.625
42.83,1,0.035,0.074,-0.049,0.047,0.055,-0.043,-1.646,-0.025,-0.83,42.56,101.1,40.505787,-3.362388,609.9,3,5,256.6,5.625
42.93,1,-0.021,0.055,-0.027,0.003,0.055,-0.04,-1.647,-0.025,-0.83,42.56,101.1,40.505787,-3.362388,609.9,3,5,256.6,5.625
43.04,1,-0.018,0.011,0.008,-0.011,0.033,-0.018,-1.648,-0.022,-0.829,42.56,101.1,40.505787,-3.362388,609.9,3,5,256.6,5.625
43.13,1,0.019,-0.001,-0.025,-0.007,0.011,-0.014,-1.646,-0.02,-0.828,42.56,101.1,40.505787,-3.362388,609.9,3,5,256.6,5.625
43.23,1,0.021,-0.007,-0.046,0.019,0.003,-0.03,-1.645,-0.022,-0.827,42.56,101.1,40.505787,-3.362388,609.9,3,5,256.6,5.625
43.33,1,-0.029,-0.011,-0.008,-0.001,-0.009,-0.027,-1.644,-0.027,-0.826,42.56,101.1,40.505787,-3.362388,609.9,3,5,256.6,5.625
43.43,1,-0.035,-0.011,0.018,-0.025,-0.007,-0.003,-1.645,-0.027,-0.826,42.56,101.1,40.505787,-3.362388,609.9,3,5,256.6,5.625
43.53,1,-0.008,-0.012,0.013,-0.018,-0.01,0.012,-1.646,-0.024,-0.824,42.56,101.1,40.505787,-3.362388,609.9,3,5,256.6,5.625
43.73,1,-0.012,-0.057,0.031,-0.012,-0.043,0.024,-1.651,-0.013,-0.818,42.56,101.1,40.505787,-3.362388,609.9,3,5,256.6,5.625
43.83,1,-0.014,-0.056,0.009,-0.013,-0.053,0.021,-1.653,-0.005,-0.815,43.54,102.2,40.50573,-3.362714,610.6,3,5,256.3,5.977
43.93,1,-0.019,-0.039,-0.002,-0.016,-0.043,0.007,-1.653,0.0,-0.813,43.54,102.2,40.50573,-3.362714,610.6,3,5,256.3,5.977
44.03,1,-0.014,-0.044,0.019,-0.017,-0.045,0.008,-1.653,0.004,-0.81,43.54,102.2,40.50573,-3.362714,610.6,3,5,256.3,5.977
44.14,1,0.002,-0.027,0.021,-0.011,-0.035,0.017,-1.652,0.008,-0.808,43.54,102.2,40.50573,-3.362714,610.6,3,5,256.3,5.977
44.23,1,-0.013,-0.058,-0.008,-0.006,-0.038,0.01,-1.652,0.01,-0.805,43.54,102.2,40.50573,-3.362714,610.6,3,5,256.3,5.977
44.34,1,-0.031,-0.007,0.006,-0.011,-0.035,-0.001,-1.652,0.013,-0.803,43.54,102.2,40.50573,-3.362714,610.6,3,5,256.3,5.977
44.44,1,-0.013,0.018,0.039,-0.022,-0.008,0.019,-1.652,0.013,-0.801,43.54,102.2,40.50573,-3.362714,610.6,3,5,256.3,5.977
44.54,1,-0.042,0.017,-0.017,-0.028,0.008,0.013,-1.649,0.012,-0.799,43.54,102.2,40.50573,-3.362714,610.6,3,5,256.3,5.977
44.63,1,-0.031,-0.0,0.0,-0.032,0.004,-0.004,-1.648,0.013,-0.797,43.54,102.2,40.50573,-3.362714,610.6,3,5,256.3,5.977
44.73,1,-0.018,-0.025,0.003,-0.026,-0.003,0.003,-1.65,0.018,-0.795,43.54,102.2,40.50573,-3.362714,610.6,3,5,256.3,5.977
44.84,1,-0.026,-0.064,-0.015,-0.026,-0.031,-0.01,-1.651,0.023,-0.791,44.56,105.5,40.505657,-3.363051,612.6,3,5,255.2,1.406
44.93,1,-0.001,-0.045,0.025,-0.019,-0.048,0.007,-1.653,0.026,-0.787,44.56,105.5,40.505657,-3.363051,612.6,3,5,255.2,1.406
45.03,1,0.014,-0.046,-0.024,0.002,-0.046,-0.001,-1.651,0.027,-0.783,44.56,105.5,40.505657,-3.363051,612.6,3,5,255.2,1.406
45.13,1,-0.008,-0.03,-0.025,0.002,-0.044,-0.016,-1.647,0.03,-0.78,44.56,105.5,40.505657,-3.363051,612.6,3,5,255.2,1.406
45.23,1,-0.031,-0.016,-0.013,-0.012,-0.026,-0.019,-1.646,0.033,-0.777,44.56,105.5,40.505657,-3.363051,612.6,3,5,255.2,1.406
45.33,1,0.004,-0.03,-0.013,-0.012,-0.023,-0.013,-1.644,0.036,-0.773,44.56,105.5,40.505657,-3.363051,612.6,3,5,255.2,1.406
45.44,1,-0.05,-0.024,-0.029,-0.027,-0.022,-0.017,-1.644,0.039,-0.77,44.56,105.5,40.505657,-3.363051,612.6,3,5,255.2,1.406
45.54,1,0.032,-0.019,-0.025,-0.004,-0.028,-0.024,-1.642,0.041,-0.766,44.56,105.5,40.505657,-3.363051,612.6,3,5,255.2,1.406
45.64,1,0.009,0.025,-0.033,0.008,-0.006,-0.032,-1.639,0.041,-0.764,44.56,105.5,40.505657,-3.363051,612.6,3,5,255.2,1.406
45.74,1,0.005,0.026,-0.015,0.005,0.015,-0.023,-1.637,0.039,-0.763,44.56,105.5,40.505657,-3.363051,612.6,3,5,255.2,1.406
45.84,1,-0.012,0.042,-0.024,0.003,0.028,-0.022,-1.636,0.034,-0.761,45.58,107.5,40.505577,-3.363385,616.7,3,5,252.4,3.867
45.94,1,-0.039,0.029,-0.025,-0.018,0.029,-0.028,-1.633,0.029,-0.759,45.58,107.5,40.505577,-3.363385,616.7,3,5,252.4,3.867
46.04,1,-0.048,0.022,-0.008,-0.036,0.03,-0.017,-1.631,0.028,-0.758,45.58,107.5,40.505577,-3.363385,616.7,3,5,252.4,3.867
46.14,1,-0.022,0.019,0.004,-0.037,0.024,-0.004,-1.632,0.028,-0.756,45.58,107.5,40.505577,-3.363385,616.7,3,5,252.4,3.867
46.24,1,0.017,0.017,0.02,-0.012,0.02,0.004,-1.633,0.028,-0.754,45.58,107.5,40.505577,-3.363385,616.7,3,5,252.4,3.867
46.34,1,0.011,0.032,-0.004,0.006,0.022,0.011,-1.632,0.024,-0.753,45.58,107.5,40.505577,-3.363385,616.7,3,5,252.4,3.867
46.44,1,-0.024,0.069,0.003,-0.001,0.042,0.003,-1.633,0.018,-0.753,45.58,107.5,40.505577,-3.363385,616.7,3,5,252.4,3.867
46.54,1,-0.025,0.081,0.035,-0.022,0.066,0.011,-1.635,0.01,-0.754,45.58,107.5,40.505577,-3.363385,616.7,3,5,252.4,3.867
46.64,1,0.005,0.066,0.033,-0.015,0.069,0.032,-1.639,0.005,-0.754,45.58,107.5,40.505577,-3.363385,616.7,3,5,252.4,3.867
46.74,1,0.03,0.047,0.034,0.01,0.061,0.028,-1.641,0.003,-0.754,45.58,107.5,40.505577,-3.363385,616.7,3,5,252.4,3.867
46.86,1,-0.026,0.054,0.053,0.01,0.055,0.041,-1.643,-0.001,-0.754,46.56,109.3,40.505493,-3.363715,615.3,3,5,251.0,4.219
46.95,1,-0.035,0.019,0.02,-0.022,0.041,0.036,-1.644,-0.002,-0.753,46.56,109.3,40.505493,-3.363715,615.3,3,5,251.0,4.219
47.04,1,-0.009,0.003,0.032,-0.022,0.02,0.031,-1.646,-0.002,-0.752,46.56,109.3,40.505493,-3.363715,615.3,3,5,251.0,4.219
47.14,1,0.001,-0.011,-0.031,-0.009,0.004,0.008,-1.644,-0.001,-0.75,46.56,109.3,40.505493,-3.363715,615.3,3,5,251.0,4.219
47.24,1,-0.027,-0.004,0.028,-0.012,-0.006,0.002,-1.644,0.001,-0.749,46.56,109.3,40.505493,-3.363715,615.3,3,5,251.0,4.219
47.35,1,-0.051,0.001,-0.002,-0.039,-0.0,0.005,-1.645,0.003,-0.747,46.56,109.3,40.505493,-3.363715,615.3,3,5,251.0,4.219
47.45,1,-0.021,-0.026,0.015,-0.033,-0.009,0.015,-1.646,0.007,-0.744,46.56,109.3,40.505493,-3.363715,615.3,3,5,251.0,4.219
47.54,1,-0.008,-0.043,-0.025,-0.015,-0.027,-0.005,-1.644,0.012,-0.741,46.56,109.3,40.505493,-3.363715,615.3,3,5,251.0,4.219
47.64,1,0.004,-0.034,-0.001,-0.008,-0.032,-0.009,-1.643,0.016,-0.738,46.56,109.3,40.505493,-3.363715,615.3,3,5,251.0,4.219
47.74,1,0.02,-0.037,0.011,0.011,-0.034,0.001,-1.645,0.017,-0.735,46.56,109.3,40.505493,-3.363715,615.3,3,5,251.0,4.219
47.84,1,0.007,-0.052,-0.027,0.011,-0.043,-0.009,-1.644,0.023,-0.732,47.56,111.9,40.505398,-3.364057,612.0,3,5,250.3,2.109
47.94,1,-0.006,-0.05,0.018,0.002,-0.045,-0.003,-1.644,0.027,-0.73,47.56,111.9,40.505398,-3.364057,612.0,3,5,250.3,2.109
48.05,1,-0.024,-0.012,-0.047,-0.014,-0.037,-0.013,-1.64,0.025,-0.727,47.56,111.9,40.505398,-3.364057,612.0,3,5,250.3,2.109
48.14,1,0.011,-0.022,-0.072,-0.007,-0.026,-0.045,-1.632,0.025,-0.725,47.56,111.9,40.505398,-3.364057,612.0,3,5,250.3,2.109
48.24,1,-0.022,-0.006,-0.127,-0.004,-0.012,-0.084,-1.621,0.025,-0.723,47.56,111.9,40.505398,-3.364057,612.0,3,5,250.3,2.109
48.34,1,-0.043,-0.014,-0.081,-0.027,-0.013,-0.094,-1.612,0.026,-0.72,47.56,111.9,40.505398,-3.364057,612.0,3,5,250.3,2.109
48.44,1,-0.006,-0.044,-0.06,-0.022,-0.026,-0.077,-1.606,0.029,-0.717,47.56,111.9,40.505398,-3.364057,612.0,3,5,250.3,2.109
48.54,1,0.035,-0.028,-0.082,0.004,-0.03,-0.076,-1.598,0.029,-0.715,47.56,111.9,40.505398,-3.364057,612.0,3,5,250.3,2.109
48.66,1,0.01,-0.021,-0.063,0.019,-0.03,-0.072,-1.593,0.029,-0.713,47.56,111.9,40.505398,-3.364057,612.0,3,5,250.3,2.109
48.75,1,-0.023,0.002,-0.066,-0.002,-0.015,-0.067,-1.586,0.03,-0.711,47.56,111.9,40.505398,-3.364057,612.0,3,5,250.3,2.109
48.85,1,-0.05,-0.01,-0.057,-0.028,-0.008,-0.062,-1.58,0.03,-0.708,48.56,113.8,40.505295,-3.364401,613.6,3,5,248.2,2.812
48.95,1,-0.036,-0.029,-0.042,-0.038,-0.018,-0.054,-1.576,0.032,-0.705,48.56,113.8,40.505295,-3.364401,613.6,3,5,248.2,2.812
49.05,1,0.004,-0.013,-0.041,-0.021,-0.02,-0.041,-1.575,0.032,-0.703,48.56,113.8,40.505295,-3.364401,613.6,3,5,248.2,2.812
49.15,1,0.002,-0.018,-0.106,-0.006,-0.015,-0.072,-1.567,0.032,-0.701,48.56,113.8,40.505295,-3.364401,613.6,3,5,248.2,2.812
49.25,1,0.016,-0.011,-0.063,0.005,-0.015,-0.075,-1.559,0.03,-0.699,48.56,113.8,40.505295,-3.364401,613.6,3,5,248.2,2.812
49.36,1,0.035,0.003,-0.017,0.016,-0.011,-0.049,-1.555,0.028,-0.697,48.56,113.8,40.505295,-3.364401,613.6,3,5,248.2,2.812
49.45,1,-0.043,0.007,-0.024,0.001,0.005,-0.035,-1.555,0.028,-0.695,48.56,113.8,40.505295,-3.364401,613.6,3,5,248.2,2.812
49.55,1,-0.079,0.011,-0.023,-0.044,0.005,-0.027,-1.556,0.028,-0.692,48.56,113.8,40.505295,-3.364401,613.6,3,5,248.2,2.812
49.65,1,-0.004,0.001,0.036,-0.03,0.006,0.001,-1.558,0.027,-0.69,48.56,113.8,40.505295,-3.364401,613.6,3,5,248.2,2.812
49.75,1,0.025,-0.015,0.002,0.001,-0.001,0.016,-1.557,0.026,-0.688,48.56,113.8,40.505295,-3.364401,613.6,3,5,248.2,2.812
49.85,1,0.025,-0.007,0.065,0.012,-0.006,0.029,-1.556,0.026,-0.686,49.57,111.9,40.505188,-3.36474,613.7,3,5,246.1,4.219
49.95,1,-0.012,-0.002,0.046,0.011,-0.004,0.043,-1.557,0.027,-0.684,49.57,111.9,40.505188,-3.36474,613.7,3,5,246.1,4.219
50.05,1,-0.049,-0.011,0.043,-0.022,-0.006,0.045,-1.558,0.028,-0.681,49.57,111.9,40.505188,-3.36474,613.7,3,5,246.1,4.219
50.15,1,-0.045,0.01,0.039,-0.044,-0.003,0.042,-1.562,0.029,-0.679,49.57,111.9,40.505188,-3.36474,613.7,3,5,246.1,4.219
50.25,1,-0.014,0.016,0.062,-0.033,0.007,0.049,-1.566,0.032,-0.677,49.57,111.9,40.505188,-3.36474,613.7,3,5,246.1,4.219
50.35,1,0.033,-0.025,0.021,-0.002,-0.006,0.043,-1.568,0.039,-0.674,49.57,111.9,40.505188,-3.36474,613.7,3,5,246.1,4.219
50.45,1,0.002,-0.008,-0.004,0.014,-0.009,0.015,-1.569,0.045,-0.67,49.57,111.9,40.505188,-3.36474,613.7,3,5,246.1,4.219
50.56,1,0.018,-0.024,0.03,0.009,-0.016,0.015,-1.571,0.049,-0.667,49.57,111.9,40.505188,-3.36474,613.7,3,5,246.1,4.219
50.65,1,-0.012,-0.019,-0.002,0.006,-0.021,0.016,-1.572,0.051,-0.665,49.57,111.9,40.505188,-3.36474,613.7,3,5,246.1,4.219
50.75,1,-0.046,-0.005,0.006,-0.028,-0.016,0.003,-1.571,0.051,-0.662,49.57,111.9,40.505188,-3.36474,613.7,3,5,246.1,4.219
50.85,1,-0.036,0.01,-0.019,-0.034,0.003,-0.002,-1.57,0.05,-0.659,50.55,112.0,40.505062,-3.365072,613.7,3,5,244.3,3.867
50.95,1,-0.027,0.001,0.014,-0.03,0.003,-0.003,-1.57,0.05,-0.657,50.55,112.0,40.505062,-3.365072,613.7,3,5,244.3,3.867
51.06,1,-0.013,-0.017,-0.01,-0.025,-0.01,-0.001,-1.568,0.054,-0.653,50.55,112.0,40.505062,-3.365072,613.7,3,5,244.3,3.867
51.16,1,-0.006,-0.031,-0.023,-0.012,-0.018,-0.005,-1.563,0.057,-0.65,50.55,112.0,40.505062,-3.365072,613.7,3,5,244.3,3.867
51.26,1,0.003,-0.017,-0.048,-0.001,-0.024,-0.031,-1.56,0.059,-0.648,50.55,112.0,40.505062,-3.365072,613.7,3,5,244.3,3.867
51.35,1,-0.04,0.016,-0.021,-0.017,-0.004,-0.034,-1.558,0.059,-0.646,50.55,112.0,40.505062,-3.365072,613.7,3,5,244.3,3.867
51.45,1,-0.022,0.028,-0.024,-0.024,0.015,-0.024,-1.558,0.054,-0.645,50.55,112.0,40.505062,-3.365072,613.7,3,5,244.3,3.867
51.55,1,0.011,0.012,-0.003,-0.015,0.017,-0.016,-1.557,0.052,-0.643,50.55,112.0,40.505062,-3.365072,613.7,3,5,244.3,3.867
51.65,1,0.058,0.012,-0.049,0.024,0.013,-0.022,-1.553,0.053,-0.641,50.55,112.0,40.505062,-3.365072,613.7,3,5,244.3,3.867
51.76,1,-0.036,0.015,-0.041,0.011,0.014,-0.039,-1.548,0.054,-0.639,50.55,112.0,40.505062,-3.365072,613.7,3,5,244.3,3.867
51.85,1,-0.04,0.035,-0.032,-0.027,0.022,-0.039,-1.548,0.052,-0.638,51.57,111.9,40.504944,-3.365396,613.7,3,5,242.2,3.867
51.96,1,-0.024,0.041,-0.01,-0.027,0.031,-0.023,-1.545,0.049,-0.636,51.57,111.9,40.504944,-3.365396,613.7,3,5,242.2,3.867
52.06,1,0.017,0.056,-0.033,-0.006,0.047,-0.023,-1.542,0.047,-0.635,51.57,111.9,40.504944,-3.365396,613.7,3,5,242.2,3.867
52.16,1,0.026,0.037,-0.015,0.008,0.044,-0.023,-1.538,0.047,-0.634,51.57,111.9,40.504944,-3.365396,613.7,3,5,242.2,3.867
52.26,1,0.039,0.014,-0.022,0.029,0.03,-0.018,-1.536,0.049,-0.632,51.57,111.9,40.504944,-3.365396,613.7,3,5,242.2,3.867
52.36,1,-0.013,0.02,-0.049,0.016,0.02,-0.036,-1.531,0.048,-0.631,51.57,111.9,40.504944,-3.365396,613.7,3,5,242.2,3.867
52.46,1,-0.059,0.021,-0.007,-0.025,0.023,-0.023,-1.529,0.05,-0.629,51.57,111.9,40.504944,-3.365396,613.7,3,5,242.2,3.867
52.56,1,-0.03,0.021,0.006,-0.036,0.02,-0.008,-1.529,0.053,-0.627,51.57,111.9,40.504944,-3.365396,613.7,3,5,242.2,3.867
52.66,1,0.011,-0.001,-0.009,-0.012,0.01,-0.007,-1.527,0.054,-0.626,51.57,111.9,40.504944,-3.365396,613.7,3,5,242.2,3.867
52.76,1,-0.014,0.039,-0.043,-0.004,0.021,-0.023,-1.524,0.051,-0.625,51.57,111.9,40.504944,-3.365396,613.7,3,5,242.2,3.867
52.86,1,-0.048,0.07,0.005,-0.024,0.045,-0.016,-1.524,0.047,-0.625,52.56,110.5,40.50481,-3.365716,613.1,3,5,240.5,3.867
52.97,1,0.009,0.052,0.013,-0.023,0.055,0.003,-1.524,0.044,-0.625,52.56,110.5,40.50481,-3.365716,613.1,3,5,240.5,3.867
53.06,1,0.02,0.045,-0.003,0.004,0.052,0.0,-1.522,0.043,-0.624,52.56,110.5,40.50481,-3.365716,613.1,3,5,240.5,3.867
53.16,1,0.004,0.019,0.006,0.007,0.034,0.003,-1.523,0.045,-0.623,52.56,110.5,40.50481,-3.365716,613.1,3,5,240.5,3.867
53.26,1,0.017,-0.007,0.01,0.012,0.012,0.01,-1.525,0.047,-0.622,52.56,110.5,40.50481,-3.365716,613.1,3,5,240.5,3.867
53.36,1,-0.021,0.046,-0.009,-0.004,0.024,-0.001,-1.525,0.045,-0.622,52.56,110.5,40.50481,-3.365716,613.1,3,5,240.5,3.867
53.46,1,-0.055,0.066,0.033,-0.029,0.044,0.009,-1.527,0.045,-0.623,52.56,110.5,40.50481,-3.365716,613.1,3,5,240.5,3.867
53.67,1,0.019,0.041,0.02,-0.013,0.045,0.033,-1.529,0.037,-0.624,52.56,110.5,40.50481,-3.365716,613.1,3,5,240.5,3.867
53.76,1,0.026,0.031,0.033,0.015,0.037,0.029,-1.529,0.035,-0.624,52.56,110.5,40.50481,-3.365716,613.1,3,5,240.5,3.867
53.86,1,-0.022,0.037,0.03,-0.004,0.035,0.023,-1.53,0.034,-0.625,52.56,110.5,40.50481,-3.365716,613.1,3,5,240.5,3.867
53.96,1,-0.032,0.037,0.045,-0.023,0.036,0.043,-1.535,0.031,-0.625,53.56,109.1,40.504673,-3.366024,615.6,3,5,239.1,3.164
54.06,1,-0.004,0.027,0.04,-0.014,0.033,0.042,-1.538,0.03,-0.625,53.56,109.1,40.504673,-3.366024,615.6,3,5,239.1,3.164
54.16,1,-0.003,0.015,0.027,-0.007,0.024,0.032,-1.539,0.031,-0.624,53.56,109.1,40.504673,-3.366024,615.6,3,5,239.1,3.164
54.26,1,0.013,-0.001,0.039,0.004,0.012,0.035,-1.543,0.035,-0.623,53.56,109.1,40.504673,-3.366024,615.6,3,5,239.1,3.164
54.36,1,-0.0,-0.007,0.013,0.002,0.002,0.025,-1.545,0.039,-0.622,53.56,109.1,40.504673,-3.366024,615.6,3,5,239.1,3.164
54.46,1,0.009,0.014,0.051,0.002,0.005,0.032,-1.548,0.043,-0.622,53.56,109.1,40.504673,-3.366024,615.6,3,5,239.1,3.164
54.57,1,0.016,-0.001,0.046,0.015,0.005,0.045,-1.55,0.043,-0.622,53.56,109.1,40.504673,-3.366024,615.6,3,5,239.1,3.164
54.66,1,-0.013,0.009,0.009,0.002,0.002,0.03,-1.552,0.041,-0.622,53.56,109.1,40.504673,-3.366024,615.6,3,5,239.1,3.164
54.77,1,-0.009,0.021,0.036,-0.002,0.011,0.029,-1.556,0.041,-0.622,53.56,109.1,40.504673,-3.366024,615.6,3,5,239.1,3.164
54.86,1,-0.003,0.041,0.058,-0.009,0.027,0.041,-1.561,0.041,-0.621,53.56,109.1,40.504673,-3.366024,615.6,3,5,239.1,3.164
54.96,1,0.047,-0.017,0.038,0.019,0.017,0.047,-1.565,0.042,-0.621,54.56,108.7,40.504528,-3.366329,615.0,3,5,238.7,1.758
55.06,1,-0.008,-0.021,-0.009,0.015,-0.006,0.015,-1.564,0.05,-0.621,54.56,108.7,40.504528,-3.366329,615.0,3,5,238.7,1.758
55.17,1,-0.037,0.036,0.048,-0.023,0.006,0.023,-1.565,0.056,-0.621,54.56,108.7,40.504528,-3.366329,615.0,3,5,238.7,1.758
55.27,1,0.039,0.029,0.018,0.007,0.016,0.035,-1.563,0.056,-0.621,54.56,108.7,40.504528,-3.366329,615.0,3,5,238.7,1.758
55.37,1,-0.017,0.025,0.009,0.004,0.025,0.016,-1.563,0.057,-0.621,54.56,108.7,40.504528,-3.366329,615.0,3,5,238.7,1.758
55.47,1,0.012,-0.007,0.003,0.001,0.013,0.008,-1.566,0.057,-0.621,54.56,108.7,40.504528,-3.366329,615.0,3,5,238.7,1.758
55.57,1,0.022,0.006,0.003,0.011,0.005,0.008,-1.568,0.058,-0.621,54.56,108.7,40.504528,-3.366329,615.0,3,5,238.7,1.758
55.67,1,-0.031,0.032,-0.006,-0.0,0.015,0.003,-1.567,0.056,-0.622,54.56,108.7,40.504528,-3.366329,615.0,3,5,238.7,1.758
55.77,1,-0.009,0.064,0.031,-0.011,0.04,0.005,-1.567,0.051,-0.622,54.56,108.7,40.504528,-3.366329,615.0,3,5,238.7,1.758
55.87,1,0.037,0.033,0.009,0.011,0.039,0.015,-1.568,0.052,-0.623,54.56,108.7,40.504528,-3.366329,615.0,3,5,238.7,1.758
55.98,1,-0.027,0.057,-0.025,-0.001,0.05,-0.002,-1.568,0.049,-0.625,55.61,109.9,40.504379,-3.366629,615.6,3,5,237.7,1.406
56.08,1,-0.03,0.054,-0.003,-0.018,0.051,-0.007,-1.566,0.044,-0.627,55.61,109.9,40.504379,-3.366629,615.6,3,5,237.7,1.406
56.17,1,0.027,0.038,0.014,-0.007,0.047,-0.003,-1.566,0.042,-0.63,55.61,109.9,40.504379,-3.366629,615.6,3,5,237.7,1.406
56.27,1,-0.034,0.082,-0.021,-0.012,0.067,0.001,-1.565,0.041,-0.633,55.61,109.9,40.504379,-3.366629,615.6,3,5,237.7,1.406
56.37,1,-0.028,0.081,-0.006,-0.016,0.073,-0.009,-1.564,0.041,-0.635,55.61,109.9,40.504379,-3.366629,615.6,3,5,237.7,1.406
56.47,1,0.026,0.027,0.0,-0.005,0.053,-0.006,-1.563,0.039,-0.637,55.61,109.9,40.504379,-3.366629,615.6,3,5,237.7,1.406
56.57,1,0.015,-0.002,-0.024,0.013,0.028,-0.011,-1.562,0.04,-0.639,55.61,109.9,40.504379,-3.366629,615.6,3,5,237.7,1.406
56.67,1,-0.052,0.013,-0.021,-0.015,0.012,-0.017,-1.563,0.041,-0.64,55.61,109.9,40.504379,-3.366629,615.6,3,5,237.7,1.406
56.78,1,-0.026,0.016,-0.017,-0.033,0.018,-0.021,-1.562,0.038,-0.642,55.61,109.9,40.504379,-3.366629,615.6,3,5,237.7,1.406
56.87,1,0.022,0.041,-0.027,-0.01,0.023,-0.017,-1.56,0.036,-0.644,55.61,109.9,40.504379,-3.366629,615.6,3,5,237.7,1.406
56.98,1,0.005,0.002,-0.018,0.011,0.013,-0.022,-1.555,0.036,-0.645,56.61,111.0,40.50423,-3.366937,613.5,3,5,237.7,1.055
57.07,1,-0.001,0.016,-0.024,-0.001,0.01,-0.026,-1.551,0.036,-0.646,56.61,111.0,40.50423,-3.366937,613.5,3,5,237.7,1.055
57.18,1,-0.058,-0.026,-0.022,-0.024,0.007,-0.02,-1.546,0.042,-0.652,56.61,111.0,40.50423,-3.366937,613.5,3,5,237.7,1.055
57.29,1,0.002,-0.008,-0.021,-0.018,-0.012,-0.02,-1.544,0.052,-0.655,56.61,111.0,40.50423,-3.366937,613.5,3,5,237.7,1.055
57.37,1,0.009,0.004,-0.027,0.005,-0.001,-0.027,-1.542,0.05,-0.65,56.61,111.0,40.50423,-3.366937,613.5,3,5,237.7,1.055
57.47,1,-0.016,0.008,-0.012,-0.009,0.005,-0.023,-1.542,0.049,-0.648,56.61,111.0,40.50423,-3.366937,613.5,3,5,237.7,1.055
57.57,1,-0.0,-0.017,-0.02,-0.006,-0.006,-0.016,-1.541,0.05,-0.648,56.61,111.0,40.50423,-3.366937,613.5,3,5,237.7,1.055
57.68,1,-0.016,-0.005,-0.03,-0.008,-0.009,-0.021,-1.539,0.051,-0.649,56.61,111.0,40.50423,-3.366937,613.5,3,5,237.7,1.055
57.77,1,-0.019,0.019,-0.021,-0.017,0.004,-0.027,-1.537,0.05,-0.65,56.61,111.0,40.50423,-3.366937,613.5,3,5,237.7,1.055
57.88,1,0.007,0.026,-0.02,-0.008,0.017,-0.018,-1.535,0.049,-0.651,56.61,111.0,40.50423,-3.366937,613.5,3,5,237.7,1.055
57.97,1,-0.008,0.029,-0.038,-0.002,0.021,-0.026,-1.531,0.046,-0.653,57.57,109.9,40.504086,-3.367246,610.0,3,5,237.7,0.0
58.07,1,-0.006,0.049,-0.024,-0.008,0.035,-0.032,-1.529,0.04,-0.654,57.57,109.9,40.504086,-3.367246,610.0,3,5,237.7,0.0
58.18,1,-0.009,0.02,-0.005,-0.01,0.033,-0.018,-1.528,0.039,-0.656,57.57,109.9,40.504086,-3.367246,610.0,3,5,237.7,0.0
58.27,1,-0.006,0.014,-0.026,-0.007,0.021,-0.017,-1.525,0.04,-0.657,57.57,109.9,40.504086,-3.367246,610.0,3,5,237.7,0.0
58.37,1,-0.005,0.01,-0.006,-0.01,0.019,-0.017,-1.524,0.04,-0.659,57.57,109.9,40.504086,-3.367246,610.0,3,5,237.7,0.0
58.49,1,0.026,-0.004,0.001,0.003,0.002,-0.009,-1.524,0.04,-0.66,57.57,109.9,40.504086,-3.367246,610.0,3,5,237.7,0.0
58.57,1,0.01,0.006,-0.043,0.014,0.005,-0.017,-1.521,0.04,-0.662,57.57,109.9,40.504086,-3.367246,610.0,3,5,237.7,0.0
58.68,1,-0.006,0.011,0.01,0.018,0.008,-0.011,-1.521,0.042,-0.663,57.57,109.9,40.504086,-3.367246,610.0,3,5,237.7,0.0
58.78,1,-0.025,0.004,-0.005,-0.009,0.006,-0.006,-1.521,0.042,-0.664,57.57,109.9,40.504086,-3.367246,610.0,3,5,237.7,0.0
58.88,1,-0.026,-0.0,-0.024,-0.019,0.007,-0.013,-1.522,0.041,-0.664,57.57,109.9,40.504086,-3.367246,610.0,3,5,237.7,0.0
58.98,1,-0.037,0.027,-0.014,-0.023,0.012,-0.012,-1.524,0.039,-0.665,58.6,109.0,40.503937,-3.367546,610.7,3,5,237.3,0.352
59.08,1,-0.012,0.004,0.007,-0.034,0.011,-0.009,-1.525,0.036,-0.666,58.6,109.0,40.503937,-3.367546,610.7,3,5,237.3,0.352
59.18,1,0.038,-0.006,-0.006,-0.002,0.001,-0.005,-1.523,0.035,-0.667,58.6,109.0,40.503937,-3.367546,610.7,3,5,237.3,0.352
59.28,1,-0.015,-0.01,-0.041,0.012,-0.002,-0.017,-1.521,0.036,-0.668,58.6,109.0,40.503937,-3.367546,610.7,3,5,237.3,0.352
59.38,1,0.024,-0.002,0.047,0.006,-0.007,-0.001,-1.523,0.037,-0.668,58.6,109.0,40.503937,-3.367546,610.7,3,5,237.3,0.352
59.48,1,0.058,-0.01,-0.012,0.031,-0.005,0.008,-1.523,0.039,-0.669,58.6,109.0,40.503937,-3.367546,610.7,3,5,237.3,0.352
59.58,1,0.005,0.009,-0.006,0.032,-0.004,0.002,-1.522,0.045,-0.67,58.6,109.0,40.503937,-3.367546,610.7,3,5,237.3,0.352
59.68,1,-0.045,0.007,-0.021,-0.009,0.007,-0.014,-1.521,0.046,-0.671,58.6,109.0,40.503937,-3.367546,610.7,3,5,237.3,0.352
59.78,1,-0.056,0.028,0.01,-0.046,0.017,-0.003,-1.522,0.047,-0.672,58.6,109.0,40.503937,-3.367546,610.7,3,5,237.3,0.352
59.88,1,0.017,0.009,-0.009,-0.017,0.011,-0.002,-1.521,0.05,-0.673,58.6,109.0,40.503937,-3.367546,610.7,3,5,237.3,0.352
59.98,1,0.008,0.003,-0.022,0.011,0.007,-0.014,-1.52,0.049,-0.673,59.57,107.2,40.503792,-3.367851,609.8,3,5,237.3,0.352
60.08,1,-0.028,0.02,0.02,-0.012,0.013,-0.004,-1.521,0.05,-0.674,59.57,107.2,40.503792,-3.367851,609.8,3,5,237.3,0.352
60.18,1,-0.017,0.025,-0.005,-0.022,0.02,0.007,-1.52,0.05,-0.675,59.57,107.2,40.503792,-3.367851,609.8,3,5,237.3,0.352
60.29,1,0.002,-0.007,-0.01,-0.006,0.012,-0.005,-1.516,0.051,-0.676,59.57,107.2,40.503792,-3.367851,609.8,3,5,237.3,0.352
60.39,1,-0.053,0.013,-0.018,-0.028,0.005,-0.016,-1.516,0.053,-0.677,59.57,107.2,40.503792,-3.367851,609.8,3,5,237.3,0.352
60.48,1,-0.059,0.001,-0.002,-0.045,0.003,-0.006,-1.519,0.052,-0.678,59.57,107.2,40.503792,-3.367851,609.8,3,5,237.3,0.352
60.58,1,-0.04,0.017,-0.005,-0.042,0.015,-0.001,-1.519,0.048,-0.679,59.57,107.2,40.503792,-3.367851,609.8,3,5,237.3,0.352
60.68,1,0.022,0.023,0.036,-0.037,0.016,0.005,-1.518,0.045,-0.681,59.57,107.2,40.503792,-3.367851,609.8,3,5,237.3,0.352
60.78,1,0.089,0.031,0.048,0.035,0.022,0.033,-1.514,0.045,-0.682,59.57,107.2,40.503792,-3.367851,609.8,3,5,237.3,0.352
60.88,1,0.121,0.049,0.003,0.099,0.032,0.031,-1.51,0.045,-0.684,59.57,107.2,40.503792,-3.367851,609.8,3,5,237.3,0.352
60.98,1,-0.04,0.07,0.027,0.045,0.053,0.016,-1.509,0.044,-0.686,60.55,106.1,40.503647,-3.368138,609.4,3,5,236.6,0.703
61.08,1,-0.069,0.059,0.045,-0.028,0.063,0.03,-1.513,0.039,-0.687,60.55,106.1,40.503647,-3.368138,609.4,3,5,236.6,0.703
61.18,1,-0.093,0.019,0.035,-0.064,0.046,0.041,-1.52,0.037,-0.688,60.55,106.1,40.503647,-3.368138,609.4,3,5,236.6,0.703
61.28,1,-0.033,0.004,0.041,-0.055,0.022,0.036,-1.523,0.035,-0.689,60.55,106.1,40.503647,-3.368138,609.4,3,5,236.6,0.703
61.39,1,0.014,0.026,0.041,-0.021,0.016,0.035,-1.528,0.034,-0.69,60.55,106.1,40.503647,-3.368138,609.4,3,5,236.6,0.703
61.48,1,-0.007,0.021,0.057,-0.003,0.024,0.049,-1.533,0.031,-0.692,60.55,106.1,40.503647,-3.368138,609.4,3,5,236.6,0.703
61.58,1,-0.054,0.008,0.047,-0.025,0.015,0.049,-1.536,0.027,-0.693,60.55,106.1,40.503647,-3.368138,609.4,3,5,236.6,0.703
61.68,1,-0.055,-0.011,0.051,-0.048,0.001,0.051,-1.54,0.025,-0.694,60.55,106.1,40.503647,-3.368138,609.4,3,5,236.6,0.703
61.78,1,-0.017,0.034,0.045,-0.038,0.011,0.047,-1.545,0.024,-0.695,60.55,106.1,40.503647,-3.368138,609.4,3,5,236.6,0.703
61.88,1,0.008,0.04,0.04,-0.011,0.026,0.046,-1.549,0.021,-0.697,60.55,106.1,40.503647,-3.368138,609.4,3,5,236.6,0.703
61.99,1,-0.0,0.02,0.033,-0.003,0.026,0.037,-1.552,0.018,-0.698,61.54,106.1,40.503502,-3.368428,609.1,4,5,236.6,0.703
62.09,1,-0.016,0.018,0.044,-0.009,0.026,0.039,-1.557,0.019,-0.7,61.54,106.1,40.503502,-3.368428,609.1,4,5,236.6,0.703
62.19,1,-0.063,0.05,0.038,-0.029,0.032,0.04,-1.561,0.023,-0.702,61.54,106.1,40.503502,-3.368428,609.1,4,5,236.6,0.703
62.29,1,-0.059,0.011,0.026,-0.05,0.027,0.033,-1.562,0.025,-0.703,61.54,106.1,40.503502,-3.368428,609.1,4,5,236.6,0.703
62.39,1,-0.009,0.01,0.017,-0.037,0.016,0.026,-1.566,0.025,-0.705,61.54,106.1,40.503502,-3.368428,609.1,4,5,236.6,0.703
62.49,1,-0.032,0.025,0.02,-0.024,0.017,0.023,-1.569,0.025,-0.706,61.54,106.1,40.503502,-3.368428,609.1,4,5,236.6,0.703
62.59,1,-0.04,0.008,0.032,-0.036,0.015,0.024,-1.571,0.024,-0.708,61.54,106.1,40.503502,-3.368428,609.1,4,5,236.6,0.703
62.69,1,-0.049,0.023,0.018,-0.043,0.02,0.023,-1.572,0.018,-0.71,61.54,106.1,40.503502,-3.368428,609.1,4,5,236.6,0.703
62.8,1,-0.012,0.025,0.028,-0.034,0.021,0.025,-1.575,0.018,-0.711,61.54,106.1,40.503502,-3.368428,609.1,4,5,236.6,0.703
62.89,1,-0.029,0.012,0.015,-0.026,0.018,0.023,-1.577,0.019,-0.713,61.54,106.1,40.503502,-3.368428,609.1,4,5,236.6,0.703
62.99,1,-0.001,0.001,0.017,-0.019,0.014,0.017,-1.58,0.021,-0.714,62.63,107.1,40.503353,-3.368714,609.2,4,5,237.0,0.352
63.09,1,-0.025,-0.006,0.027,-0.015,-0.001,0.021,-1.583,0.024,-0.715,62.63,107.1,40.503353,-3.368714,609.2,4,5,237.0,0.352
63.19,1,-0.033,0.004,0.026,-0.026,-0.0,0.021,-1.586,0.024,-0.716,62.63,107.1,40.503353,-3.368714,609.2,4,5,237.0,0.352
63.29,1,-0.019,0.019,0.026,-0.029,0.013,0.025,-1.588,0.021,-0.718,62.63,107.1,40.503353,-3.368714,609.2,4,5,237.0,0.352
63.4,1,-0.017,0.034,0.016,-0.012,0.019,0.024,-1.59,0.017,-0.719,62.63,107.1,40.503353,-3.368714,609.2,4,5,237.0,0.352
63.49,1,-0.031,-0.028,0.024,-0.023,0.004,0.022,-1.592,0.015,-0.72,62.63,107.1,40.503353,-3.368714,609.2,4,5,237.0,0.352
63.69,1,0.005,-0.03,0.003,0.005,-0.028,0.015,-1.592,0.021,-0.721,62.63,107.1,40.503353,-3.368714,609.2,4,5,237.0,0.352
63.79,1,-0.022,-0.022,-0.007,-0.005,-0.029,-0.0,-1.593,0.023,-0.721,62.63,107.1,40.503353,-3.368714,609.2,4,5,237.0,0.352
63.89,1,-0.026,-0.011,0.019,-0.017,-0.019,0.007,-1.595,0.025,-0.722,62.63,107.1,40.503353,-3.368714,609.2,4,5,237.0,0.352
64.0,1,-0.022,-0.001,0.026,-0.024,-0.008,0.015,-1.595,0.022,-0.723,62.63,107.1,40.503353,-3.368714,609.2,4,5,237.0,0.352
64.09,1,-0.015,0.001,0.039,-0.017,-0.004,0.028,-1.596,0.021,-0.724,63.54,107.5,40.503212,-3.369017,609.3,4,5,237.3,0.703
64.19,1,0.004,-0.039,0.022,-0.005,-0.019,0.027,-1.596,0.022,-0.724,63.54,107.5,40.503212,-3.369017,609.3,4,5,237.3,0.703
64.29,1,0.019,-0.012,0.022,0.003,-0.019,0.024,-1.6,0.025,-0.725,63.54,107.5,40.503212,-3.369017,609.3,4,5,237.3,0.703
64.4,1,0.003,-0.021,0.037,0.009,-0.017,0.03,-1.605,0.025,-0.725,63.54,107.5,40.503212,-3.369017,609.3,4,5,237.3,0.703
64.49,1,-0.039,-0.045,0.055,-0.008,-0.026,0.043,-1.61,0.027,-0.724,63.54,107.5,40.503212,-3.369017,609.3,4,5,237.3,0.703
64.6,1,-0.025,-0.04,0.011,-0.027,-0.039,0.034,-1.611,0.03,-0.724,63.54,107.5,40.503212,-3.369017,609.3,4,5,237.3,0.703
64.69,1,-0.008,-0.035,0.014,-0.02,-0.038,0.019,-1.613,0.033,-0.723,63.54,107.5,40.503212,-3.369017,609.3,4,5,237.3,0.703
64.79,1,0.015,-0.023,0.032,-0.005,-0.034,0.024,-1.613,0.034,-0.724,63.54,107.5,40.503212,-3.369017,609.3,4,5,237.3,0.703
64.89,1,0.013,-0.016,-0.002,0.011,-0.024,0.015,-1.614,0.035,-0.724,63.54,107.5,40.503212,-3.369017,609.3,4,5,237.3,0.703
65.0,1,-0.03,0.006,0.0,-0.011,-0.008,0.005,-1.615,0.032,-0.725,63.54,107.5,40.503212,-3.369017,609.3,4,5,237.3,0.703
65.09,1,-0.032,0.022,0.006,-0.019,0.006,0.005,-1.616,0.03,-0.726,64.62,109.7,40.503059,-3.369326,609.5,4,5,237.3,0.352
65.2,1,-0.014,0.014,-0.013,-0.019,0.015,-0.002,-1.615,0.028,-0.727,64.62,109.7,40.503059,-3.369326,609.5,4,5,237.3,0.352
65.29,1,-0.002,0.008,-0.012,-0.016,0.014,-0.01,-1.611,0.026,-0.729,64.62,109.7,40.503059,-3.369326,609.5,4,5,237.3,0.352
65.4,1,0.016,-0.005,-0.053,0.0,0.003,-0.024,-1.608,0.024,-0.73,64.62,109.7,40.503059,-3.369326,609.5,4,5,237.3,0.352
65.5,1,0.024,0.009,-0.058,0.015,0.002,-0.048,-1.604,0.022,-0.731,64.62,109.7,40.503059,-3.369326,609.5,4,5,237.3,0.352
65.6,1,-0.019,-0.006,-0.065,0.003,0.002,-0.057,-1.598,0.02,-0.732,64.62,109.7,40.503059,-3.369326,609.5,4,5,237.3,0.352
65.7,1,-0.02,0.006,-0.053,-0.008,-0.001,-0.055,-1.592,0.023,-0.732,64.62,109.7,40.503059,-3.369326,609.5,4,5,237.3,0.352
65.8,1,-0.024,-0.017,-0.059,-0.02,-0.003,-0.059,-1.585,0.025,-0.733,64.62,109.7,40.503059,-3.369326,609.5,4,5,237.3,0.352
65.9,1,-0.037,-0.009,-0.054,-0.025,-0.013,-0.054,-1.58,0.025,-0.734,64.62,109.7,40.503059,-3.369326,609.5,4,5,237.3,0.352
66.0,1,-0.013,0.014,-0.035,-0.027,-0.002,-0.051,-1.577,0.026,-0.736,64.62,109.7,40.503059,-3.369326,609.5,4,5,237.3,0.352
66.1,1,-0.005,0.011,-0.063,-0.016,0.01,-0.05,-1.574,0.026,-0.737,65.54,111.6,40.502911,-3.36963,609.4,4,5,237.0,0.352
66.2,1,-0.025,0.016,-0.042,-0.012,0.012,-0.05,-1.571,0.025,-0.738,65.54,111.6,40.502911,-3.36963,609.4,4,5,237.0,0.352
66.3,1,-0.004,0.012,-0.035,-0.012,0.015,-0.042,-1.568,0.022,-0.74,65.54,111.6,40.502911,-3.36963,609.4,4,5,237.0,0.352
66.4,1,0.001,0.015,-0.029,-0.008,0.013,-0.035,-1.564,0.02,-0.741,65.54,111.6,40.502911,-3.36963,609.4,4,5,237.0,0.352
66.5,1,0.015,0.026,-0.036,0.008,0.018,-0.033,-1.561,0.017,-0.743,65.54,111.6,40.502911,-3.36963,609.4,4,5,237.0,0.352
66.6,1,-0.031,0.023,-0.033,-0.006,0.024,-0.035,-1.559,0.014,-0.744,65.54,111.6,40.502911,-3.36963,609.4,4,5,237.0,0.352
66.7,1,-0.039,0.037,-0.028,-0.029,0.031,-0.032,-1.557,0.009,-0.746,65.54,111.6,40.502911,-3.36963,609.4,4,5,237.0,0.352
66.8,1,-0.028,0.051,-0.015,-0.03,0.038,-0.022,-1.556,0.006,-0.749,65.54,111.6,40.502911,-3.36963,609.4,4,5,237.0,0.352
66.9,1,0.013,0.042,-0.004,-0.011,0.042,-0.013,-1.556,0.004,-0.751,65.54,111.6,40.502911,-3.36963,609.4,4,5,237.0,0.352
67.0,1,0.026,0.031,0.005,0.011,0.039,-0.006,-1.555,-0.0,-0.754,65.54,111.6,40.502911,-3.36963,609.4,4,5,237.0,0.352
67.1,1,-0.002,0.057,0.008,0.01,0.045,0.002,-1.554,-0.005,-0.757,66.59,111.1,40.502777,-3.369926,609.1,4,5,237.0,0.352
67.2,1,-0.003,0.036,0.022,-0.001,0.043,0.009,-1.555,-0.009,-0.76,66.59,111.1,40.502777,-3.369926,609.1,4,5,237.0,0.352
67.31,1,0.004,0.043,0.021,0.003,0.04,0.019,-1.557,-0.012,-0.763,66.59,111.1,40.502777,-3.369926,609.1,4,5,237.0,0.352
67.4,1,0.004,0.023,0.021,0.0,0.034,0.02,-1.558,-0.015,-0.765,66.59,111.1,40.502777,-3.369926,609.1,4,5,237.0,0.352
67.5,1,-0.021,0.024,0.018,-0.006,0.033,0.019,-1.56,-0.018,-0.768,66.59,111.1,40.502777,-3.369926,609.1,4,5,237.0,0.352
67.6,1,-0.014,0.013,0.036,-0.014,0.019,0.025,-1.562,-0.022,-0.771,66.59,111.1,40.502777,-3.369926,609.1,4,5,237.0,0.352
67.7,1,-0.016,0.0,0.029,-0.011,0.01,0.033,-1.566,-0.022,-0.773,66.59,111.1,40.502777,-3.369926,609.1,4,5,237.0,0.352
67.8,1,-0.037,-0.001,0.022,-0.025,0.003,0.024,-1.568,-0.021,-0.775,66.59,111.1,40.502777,-3.369926,609.1,4,5,237.0,0.352
67.9,1,-0.016,0.014,0.034,-0.021,0.006,0.029,-1.57,-0.021,-0.776,66.59,111.1,40.502777,-3.369926,609.1,4,5,237.0,0.352
68.0,1,-0.048,-0.013,0.037,-0.033,0.0,0.034,-1.573,-0.02,-0.778,66.59,111.1,40.502777,-3.369926,609.1,4,5,237.0,0.352
68.1,1,0.004,0.002,0.041,-0.024,-0.004,0.037,-1.576,-0.02,-0.78,67.55,110.2,40.502628,-3.370235,608.6,4,5,238.0,1.055
68.21,1,0.017,0.003,0.034,0.003,0.001,0.036,-1.581,-0.021,-0.782,67.55,110.2,40.502628,-3.370235,608.6,4,5,238.0,1.055
68.31,1,0.029,-0.001,0.03,0.013,-0.001,0.033,-1.583,-0.024,-0.784,67.55,110.2,40.502628,-3.370235,608.6,4,5,238.0,1.055
68.4,1,0.01,0.029,0.049,0.021,0.016,0.04,-1.586,-0.027,-0.787,67.55,110.2,40.502628,-3.370235,608.6,4,5,238.0,1.055
68.5,1,0.008,-0.013,0.063,0.011,0.006,0.05,-1.592,-0.024,-0.788,67.55,110.2,40.502628,-3.370235,608.6,4,5,238.0,1.055
68.6,1,-0.022,-0.002,0.045,-0.003,-0.004,0.052,-1.596,-0.022,-0.79,67.55,110.2,40.502628,-3.370235,608.6,4,5,238.0,1.055
68.71,1,-0.022,-0.001,0.045,-0.017,-0.001,0.046,-1.598,-0.023,-0.792,67.55,110.2,40.502628,-3.370235,608.6,4,5,238.0,1.055
68.81,1,0.005,-0.008,0.024,-0.009,-0.005,0.038,-1.599,-0.024,-0.794,67.55,110.2,40.502628,-3.370235,608.6,4,5,238.0,1.055
68.91,1,-0.007,0.006,0.007,-0.003,-0.001,0.023,-1.601,-0.024,-0.797,67.55,110.2,40.502628,-3.370235,608.6,4,5,238.0,1.055
69.01,1,-0.033,-0.0,0.012,-0.017,0.001,0.014,-1.601,-0.026,-0.798,67.55,110.2,40.502628,-3.370235,608.6,4,5,238.0,1.055
69.11,1,-0.03,0.004,0.012,-0.027,0.002,0.015,-1.603,-0.027,-0.8,68.55,111.4,40.502483,-3.370557,609.3,4,5,238.7,1.758
69.21,1,-0.016,-0.016,0.006,-0.023,-0.001,0.011,-1.604,-0.023,-0.801,68.55,111.4,40.502483,-3.370557,609.3,4,5,238.7,1.758
69.32,1,-0.053,-0.07,-0.014,-0.033,-0.035,-0.001,-1.605,-0.018,-0.801,68.55,111.4,40.502483,-3.370557,609.3,4,5,238.7,1.758
69.41,1,-0.028,-0.063,0.006,-0.036,-0.055,-0.006,-1.607,-0.013,-0.801,68.55,111.4,40.502483,-3.370557,609.3,4,5,238.7,1.758
69.51,1,0.003,-0.051,0.01,-0.021,-0.056,0.008,-1.606,-0.011,-0.801,68.55,111.4,40.502483,-3.370557,609.3,4,5,238.7,1.758
69.61,1,0.004,-0.06,-0.019,-0.004,-0.055,-0.003,-1.606,-0.008,-0.801,68.55,111.4,40.502483,-3.370557,609.3,4,5,238.7,1.758
69.71,1,-0.004,-0.052,-0.028,0.0,-0.053,-0.018,-1.605,-0.003,-0.8,68.55,111.4,40.502483,-3.370557,609.3,4,5,238.7,1.758
69.81,1,0.014,-0.087,-0.043,0.005,-0.067,-0.03,-1.601,0.005,-0.798,68.55,111.4,40.502483,-3.370557,609.3,4,5,238.7,1.758
69.92,1,-0.011,-0.083,-0.056,-0.006,-0.077,-0.046,-1.596,0.011,-0.797,68.55,111.4,40.502483,-3.370557,609.3,4,5,238.7,1.758
70.01,1,-0.047,-0.093,-0.061,-0.015,-0.086,-0.05,-1.59,0.014,-0.795,68.55,111.4,40.502483,-3.370557,609.3,4,5,238.7,1.758
70.11,1,-0.022,-0.068,-0.062,-0.031,-0.082,-0.062,-1.583,0.019,-0.794,69.54,113.6,40.502346,-3.370874,608.8,4,5,239.4,1.406
70.21,1,0.015,-0.034,-0.066,-0.013,-0.06,-0.06,-1.574,0.022,-0.793,69.54,113.6,40.502346,-3.370874,608.8,4,5,239.4,1.406
70.31,1,0.023,-0.038,-0.053,0.011,-0.044,-0.061,-1.568,0.027,-0.793,69.54,113.6,40.502346,-3.370874,608.8,4,5,239.4,1.406
70.41,1,-0.023,-0.012,-0.068,-0.006,-0.037,-0.066,-1.563,0.03,-0.792,69.54,113.6,40.502346,-3.370874,608.8,4,5,239.4,1.406
70.52,1,-0.019,-0.057,-0.046,-0.007,-0.031,-0.054,-1.56,0.03,-0.791,69.54,113.6,40.502346,-3.370874,608.8,4,5,239.4,1.406
70.61,1,-0.019,-0.018,-0.064,-0.01,-0.033,-0.053,-1.555,0.03,-0.79,69.54,113.6,40.502346,-3.370874,608.8,4,5,239.4,1.406
70.71,1,-0.062,-0.045,-0.055,-0.041,-0.03,-0.064,-1.554,0.033,-0.789,69.54,113.6,40.502346,-3.370874,608.8,4,5,239.4,1.406
70.81,1,0.015,-0.044,-0.029,-0.026,-0.043,-0.045,-1.552,0.038,-0.788,69.54,113.6,40.502346,-3.370874,608.8,4,5,239.4,1.406
70.91,1,0.0,-0.029,-0.036,0.002,-0.036,-0.036,-1.548,0.041,-0.787,69.54,113.6,40.502346,-3.370874,608.8,4,5,239.4,1.406
71.01,1,-0.039,-0.038,-0.061,-0.027,-0.037,-0.052,-1.545,0.043,-0.785,69.54,113.6,40.502346,-3.370874,608.8,4,5,239.4,1.406
71.12,1,-0.007,-0.012,0.012,-0.022,-0.027,-0.022,-1.546,0.046,-0.784,70.55,114.3,40.502205,-3.371185,608.9,4,5,238.7,0.703
71.22,1,0.108,-0.035,-0.034,0.044,-0.023,-0.016,-1.544,0.053,-0.783,70.55,114.3,40.502205,-3.371185,608.9,4,5,238.7,0.703
71.31,1,0.051,-0.034,-0.057,0.071,-0.034,-0.039,-1.539,0.059,-0.782,70.55,114.3,40.502205,-3.371185,608.9,4,5,238.7,0.703
71.41,1,-0.093,0.042,-0.075,-0.004,-0.004,-0.064,-1.534,0.057,-0.782,70.55,114.3,40.502205,-3.371185,608.9,4,5,238.7,0.703
71.51,1,-0.053,0.001,-0.005,-0.051,0.013,-0.036,-1.535,0.059,-0.78,70.55,114.3,40.502205,-3.371185,608.9,4,5,238.7,0.703
71.61,1,-0.017,-0.027,-0.024,-0.039,-0.005,-0.028,-1.534,0.061,-0.78,70.55,114.3,40.502205,-3.371185,608.9,4,5,238.7,0.703
71.71,1,-0.024,-0.013,-0.034,-0.032,-0.015,-0.029,-1.531,0.059,-0.78,70.55,114.3,40.502205,-3.371185,608.9,4,5,238.7,0.703
71.82,1,0.034,0.026,-0.02,-0.003,-0.001,-0.024,-1.529,0.055,-0.78,70.55,114.3,40.502205,-3.371185,608.9,4,5,238.7,0.703
71.92,1,-0.017,0.034,-0.026,0.007,0.021,-0.022,-1.527,0.052,-0.781,70.55,114.3,40.502205,-3.371185,608.9,4,5,238.7,0.703
72.02,1,-0.035,0.02,-0.005,-0.016,0.021,-0.02,-1.527,0.05,-0.78,70.55,114.3,40.502205,-3.371185,608.9,4,5,238.7,0.703
72.11,1,-0.02,-0.0,-0.017,-0.025,0.017,-0.014,-1.525,0.049,-0.78,71.54,112.5,40.50206,-3.371507,608.6,4,5,238.0,1.406
72.22,1,-0.051,0.001,-0.015,-0.032,0.0,-0.015,-1.522,0.048,-0.78,71.54,112.5,40.50206,-3.371507,608.6,4,5,238.0,1.406
72.33,1,0.025,0.038,0.002,-0.017,0.016,-0.01,-1.521,0.045,-0.78,71.54,112.5,40.50206,-3.371507,608.6,4,5,238.0,1.406
72.42,1,0.025,0.051,-0.019,0.014,0.038,-0.008,-1.52,0.04,-0.781,71.54,112.5,40.50206,-3.371507,608.6,4,5,238.0,1.406
72.53,1,0.021,0.048,-0.021,0.013,0.046,-0.018,-1.517,0.038,-0.782,71.54,112.5,40.50206,-3.371507,608.6,4,5,238.0,1.406
72.62,1,-0.012,0.042,-0.031,0.01,0.044,-0.023,-1.516,0.035,-0.783,71.54,112.5,40.50206,-3.371507,608.6,4,5,238.0,1.406
72.72,1,-0.074,0.023,0.0,-0.027,0.034,-0.015,-1.516,0.03,-0.784,71.54,112.5,40.50206,-3.371507,608.6,4,5,238.0,1.406
72.82,1,-0.038,0.036,0.006,-0.048,0.032,-0.004,-1.518,0.026,-0.785,71.54,112.5,40.50206,-3.371507,608.6,4,5,238.0,1.406
72.92,1,0.046,0.026,-0.018,-0.005,0.029,-0.005,-1.518,0.021,-0.786,71.54,112.5,40.50206,-3.371507,608.6,4,5,238.0,1.406
73.02,1,-0.001,0.034,-0.022,0.006,0.032,-0.017,-1.517,0.019,-0.787,71.54,112.5,40.50206,-3.371507,608.6,4,5,238.0,1.406
73.13,1,-0.04,0.014,-0.006,-0.014,0.027,-0.017,-1.516,0.017,-0.788,72.55,110.7,40.501907,-3.371819,609.5,4,5,237.3,1.406
73.22,1,0.022,0.027,0.007,-0.006,0.021,-0.002,-1.517,0.016,-0.788,72.55,110.7,40.501907,-3.371819,609.5,4,5,237.3,1.406
73.32,1,0.026,0.004,-0.004,0.02,0.019,0.002,-1.513,0.017,-0.789,72.55,110.7,40.501907,-3.371819,609.5,4,5,237.3,1.406
73.42,1,0.04,-0.007,0.008,0.027,0.007,0.0,-1.509,0.019,-0.789,72.55,110.7,40.501907,-3.371819,609.5,4,5,237.3,1.406
73.52,1,0.017,0.007,-0.018,0.028,0.004,-0.006,-1.509,0.017,-0.79,72.55,110.7,40.501907,-3.371819,609.5,4,5,237.3,1.406
73.73,1,-0.058,-0.002,-0.001,-0.053,-0.006,-0.011,-1.511,0.018,-0.79,72.55,110.7,40.501907,-3.371819,609.5,4,5,237.3,1.406
73.82,1,-0.048,-0.005,0.02,-0.056,-0.001,0.009,-1.513,0.018,-0.79,72.55,110.7,40.501907,-3.371819,609.5,4,5,237.3,1.406
73.92,1,0.036,-0.019,0.008,-0.007,-0.011,0.009,-1.512,0.021,-0.789,72.55,110.7,40.501907,-3.371819,609.5,4,5,237.3,1.406
74.02,1,0.011,-0.027,-0.009,0.01,-0.022,-0.002,-1.512,0.024,-0.789,72.55,110.7,40.501907,-3.371819,609.5,4,5,237.3,1.406
74.12,1,-0.007,0.006,-0.012,0.005,-0.011,-0.003,-1.511,0.026,-0.789,72.55,110.7,40.501907,-3.371819,609.5,4,5,237.3,1.406
74.23,1,-0.018,0.007,0.015,-0.01,0.002,-0.0,-1.512,0.023,-0.789,73.54,109.3,40.501759,-3.372121,608.4,4,5,237.7,0.352
74.32,1,-0.028,0.01,-0.01,-0.019,0.006,0.006,-1.512,0.023,-0.789,73.54,109.3,40.501759,-3.372121,608.4,4,5,237.7,0.352
74.42,1,-0.024,-0.013,-0.001,-0.018,-0.002,-0.005,-1.511,0.023,-0.789,73.54,109.3,40.501759,-3.372121,608.4,4,5,237.7,0.352
74.52,1,-0.039,-0.022,0.009,-0.034,-0.013,-0.001,-1.513,0.025,-0.788,73.54,109.3,40.501759,-3.372121,608.4,4,5,237.7,0.352
74.62,1,0.024,-0.023,0.013,-0.011,-0.018,0.007,-1.515,0.026,-0.788,73.54,109.3,40.501759,-3.372121,608.4,4,5,237.7,0.352
74.73,1,0.015,-0.029,-0.019,0.012,-0.025,0.001,-1.514,0.025,-0.788,73.54,109.3,40.501759,-3.372121,608.4,4,5,237.7,0.352
74.83,1,-0.017,-0.004,-0.005,-0.0,-0.02,-0.006,-1.512,0.024,-0.788,73.54,109.3,40.501759,-3.372121,608.4,4,5,237.7,0.352
74.92,1,-0.023,-0.01,0.009,-0.016,-0.011,-0.001,-1.514,0.021,-0.788,73.54,109.3,40.501759,-3.372121,608.4,4,5,237.7,0.352
75.03,1,0.003,-0.007,-0.015,-0.009,-0.006,-0.003,-1.513,0.02,-0.787,73.54,109.3,40.501759,-3.372121,608.4,4,5,237.7,0.352
75.12,1,-0.017,-0.028,0.009,-0.008,-0.015,-0.001,-1.51,0.019,-0.787,73.54,109.3,40.501759,-3.372121,608.4,4,5,237.7,0.352
75.22,1,-0.022,-0.012,0.002,-0.016,-0.016,-0.002,-1.508,0.019,-0.787,74.63,106.4,40.501617,-3.372416,608.4,4,5,237.7,0.352
75.32,1,-0.048,-0.012,0.013,-0.033,-0.009,0.009,-1.509,0.016,-0.787,74.63,106.4,40.501617,-3.372416,608.4,4,5,237.7,0.352
75.43,1,0.014,0.005,0.016,-0.019,-0.005,0.011,-1.509,0.016,-0.787,74.63,106.4,40.501617,-3.372416,608.4,4,5,237.7,0.352
75.54,1,0.035,0.012,0.014,0.014,0.002,0.018,-1.509,0.016,-0.787,74.63,106.4,40.501617,-3.372416,608.4,4,5,237.7,0.352
75.64,1,0.002,-0.008,-0.016,0.017,0.0,-0.0,-1.507,0.018,-0.787,74.63,106.4,40.501617,-3.372416,608.4,4,5,237.7,0.352
75.73,1,0.013,-0.009,0.017,0.007,-0.005,0.003,-1.507,0.019,-0.787,74.63,106.4,40.501617,-3.372416,608.4,4,5,237.7,0.352
75.83,1,-0.017,-0.007,-0.018,-0.003,-0.008,-0.002,-1.507,0.021,-0.787,74.63,106.4,40.501617,-3.372416,608.4,4,5,237.7,0.352
75.93,1,-0.059,-0.012,0.011,-0.027,-0.009,0.002,-1.507,0.026,-0.786,74.63,106.4,40.501617,-3.372416,608.4,4,5,237.7,0.352
76.03,1,-0.012,-0.03,0.011,-0.028,-0.019,0.007,-1.51,0.029,-0.785,74.63,106.4,40.501617,-3.372416,608.4,4,5,237.7,0.352
76.13,1,-0.011,-0.024,0.007,-0.02,-0.024,0.008,-1.511,0.033,-0.783,74.63,106.4,40.501617,-3.372416,608.4,4,5,237.7,0.352
76.23,1,-0.042,-0.037,-0.006,-0.017,-0.032,0.004,-1.512,0.038,-0.782,75.57,105.5,40.501476,-3.372703,607.6,3,5,237.3,0.352
76.33,1,-0.056,-0.017,0.002,-0.045,-0.027,-0.004,-1.514,0.039,-0.781,75.57,105.5,40.501476,-3.372703,607.6,3,5,237.3,0.352
76.43,1,-0.028,0.018,0.014,-0.046,-0.005,0.004,-1.516,0.035,-0.782,75.57,105.5,40.501476,-3.372703,607.6,3,5,237.3,0.352
76.53,1,0.006,0.059,0.008,-0.021,0.026,0.013,-1.518,0.028,-0.783,75.57,105.5,40.501476,-3.372703,607.6,3,5,237.3,0.352
76.64,1,0.039,0.045,0.016,0.015,0.043,0.01,-1.518,0.025,-0.784,75.57,105.5,40.501476,-3.372703,607.6,3,5,237.3,0.352
76.74,1,0.032,0.033,-0.024,0.03,0.04,-0.0,-1.514,0.023,-0.784,75.57,105.5,40.501476,-3.372703,607.6,3,5,237.3,0.352
76.83,1,-0.035,0.029,-0.007,0.002,0.038,-0.014,-1.514,0.021,-0.785,75.57,105.5,40.501476,-3.372703,607.6,3,5,237.3,0.352
76.93,1,-0.037,0.011,0.02,-0.024,0.022,0.008,-1.515,0.022,-0.785,75.57,105.5,40.501476,-3.372703,607.6,3,5,237.3,0.352
77.03,1,-0.005,0.006,0.002,-0.022,0.009,0.006,-1.513,0.022,-0.786,75.57,105.5,40.501476,-3.372703,607.6,3,5,237.3,0.352
77.13,1,-0.005,0.006,-0.004,-0.008,0.009,-0.001,-1.513,0.022,-0.786,75.57,105.5,40.501476,-3.372703,607.6,3,5,237.3,0.352
77.24,1,-0.018,0.01,0.026,-0.016,0.01,0.013,-1.513,0.02,-0.786,76.54,103.9,40.501347,-3.373005,605.9,4,5,237.3,0.352
77.33,1,0.011,0.003,0.001,-0.002,0.01,0.007,-1.511,0.02,-0.786,76.54,103.9,40.501347,-3.373005,605.9,4,5,237.3,0.352
77.44,1,-0.03,0.002,-0.007,-0.007,0.006,0.003,-1.512,0.023,-0.786,76.54,103.9,40.501347,-3.373005,605.9,4,5,237.3,0.352
77.53,1,-0.03,-0.021,0.002,-0.022,-0.014,0.001,-1.513,0.023,-0.786,76.54,103.9,40.501347,-3.373005,605.9,4,5,237.3,0.352
77.63,1,-0.007,-0.007,0.023,-0.023,-0.009,0.006,-1.513,0.022,-0.787,76.54,103.9,40.501347,-3.373005,605.9,4,5,237.3,0.352
77.73,1,-0.017,0.023,0.005,-0.017,0.007,0.014,-1.512,0.021,-0.787,76.54,103.9,40.501347,-3.373005,605.9,4,5,237.3,0.352
77.84,1,-0.003,0.001,-0.004,-0.007,0.006,0.003,-1.511,0.021,-0.787,76.54,103.9,40.501347,-3.373005,605.9,4,5,237.3,0.352
77.94,1,-0.01,-0.009,0.002,-0.011,-0.002,-0.002,-1.512,0.021,-0.788,76.54,103.9,40.501347,-3.373005,605.9,4,5,237.3,0.352
78.04,1,-0.023,0.007,0.006,-0.014,0.001,0.008,-1.513,0.022,-0.788,76.54,103.9,40.501347,-3.373005,605.9,4,5,237.3,0.352
78.14,1,-0.04,0.015,-0.008,-0.028,0.009,-0.005,-1.516,0.022,-0.788,76.54,103.9,40.501347,-3.373005,605.9,4,5,237.3,0.352
78.23,1,-0.001,-0.008,0.003,-0.017,0.006,0.002,-1.516,0.023,-0.788,77.62,102.2,40.501202,-3.37329,605.4,3,5,237.3,0.0
78.33,1,-0.026,-0.043,-0.014,-0.014,-0.021,-0.005,-1.516,0.024,-0.788,77.62,102.2,40.501202,-3.37329,605.4,3,5,237.3,0.0
78.43,1,-0.027,-0.03,0.031,-0.03,-0.031,0.002,-1.518,0.027,-0.787,77.62,102.2,40.501202,-3.37329,605.4,3,5,237.3,0.0
78.53,1,0.031,-0.01,0.032,-0.002,-0.019,0.028,-1.521,0.028,-0.786,77.62,102.2,40.501202,-3.37329,605.4,3,5,237.3,0.0
78.64,1,-0.027,-0.048,-0.005,0.004,-0.032,0.014,-1.522,0.03,-0.785,77.62,102.2,40.501202,-3.37329,605.4,3,5,237.3,0.0
78.74,1,-0.062,-0.002,0.032,-0.028,-0.03,0.013,-1.526,0.029,-0.785,77.62,102.2,40.501202,-3.37329,605.4,3,5,237.3,0.0
78.83,1,-0.029,0.034,0.064,-0.047,0.004,0.04,-1.532,0.023,-0.787,77.62,102.2,40.501202,-3.37329,605.4,3,5,237.3,0.0
78.94,1,-0.03,0.007,0.033,-0.037,0.02,0.043,-1.536,0.018,-0.787,77.62,102.2,40.501202,-3.37329,605.4,3,5,237.3,0.0
79.04,1,-0.02,0.007,0.048,-0.026,0.011,0.044,-1.542,0.02,-0.787,77.62,102.2,40.501202,-3.37329,605.4,3,5,237.3,0.0
79.14,1,0.024,-0.018,0.056,-0.002,-0.005,0.049,-1.547,0.021,-0.786,77.62,102.2,40.501202,-3.37329,605.4,3,5,237.3,0.0
79.25,1,-0.017,0.003,0.037,-0.002,-0.004,0.045,-1.554,0.021,-0.786,78.55,101.7,40.50106,-3.373569,605.4,4,5,237.3,0.0
79.34,1,-0.016,0.016,0.059,-0.014,0.006,0.049,-1.559,0.019,-0.787,78.55,101.7,40.50106,-3.373569,605.4,4,5,237.3,0.0
79.44,1,-0.028,0.012,0.03,-0.024,0.012,0.04,-1.562,0.02,-0.787,78.55,101.7,40.50106,-3.373569,605.4,4,5,237.3,0.0
79.54,1,0.014,-0.005,0.062,-0.004,0.006,0.051,-1.566,0.019,-0.788,78.55,101.7,40.50106,-3.373569,605.4,4,5,237.3,0.0
79.64,1,0.033,-0.011,0.025,0.02,-0.003,0.045,-1.569,0.019,-0.788,78.55,101.7,40.50106,-3.373569,605.4,4,5,237.3,0.0
79.74,1,-0.015,-0.001,0.039,0.006,-0.004,0.035,-1.573,0.018,-0.788,78.55,101.7,40.50106,-3.373569,605.4,4,5,237.3,0.0
79.84,1,-0.054,-0.026,0.045,-0.025,-0.013,0.041,-1.578,0.017,-0.789,78.55,101.7,40.50106,-3.373569,605.4,4,5,237.3,0.0
79.94,1,-0.024,-0.004,0.041,-0.034,-0.012,0.041,-1.58,0.017,-0.79,78.55,101.7,40.50106,-3.373569,605.4,4,5,237.3,0.0
80.04,1,-0.015,0.009,0.032,-0.019,-0.004,0.041,-1.583,0.014,-0.79,78.55,101.7,40.50106,-3.373569,605.4,4,5,237.3,0.0
80.14,1,0.007,0.009,0.044,-0.013,0.005,0.033,-1.588,0.01,-0.791,78.55,101.7,40.50106,-3.373569,605.4,4,5,237.3,0.0
80.24,1,0.016,-0.014,0.021,0.004,0.0,0.038,-1.593,0.009,-0.79,79.55,102.0,40.500923,-3.373843,604.6,4,5,237.3,0.0
80.34,1,-0.009,-0.016,0.021,0.005,-0.008,0.024,-1.594,0.01,-0.79,79.55,102.0,40.500923,-3.373843,604.6,4,5,237.3,0.0
80.44,1,0.002,-0.038,0.029,-0.003,-0.028,0.022,-1.597,0.013,-0.789,79.55,102.0,40.500923,-3.373843,604.6,4,5,237.3,0.0
80.55,1,0.01,-0.04,0.032,0.003,-0.032,0.03,-1.599,0.016,-0.788,79.55,102.0,40.500923,-3.373843,604.6,4,5,237.3,0.0
80.64,1,0.004,-0.01,0.021,0.006,-0.025,0.028,-1.601,0.017,-0.788,79.55,102.0,40.500923,-3.373843,604.6,4,5,237.3,0.0
80.74,1,-0.023,-0.013,0.012,0.0,-0.015,0.021,-1.602,0.018,-0.788,79.55,102.0,40.500923,-3.373843,604.6,4,5,237.3,0.0
80.84,1,-0.011,0.005,0.034,-0.017,-0.01,0.02,-1.604,0.018,-0.788,79.55,102.0,40.500923,-3.373843,604.6,4,5,237.3,0.0
80.94,1,0.006,0.003,-0.011,-0.008,-0.001,0.013,-1.606,0.014,-0.789,79.55,102.0,40.500923,-3.373843,604.6,4,5,237.3,0.0
81.05,1,-0.057,-0.006,-0.025,-0.021,0.001,-0.01,-1.605,0.012,-0.788,79.55,102.0,40.500923,-3.373843,604.6,4,5,237.3,0.0
81.15,1,-0.052,-0.064,0.017,-0.042,-0.026,-0.001,-1.608,0.018,-0.786,79.55,102.0,40.500923,-3.373843,604.6,4,5,237.3,0.0
81.24,1,0.034,-0.079,0.003,-0.011,-0.058,0.008,-1.608,0.025,-0.784,80.55,102.6,40.50079,-3.374124,604.3,4,5,237.3,0.0
81.34,1,0.018,-0.072,-0.013,0.014,-0.073,-0.006,-1.606,0.03,-0.782,80.55,102.6,40.50079,-3.374124,604.3,4,5,237.3,0.0
81.44,1,0.0,-0.048,0.001,0.007,-0.065,-0.004,-1.606,0.031,-0.781,80.55,102.6,40.50079,-3.374124,604.3,4,5,237.3,0.0
81.55,1,-0.009,-0.047,0.009,-0.001,-0.047,0.0,-1.606,0.031,-0.779,80.55,102.6,40.50079,-3.374124,604.3,4,5,237.3,0.0
81.64,1,-0.056,-0.001,-0.008,-0.026,-0.031,0.003,-1.608,0.035,-0.778,80.55,102.6,40.50079,-3.374124,604.3,4,5,237.3,0.0
81.75,1,-0.004,-0.002,-0.006,-0.024,-0.008,-0.003,-1.607,0.034,-0.778,80.55,102.6,40.50079,-3.374124,604.3,4,5,237.3,0.0
81.84,1,0.04,0.009,-0.025,0.007,-0.002,-0.013,-1.605,0.034,-0.778,80.55,102.6,40.50079,-3.374124,604.3,4,5,237.3,0.0
81.94,1,0.008,0.031,-0.025,0.019,0.014,-0.019,-1.603,0.034,-0.778,80.55,102.6,40.50079,-3.374124,604.3,4,5,237.3,0.0
82.04,1,-0.042,0.02,-0.042,-0.009,0.018,-0.033,-1.6,0.032,-0.779,80.55,102.6,40.50079,-3.374124,604.3,4,5,237.3,0.0
82.15,1,-0.021,0.026,-0.04,-0.027,0.02,-0.036,-1.596,0.03,-0.78,80.55,102.6,40.50079,-3.374124,604.3,4,5,237.3,0.0
82.24,1,-0.011,0.025,-0.055,-0.02,0.029,-0.045,-1.593,0.029,-0.781,81.55,104.8,40.500648,-3.374409,607.3,4,5,237.3,0.0
82.36,1,-0.027,-0.001,-0.05,-0.023,0.017,-0.049,-1.587,0.029,-0.781,81.55,104.8,40.500648,-3.374409,607.3,4,5,237.3,0.0
82.46,1,0.019,0.004,-0.045,-0.006,0.002,-0.045,-1.584,0.03,-0.781,81.55,104.8,40.500648,-3.374409,607.3,4,5,237.3,0.0
82.55,1,0.055,0.006,-0.025,0.023,0.005,-0.039,-1.582,0.03,-0.781,81.55,104.8,40.500648,-3.374409,607.3,4,5,237.3,0.0
82.65,1,0.023,0.001,-0.043,0.032,0.008,-0.035,-1.579,0.031,-0.781,81.55,104.8,40.500648,-3.374409,607.3,4,5,237.3,0.0
82.76,1,0.026,-0.008,-0.047,0.033,-0.001,-0.046,-1.574,0.031,-0.781,81.55,104.8,40.500648,-3.374409,607.3,4,5,237.3,0.0
82.85,1,-0.05,-0.021,-0.036,-0.001,-0.01,-0.039,-1.574,0.032,-0.78,81.55,104.8,40.500648,-3.374409,607.3,4,5,237.3,0.0
82.96,1,-0.061,0.025,-0.01,-0.041,0.003,-0.027,-1.573,0.032,-0.78,81.55,104.8,40.500648,-3.374409,607.3,4,5,237.3,0.0
83.05,1,0.0,0.007,-0.016,-0.031,0.009,-0.018,-1.571,0.032,-0.78,81.55,104.8,40.500648,-3.374409,607.3,4,5,237.3,0.0
83.15,1,0.004,-0.011,-0.039,-0.008,0.003,-0.028,-1.569,0.033,-0.779,81.55,104.8,40.500648,-3.374409,607.3,4,5,237.3,0.0
83.25,1,-0.005,0.01,-0.025,-0.006,0.001,-0.03,-1.569,0.035,-0.779,82.56,105.8,40.500504,-3.374691,607.0,4,5,236.6,0.703
83.35,1,-0.009,0.006,-0.022,-0.009,0.006,-0.023,-1.569,0.037,-0.779,82.56,105.8,40.500504,-3.374691,607.0,4,5,236.6,0.703
83.46,1,0.008,-0.013,-0.059,0.005,-0.002,-0.037,-1.563,0.039,-0.778,82.56,105.8,40.500504,-3.374691,607.0,4,5,236.6,0.703
83.55,1,-0.001,-0.017,-0.04,0.009,-0.012,-0.041,-1.558,0.04,-0.778,82.56,105.8,40.500504,-3.374691,607.0,4,5,236.6,0.703
83.65,1,-0.011,-0.013,-0.048,-0.003,-0.015,-0.046,-1.554,0.04,-0.778,82.56,105.8,40.500504,-3.374691,607.0,4,5,236.6,0.703
83.75,1,-0.015,-0.014,-0.057,-0.015,-0.015,-0.051,-1.551,0.039,-0.778,82.56,105.8,40.500504,-3.374691,607.0,4,5,236.6,0.703
83.85,1,0.003,0.006,-0.022,-0.009,-0.004,-0.041,-1.55,0.039,-0.777,82.56,105.8,40.500504,-3.374691,607.0,4,5,236.6,0.703
83.95,1,0.004,-0.002,-0.036,-0.004,0.002,-0.034,-1.547,0.038,-0.777,82.56,105.8,40.500504,-3.374691,607.0,4,5,236.6,0.703
84.06,1,-0.012,-0.0,-0.025,-0.002,-0.002,-0.03,-1.543,0.035,-0.777,82.56,105.8,40.500504,-3.374691,607.0,4,5,236.6,0.703
84.16,1,-0.01,-0.003,-0.027,-0.005,-0.004,-0.027,-1.54,0.036,-0.777,82.56,105.8,40.500504,-3.374691,607.0,4,5,236.6,0.703
84.25,1,0.004,-0.005,-0.023,-0.007,-0.002,-0.026,-1.537,0.034,-0.777,83.57,104.7,40.500355,-3.37498,605.3,3,5,236.6,0.703
84.35,1,-0.008,-0.004,-0.021,0.0,-0.004,-0.023,-1.535,0.034,-0.777,83.57,104.7,40.500355,-3.37498,605.3,3,5,236.6,0.703
84.46,1,-0.032,-0.013,-0.026,-0.016,-0.007,-0.025,-1.534,0.035,-0.776,83.57,104.7,40.500355,-3.37498,605.3,3,5,236.6,0.703
84.56,1,-0.001,0.001,-0.01,-0.017,-0.006,-0.022,-1.531,0.035,-0.776,83.57,104.7,40.500355,-3.37498,605.3,3,5,236.6,0.703
84.65,1,0.03,0.024,-0.012,0.008,0.009,-0.011,-1.532,0.031,-0.776,83.57,104.7,40.500355,-3.37498,605.3,3,5,236.6,0.703
84.76,1,-0.024,0.023,-0.015,-0.003,0.016,-0.012,-1.532,0.031,-0.776,83.57,104.7,40.500355,-3.37498,605.3,3,5,236.6,0.703
84.86,1,-0.016,0.022,-0.012,-0.012,0.02,-0.015,-1.532,0.028,-0.776,83.57,104.7,40.500355,-3.37498,605.3,3,5,236.6,0.703
84.95,1,-0.025,0.026,-0.015,-0.016,0.024,-0.014,-1.535,0.026,-0.776,83.57,104.7,40.500355,-3.37498,605.3,3,5,236.6,0.703
85.05,1,-0.064,0.021,0.009,-0.036,0.024,-0.003,-1.537,0.023,-0.777,83.57,104.7,40.500355,-3.37498,605.3,3,5,236.6,0.703
85.15,1,0.003,0.042,0.024,-0.034,0.03,0.01,-1.54,0.02,-0.778,83.57,104.7,40.500355,-3.37498,605.3,3,5,236.6,0.703
85.26,1,-0.017,0.039,0.002,-0.01,0.039,0.01,-1.54,0.015,-0.779,84.55,103.7,40.50021,-3.375273,604.7,4,5,236.6,0.0
85.36,1,-0.013,0.024,0.028,-0.019,0.031,0.013,-1.542,0.013,-0.78,84.55,103.7,40.50021,-3.375273,604.7,4,5,236.6,0.0
85.46,1,0.002,0.025,0.02,-0.005,0.027,0.024,-1.544,0.009,-0.78,84.55,103.7,40.50021,-3.375273,604.7,4,5,236.6,0.0
85.56,1,-0.007,0.016,0.013,-0.004,0.023,0.017,-1.546,0.006,-0.781,84.55,103.7,40.50021,-3.375273,604.7,4,5,236.6,0.0
85.65,1,-0.004,0.004,0.012,-0.003,0.013,0.013,-1.549,0.007,-0.782,84.55,103.7,40.50021,-3.375273,604.7,4,5,236.6,0.0
85.76,1,-0.015,-0.009,0.026,-0.013,0.002,0.02,-1.55,0.008,-0.782,84.55,103.7,40.50021,-3.375273,604.7,4,5,236.6,0.0
85.86,1,0.051,0.037,0.009,0.008,0.011,0.01,-1.551,0.009,-0.782,84.55,103.7,40.50021,-3.375273,604.7,4,5,236.6,0.0
85.96,1,0.031,0.006,0.037,0.034,0.016,0.024,-1.551,0.009,-0.783,84.55,103.7,40.50021,-3.375273,604.7,4,5,236.6,0.0
86.06,1,0.016,-0.0,0.008,0.031,0.009,0.024,-1.549,0.012,-0.783,84.55,103.7,40.50021,-3.375273,604.7,4,5,236.6,0.0
86.16,1,-0.038,0.01,0.024,-0.006,0.006,0.017,-1.551,0.013,-0.784,84.55,103.7,40.50021,-3.375273,604.7,4,5,236.6,0.0
86.26,1,-0.011,-0.007,0.033,-0.022,0.005,0.024,-1.555,0.013,-0.784,85.55,102.5,40.500069,-3.375549,605.0,3,5,236.6,0.0
86.36,1,0.008,-0.007,0.044,-0.002,-0.004,0.04,-1.557,0.012,-0.784,85.55,102.5,40.500069,-3.375549,605.0,3,5,236.6,0.0
86.46,1,0.026,-0.006,0.046,0.015,-0.009,0.044,-1.56,0.013,-0.785,85.55,102.5,40.500069,-3.375549,605.0,3,5,236.6,0.0
86.56,1,0.007,0.01,0.03,0.013,-0.001,0.033,-1.562,0.012,-0.785,85.55,102.5,40.500069,-3.375549,605.0,3,5,236.6,0.0
86.67,1,-0.03,0.01,0.027,-0.008,0.004,0.032,-1.565,0.007,-0.786,85.55,102.5,40.500069,-3.375549,605.0,3,5,236.6,0.0
86.76,1,-0.045,0.011,0.023,-0.026,0.012,0.026,-1.568,0.007,-0.786,85.55,102.5,40.500069,-3.375549,605.0,3,5,236.6,0.0
86.86,1,0.021,0.006,0.033,-0.013,0.01,0.03,-1.571,0.008,-0.786,85.55,102.5,40.500069,-3.375549,605.0,3,5,236.6,0.0
86.96,1,0.007,-0.019,-0.0,0.006,-0.005,0.019,-1.571,0.011,-0.786,85.55,102.5,40.500069,-3.375549,605.0,3,5,236.6,0.0
87.06,1,0.029,-0.017,0.005,0.011,-0.014,0.009,-1.571,0.014,-0.786,85.55,102.5,40.500069,-3.375549,605.0,3,5,236.6,0.0
87.16,1,0.041,-0.008,-0.013,0.03,-0.014,-0.005,-1.57,0.014,-0.786,85.55,102.5,40.500069,-3.375549,605.0,3,5,236.6,0.0
87.27,1,-0.035,-0.0,-0.009,0.008,-0.004,-0.008,-1.57,0.013,-0.787,86.65,102.4,40.499924,-3.375828,604.1,3,5,236.6,0.0
87.36,1,-0.038,-0.001,-0.025,-0.024,-0.002,-0.01,-1.569,0.013,-0.787,86.65,102.4,40.499924,-3.375828,604.1,3,5,236.6,0.0
87.46,1,-0.041,-0.007,-0.019,-0.033,-0.003,-0.02,-1.568,0.015,-0.786,86.65,102.4,40.499924,-3.375828,604.1,3,5,236.6,0.0
87.56,1,-0.023,-0.033,0.009,-0.032,-0.016,-0.005,-1.569,0.017,-0.785,86.65,102.4,40.499924,-3.375828,604.1,3,5,236.6,0.0
87.66,1,-0.002,-0.031,-0.01,-0.017,-0.029,-0.004,-1.568,0.02,-0.785,86.65,102.4,40.499924,-3.375828,604.1,3,5,236.6,0.0
87.77,1,-0.002,-0.031,-0.014,-0.01,-0.029,-0.012,-1.568,0.023,-0.784,86.65,102.4,40.499924,-3.375828,604.1,3,5,236.6,0.0
87.87,1,-0.016,-0.016,-0.017,-0.006,-0.023,-0.013,-1.566,0.023,-0.783,86.65,102.4,40.499924,-3.375828,604.1,3,5,236.6,0.0
87.97,1,-0.034,-0.014,-0.011,-0.023,-0.016,-0.014,-1.566,0.026,-0.783,86.65,102.4,40.499924,-3.375828,604.1,3,5,236.6,0.0
88.06,1,-0.001,-0.002,-0.031,-0.013,-0.014,-0.016,-1.565,0.027,-0.782,86.65,102.4,40.499924,-3.375828,604.1,3,5,236.6,0.0
88.16,1,-0.032,-0.02,-0.039,-0.025,-0.02,-0.036,-1.56,0.028,-0.782,86.65,102.4,40.499924,-3.375828,604.1,3,5,236.6,0.0
88.26,1,-0.002,0.001,-0.013,-0.018,-0.004,-0.02,-1.559,0.028,-0.782,87.63,103.3,40.499779,-3.376106,604.3,3,5,237.0,0.352
88.36,1,0.032,0.033,-0.052,0.013,0.018,-0.03,-1.557,0.027,-0.782,87.63,103.3,40.499779,-3.376106,604.3,3,5,237.0,0.352
88.46,1,-0.032,0.028,-0.035,0.003,0.023,-0.043,-1.556,0.028,-0.782,87.63,103.3,40.499779,-3.376106,604.3,3,5,237.0,0.352
88.56,1,-0.042,0.006,-0.021,-0.038,0.015,-0.032,-1.555,0.028,-0.782,87.63,103.3,40.499779,-3.376106,604.3,3,5,237.0,0.352
88.66,1,0.034,0.007,-0.016,-0.003,0.01,-0.02,-1.554,0.03,-0.782,87.63,103.3,40.499779,-3.376106,604.3,3,5,237.0,0.352
88.76,1,0.039,0.002,-0.041,0.027,0.004,-0.028,-1.549,0.032,-0.782,87.63,103.3,40.499779,-3.376106,604.3,3,5,237.0,0.352
88.86,1,-0.011,-0.016,-0.036,0.011,-0.001,-0.039,-1.543,0.033,-0.782,87.63,103.3,40.499779,-3.376106,604.3,3,5,237.0,0.352
88.97,1,-0.007,-0.007,-0.028,-0.004,-0.008,-0.032,-1.543,0.035,-0.782,87.63,103.3,40.499779,-3.376106,604.3,3,5,237.0,0.352
89.07,1,-0.012,-0.005,-0.012,-0.003,-0.005,-0.019,-1.542,0.035,-0.781,87.63,103.3,40.499779,-3.376106,604.3,3,5,237.0,0.352
89.17,1,-0.074,-0.034,-0.053,-0.04,-0.023,-0.035,-1.541,0.033,-0.781,87.63,103.3,40.499779,-3.376106,604.3,3,5,237.0,0.352
89.26,1,-0.065,-0.002,-0.033,-0.053,-0.013,-0.032,-1.543,0.026,-0.78,88.55,102.6,40.499645,-3.37639,604.2,3,5,236.2,0.703
89.37,1,-0.031,0.001,-0.032,-0.048,-0.002,-0.034,-1.542,0.025,-0.781,88.55,102.6,40.499645,-3.37639,604.2,3,5,236.2,0.703
89.47,1,-0.021,0.001,-0.015,-0.036,-0.003,-0.025,-1.542,0.024,-0.78,88.55,102.6,40.499645,-3.37639,604.2,3,5,236.2,0.703
89.57,1,-0.007,0.008,-0.019,-0.018,0.002,-0.024,-1.54,0.021,-0.78,88.55,102.6,40.499645,-3.37639,604.2,3,5,236.2,0.703
89.67,1,0.03,-0.001,-0.01,0.004,0.004,-0.016,-1.536,0.019,-0.781,88.55,102.6,40.499645,-3.37639,604.2,3,5,236.2,0.703
89.77,1,0.011,-0.004,-0.032,0.014,-0.005,-0.02,-1.531,0.018,-0.781,88.55,102.6,40.499645,-3.37639,604.2,3,5,236.2,0.703
89.87,1,-0.023,0.014,-0.041,-0.004,0.004,-0.035,-1.526,0.015,-0.782,88.55,102.6,40.499645,-3.37639,604.2,3,5,236.2,0.703
89.97,1,-0.034,0.013,-0.004,-0.018,0.015,-0.02,-1.528,0.011,-0.783,88.55,102.6,40.499645,-3.37639,604.2,3,5,236.2,0.703
90.07,1,-0.023,-0.0,0.011,-0.025,0.007,-0.005,-1.529,0.01,-0.783,88.55,102.6,40.499645,-3.37639,604.2,3,5,236.2,0.703
90.17,1,0.033,-0.019,-0.043,-0.006,-0.007,-0.015,-1.529,0.015,-0.783,88.55,102.6,40.499645,-3.37639,604.2,3,5,236.2,0.703
90.27,1,-0.058,0.016,-0.044,-0.008,-0.001,-0.032,-1.529,0.015,-0.783,89.55,102.1,40.499496,-3.376666,603.9,3,5,236.2,0.703
90.38,1,-0.044,0.001,-0.005,-0.048,0.005,-0.029,-1.529,0.015,-0.783,89.55,102.1,40.499496,-3.376666,603.9,3,5,236.2,0.703
90.47,1,-0.003,-0.021,-0.014,-0.028,-0.002,-0.011,-1.527,0.021,-0.782,89.55,102.1,40.499496,-3.376666,603.9,3,5,236.2,0.703
90.57,1,0.027,-0.033,-0.017,0.009,-0.025,-0.017,-1.525,0.027,-0.78,89.55,102.1,40.499496,-3.376666,603.9,3,5,236.2,0.703
90.68,1,0.018,-0.016,0.004,0.015,-0.026,-0.011,-1.523,0.03,-0.78,89.55,102.1,40.499496,-3.376666,603.9,3,5,236.2,0.703
90.77,1,-0.031,-0.021,-0.015,-0.002,-0.019,-0.009,-1.523,0.03,-0.779,89.55,102.1,40.499496,-3.376666,603.9,3,5,236.2,0.703
90.87,1,-0.03,0.006,-0.023,-0.024,-0.011,-0.019,-1.52,0.029,-0.779,89.55,102.1,40.499496,-3.376666,603.9,3,5,236.2,0.703
90.98,1,-0.006,0.015,-0.001,-0.013,0.007,-0.009,-1.518,0.027,-0.779,89.55,102.1,40.499496,-3.376666,603.9,3,5,236.2,0.703
91.08,1,-0.034,0.022,-0.025,-0.014,0.016,-0.012,-1.517,0.024,-0.78,89.55,102.1,40.499496,-3.376666,603.9,3,5,236.2,0.703
91.17,1,-0.02,0.02,0.012,-0.031,0.014,-0.011,-1.518,0.022,-0.78,89.55,102.1,40.499496,-3.376666,603.9,3,5,236.2,0.703
91.27,1,0.024,0.021,0.012,-0.007,0.02,0.008,-1.517,0.02,-0.78,90.55,100.7,40.499355,-3.376947,603.0,3,5,236.2,0.0
91.38,1,-0.029,0.017,-0.013,-0.002,0.021,-0.001,-1.515,0.019,-0.781,90.55,100.7,40.499355,-3.376947,603.0,3,5,236.2,0.0
91.47,1,-0.061,0.006,0.01,-0.036,0.012,-0.004,-1.514,0.019,-0.781,90.55,100.7,40.499355,-3.376947,603.0,3,5,236.2,0.0
91.59,1,-0.03,-0.02,0.011,-0.041,-0.002,0.009,-1.514,0.018,-0.781,90.55,100.7,40.499355,-3.376947,603.0,3,5,236.2,0.0
91.67,1,-0.002,-0.0,0.013,-0.023,-0.006,0.009,-1.514,0.018,-0.781,90.55,100.7,40.499355,-3.376947,603.0,3,5,236.2,0.0
91.77,1,0.042,0.016,0.013,0.009,0.005,0.014,-1.511,0.018,-0.781,90.55,100.7,40.499355,-3.376947,603.0,3,5,236.2,0.0
91.87,1,0.023,0.008,0.014,0.021,0.009,0.012,-1.508,0.018,-0.781,90.55,100.7,40.499355,-3.376947,603.0,3,5,236.2,0.0
91.98,1,-0.048,-0.031,-0.003,-0.002,-0.003,0.009,-1.506,0.016,-0.781,90.55,100.7,40.499355,-3.376947,603.0,3,5,236.2,0.0
92.08,1,-0.026,-0.012,0.028,-0.024,-0.016,0.01,-1.505,0.016,-0.781,90.55,100.7,40.499355,-3.376947,603.0,3,5,236.2,0.0
92.18,1,-0.006,0.006,0.016,-0.022,-0.007,0.018,-1.505,0.015,-0.781,90.55,100.7,40.499355,-3.376947,603.0,3,5,236.2,0.0
92.28,1,-0.021,-0.003,-0.007,-0.01,-0.001,0.011,-1.505,0.015,-0.781,91.54,98.9,40.499222,-3.377226,603.2,3,5,236.2,0.0
92.37,1,-0.026,-0.032,0.001,-0.023,-0.017,-0.001,-1.505,0.02,-0.78,91.54,98.9,40.499222,-3.377226,603.2,3,5,236.2,0.0
92.47,1,-0.009,-0.03,0.014,-0.019,-0.026,0.005,-1.508,0.024,-0.779,91.54,98.9,40.499222,-3.377226,603.2,3,5,236.2,0.0
92.57,1,0.009,-0.013,0.007,-0.007,-0.021,0.013,-1.507,0.023,-0.779,91.54,98.9,40.499222,-3.377226,603.2,3,5,236.2,0.0
92.68,1,-0.014,-0.007,-0.001,-0.005,-0.015,-0.0,-1.506,0.023,-0.779,91.54,98.9,40.499222,-3.377226,603.2,3,5,236.2,0.0
92.79,1,-0.018,0.002,0.01,-0.009,-0.006,0.009,-1.509,0.024,-0.779,91.54,98.9,40.499222,-3.377226,603.2,3,5,236.2,0.0
92.88,1,-0.008,0.007,0.014,-0.016,0.004,0.006,-1.512,0.025,-0.779,91.54,98.9,40.499222,-3.377226,603.2,3,5,236.2,0.0
92.98,1,-0.03,-0.016,0.004,-0.019,-0.007,0.011,-1.513,0.024,-0.778,91.54,98.9,40.499222,-3.377226,603.2,3,5,236.2,0.0
93.08,1,0.019,0.014,0.018,0.001,-0.002,0.014,-1.513,0.025,-0.778,91.54,98.9,40.499222,-3.377226,603.2,3,5,236.2,0.0
93.18,1,0.043,-0.02,0.019,0.017,-0.007,0.016,-1.51,0.025,-0.778,91.54,98.9,40.499222,-3.377226,603.2,3,5,236.2,0.0
93.28,1,-0.017,0.01,-0.009,0.012,0.001,0.003,-1.509,0.023,-0.779,92.6,97.0,40.4991,-3.377476,603.0,3,5,235.9,0.352
93.38,1,-0.08,0.037,0.009,-0.035,0.017,0.0,-1.512,0.02,-0.779,92.6,97.0,40.4991,-3.377476,603.0,3,5,235.9,0.352
93.48,1,-0.084,0.07,0.039,-0.063,0.042,0.024,-1.516,0.019,-0.781,92.6,97.0,40.4991,-3.377476,603.0,3,5,235.9,0.352
93.68,1,0.031,0.061,0.012,-0.001,0.062,0.022,-1.517,0.001,-0.787,92.6,97.0,40.4991,-3.377476,603.0,3,5,235.9,0.352
93.78,1,0.012,0.069,0.039,0.015,0.064,0.026,-1.517,-0.009,-0.79,92.6,97.0,40.4991,-3.377476,603.0,3,5,235.9,0.352
93.88,1,-0.03,0.073,0.026,-0.008,0.065,0.028,-1.52,-0.018,-0.793,92.6,97.0,40.4991,-3.377476,603.0,3,5,235.9,0.352
93.98,1,0.039,0.013,0.038,0.0,0.054,0.031,-1.521,-0.021,-0.795,92.6,97.0,40.4991,-3.377476,603.0,3,5,235.9,0.352
94.08,1,0.011,-0.024,0.01,0.021,0.013,0.029,-1.518,-0.018,-0.796,92.6,97.0,40.4991,-3.377476,603.0,3,5,235.9,0.352
94.18,1,-0.031,-0.026,0.021,-0.003,-0.018,0.018,-1.518,-0.017,-0.797,92.6,97.0,40.4991,-3.377476,603.0,3,5,235.9,0.352
94.28,1,-0.083,-0.026,0.041,-0.041,-0.024,0.027,-1.523,-0.017,-0.798,92.6,97.0,40.4991,-3.377476,603.0,3,5,235.9,0.352
94.38,1,-0.077,-0.012,0.042,-0.067,-0.018,0.035,-1.528,-0.017,-0.799,93.57,95.1,40.498962,-3.377732,602.3,4,5,235.2,1.055
94.49,1,-0.003,0.005,0.039,-0.046,-0.008,0.04,-1.531,-0.015,-0.8,93.57,95.1,40.498962,-3.377732,602.3,4,5,235.2,1.055
94.58,1,0.028,0.013,-0.002,-0.002,0.0,0.024,-1.529,-0.014,-0.801,93.57,95.1,40.498962,-3.377732,602.3,4,5,235.2,1.055
94.69,1,0.005,-0.012,0.013,0.009,0.001,0.011,-1.53,-0.012,-0.802,93.57,95.1,40.498962,-3.377732,602.3,4,5,235.2,1.055
94.78,1,-0.008,-0.008,0.028,-0.001,-0.002,0.02,-1.534,-0.011,-0.803,93.57,95.1,40.498962,-3.377732,602.3,4,5,235.2,1.055
94.88,1,-0.009,-0.031,0.023,-0.003,-0.011,0.026,-1.534,-0.01,-0.804,93.57,95.1,40.498962,-3.377732,602.3,4,5,235.2,1.055
94.98,1,0.005,-0.009,0.009,-0.004,-0.019,0.017,-1.535,-0.01,-0.805,93.57,95.1,40.498962,-3.377732,602.3,4,5,235.2,1.055
95.08,1,-0.027,-0.016,0.025,-0.01,-0.017,0.017,-1.538,-0.006,-0.806,93.57,95.1,40.498962,-3.377732,602.3,4,5,235.2,1.055
95.19,1,-0.035,0.002,0.006,-0.024,-0.01,0.016,-1.542,-0.004,-0.807,93.57,95.1,40.498962,-3.377732,602.3,4,5,235.2,1.055
95.28,1,-0.048,-0.01,0.019,-0.037,-0.009,0.015,-1.542,-0.004,-0.808,93.57,95.1,40.498962,-3.377732,602.3,4,5,235.2,1.055
95.38,1,-0.038,-0.025,0.01,-0.04,-0.012,0.013,-1.542,-0.004,-0.808,94.56,95.2,40.498825,-3.377988,602.4,4,5,236.6,1.406
95.48,1,0.01,-0.037,0.008,-0.02,-0.025,0.013,-1.545,-0.0,-0.808,94.56,95.2,40.498825,-3.377988,602.4,4,5,236.6,1.406
95.58,1,0.017,-0.014,-0.01,0.007,-0.023,0.001,-1.545,0.004,-0.807,94.56,95.2,40.498825,-3.377988,602.4,4,5,236.6,1.406
95.69,1,-0.004,-0.031,0.015,0.002,-0.026,0.004,-1.545,0.007,-0.807,94.56,95.2,40.498825,-3.377988,602.4,4,5,236.6,1.406
95.78,1,-0.025,-0.036,0.029,-0.013,-0.03,0.016,-1.546,0.009,-0.807,94.56,95.2,40.498825,-3.377988,602.4,4,5,236.6,1.406
95.89,1,0.004,-0.038,0.029,-0.01,-0.034,0.024,-1.548,0.015,-0.806,94.56,95.2,40.498825,-3.377988,602.4,4,5,236.6,1.406
95.98,1,0.002,-0.042,-0.001,0.001,-0.041,0.018,-1.547,0.021,-0.804,94.56,95.2,40.498825,-3.377988,602.4,4,5,236.6,1.406
96.08,1,0.011,-0.041,-0.013,0.003,-0.041,-0.002,-1.546,0.023,-0.803,94.56,95.2,40.498825,-3.377988,602.4,4,5,236.6,1.406
96.19,1,-0.007,-0.031,0.026,0.003,-0.038,0.007,-1.547,0.023,-0.802,94.56,95.2,40.498825,-3.377988,602.4,4,5,236.6,1.406
96.3,1,0.007,-0.017,-0.002,-0.001,-0.026,0.007,-1.549,0.027,-0.8,94.56,95.2,40.498825,-3.377988,602.4,4,5,236.6,1.406
96.4,1,-0.0,-0.008,-0.006,0.002,-0.015,-0.0,-1.549,0.03,-0.799,95.56,95.3,40.498695,-3.378249,602.1,4,5,236.6,1.406
96.49,1,-0.004,-0.011,0.008,0.003,-0.013,0.005,-1.547,0.029,-0.799,95.56,95.3,40.498695,-3.378249,602.1,4,5,236.6,1.406
96.59,1,0.02,-0.013,0.003,0.005,-0.017,0.004,-1.548,0.028,-0.799,95.56,95.3,40.498695,-3.378249,602.1,4,5,236.6,1.406
96.69,1,-0.02,-0.004,0.006,-0.003,-0.005,0.003,-1.55,0.028,-0.799,95.56,95.3,40.498695,-3.378249,602.1,4,5,236.6,1.406
96.79,1,-0.025,-0.001,0.016,-0.012,-0.004,0.01,-1.551,0.026,-0.799,95.56,95.3,40.498695,-3.378249,602.1,4,5,236.6,1.406
96.89,1,-0.01,-0.003,0.023,-0.015,-0.005,0.016,-1.55,0.024,-0.799,95.56,95.3,40.498695,-3.378249,602.1,4,5,236.6,1.406
96.99,1,-0.012,-0.011,0.004,-0.016,-0.005,0.011,-1.55,0.025,-0.799,95.56,95.3,40.498695,-3.378249,602.1,4,5,236.6,1.406
97.1,1,-0.021,-0.001,-0.0,-0.012,-0.005,0.007,-1.55,0.026,-0.799,95.56,95.3,40.498695,-3.378249,602.1,4,5,236.6,1.406
97.19,1,-0.038,-0.002,0.003,-0.024,-0.004,0.003,-1.551,0.024,-0.8,95.56,95.3,40.498695,-3.378249,602.1,4,5,236.6,1.406
97.29,1,-0.029,-0.003,0.01,-0.033,-0.003,0.007,-1.555,0.022,-0.8,95.56,95.3,40.498695,-3.378249,602.1,4,5,236.6,1.406
97.39,1,-0.006,0.001,0.001,-0.026,0.002,0.003,-1.555,0.023,-0.8,96.59,95.1,40.498566,-3.37852,601.6,4,5,237.7,1.055
97.49,1,0.003,-0.002,-0.011,-0.0,-0.001,0.001,-1.555,0.027,-0.799,96.59,95.1,40.498566,-3.37852,601.6,4,5,237.7,1.055
97.59,1,-0.008,-0.035,-0.013,-0.005,-0.022,-0.012,-1.552,0.03,-0.799,96.59,95.1,40.498566,-3.37852,601.6,4,5,237.7,1.055
97.7,1,-0.001,-0.017,0.015,-0.011,-0.02,0.001,-1.553,0.029,-0.798,96.59,95.1,40.498566,-3.37852,601.6,4,5,237.7,1.055
97.8,1,0.024,0.028,0.025,0.009,0.001,0.014,-1.551,0.027,-0.798,96.59,95.1,40.498566,-3.37852,601.6,4,5,237.7,1.055
97.89,1,0.004,-0.001,-0.013,0.014,0.007,0.006,-1.548,0.026,-0.797,96.59,95.1,40.498566,-3.37852,601.6,4,5,237.7,1.055
97.99,1,0.012,-0.012,0.024,0.01,0.003,0.004,-1.549,0.027,-0.797,96.59,95.1,40.498566,-3.37852,601.6,4,5,237.7,1.055
98.09,1,-0.031,-0.028,0.001,-0.005,-0.017,0.013,-1.548,0.028,-0.797,96.59,95.1,40.498566,-3.37852,601.6,4,5,237.7,1.055
98.19,1,-0.023,0.008,-0.004,-0.022,-0.012,0.002,-1.55,0.027,-0.797,96.59,95.1,40.498566,-3.37852,601.6,4,5,237.7,1.055
98.29,1,-0.016,0.043,-0.0,-0.015,0.013,0.001,-1.553,0.026,-0.798,96.59,95.1,40.498566,-3.37852,601.6,4,5,237.7,1.055
98.4,1,0.008,0.031,-0.011,-0.011,0.031,-0.008,-1.551,0.021,-0.799,97.56,94.5,40.498432,-3.378788,601.3,3,5,236.2,1.406
98.49,1,0.006,0.018,-0.013,0.004,0.028,-0.007,-1.551,0.016,-0.8,97.56,94.5,40.498432,-3.378788,601.3,3,5,236.2,1.406
98.59,1,-0.027,-0.02,0.004,-0.008,-0.001,-0.007,-1.552,0.016,-0.8,97.56,94.5,40.498432,-3.378788,601.3,3,5,236.2,1.406
98.69,1,0.01,-0.012,0.02,-0.012,-0.008,0.009,-1.554,0.016,-0.8,97.56,94.5,40.498432,-3.378788,601.3,3,5,236.2,1.406
98.79,1,0.012,0.026,-0.01,0.009,0.006,0.003,-1.553,0.012,-0.801,97.56,94.5,40.498432,-3.378788,601.3,3,5,236.2,1.406
98.89,1,-0.023,-0.016,-0.0,-0.001,0.004,-0.004,-1.554,0.014,-0.801,97.56,94.5,40.498432,-3.378788,601.3,3,5,236.2,1.406
99.0,1,-0.047,-0.008,-0.001,-0.026,-0.008,0.001,-1.554,0.016,-0.802,97.56,94.5,40.498432,-3.378788,601.3,3,5,236.2,1.406
99.09,1,-0.019,-0.042,0.011,-0.031,-0.021,0.003,-1.553,0.014,-0.802,97.56,94.5,40.498432,-3.378788,601.3,3,5,236.2,1.406
99.19,1,0.035,-0.024,0.003,-0.004,-0.024,0.006,-1.553,0.015,-0.802,97.56,94.5,40.498432,-3.378788,601.3,3,5,236.2,1.406
99.29,1,-0.009,-0.018,-0.003,0.011,-0.023,0.001,-1.55,0.015,-0.801,97.56,94.5,40.498432,-3.378788,601.3,3,5,236.2,1.406
99.4,1,-0.043,-0.03,0.011,-0.016,-0.025,0.004,-1.552,0.017,-0.801,98.59,94.1,40.498299,-3.379053,601.1,3,5,236.2,1.406
99.51,1,-0.023,-0.032,0.004,-0.03,-0.029,0.004,-1.555,0.019,-0.8,98.59,94.1,40.498299,-3.379053,601.1,3,5,236.2,1.406
99.59,1,-0.009,-0.011,0.025,-0.02,-0.023,0.016,-1.554,0.021,-0.799,98.59,94.1,40.498299,-3.379053,601.1,3,5,236.2,1.406
99.7,1,0.05,-0.021,0.036,0.014,-0.019,0.024,-1.555,0.024,-0.799,98.59,94.1,40.498299,-3.379053,601.1,3,5,236.2,1.406
99.8,1,0.023,-0.021,-0.011,0.026,-0.018,0.014,-1.554,0.026,-0.799,98.59,94.1,40.498299,-3.379053,601.1,3,5,236.2,1.406
99.9,1,-0.01,0.004,-0.013,0.009,-0.013,-0.003,-1.551,0.024,-0.799,98.59,94.1,40.498299,-3.379053,601.1,3,5,236.2,1.406
100.01,1,-0.053,0.024,0.016,-0.02,0.006,0.001,-1.552,0.019,-0.801,98.59,94.1,40.498299,-3.379053,601.1,3,5,236.2,1.406
100.1,1,-0.03,0.038,0.015,-0.037,0.025,0.012,-1.554,0.015,-0.802,98.59,94.1,40.498299,-3.379053,601.1,3,5,236.2,1.406
100.21,1,0.008,0.031,0.022,-0.013,0.032,0.016,-1.554,0.013,-0.803,98.59,94.1,40.498299,-3.379053,601.1,3,5,236.2,1.406
100.3,1,0.003,0.018,-0.011,-0.001,0.025,0.009,-1.554,0.014,-0.803,98.59,94.1,40.498299,-3.379053,601.1,3,5,236.2,1.406
100.4,1,-0.039,-0.026,-0.011,-0.013,0.006,-0.005,-1.555,0.015,-0.804,99.64,94.2,40.498161,-3.379315,601.6,3,5,236.2,0.0
100.5,1,-0.018,0.019,0.02,-0.024,0.004,0.005,-1.554,0.014,-0.804,99.64,94.2,40.498161,-3.379315,601.6,3,5,236.2,0.0
100.6,1,0.003,-0.003,0.011,-0.012,0.003,0.01,-1.555,0.016,-0.804,99.64,94.2,40.498161,-3.379315,601.6,3,5,236.2,0.0
100.7,1,0.016,-0.024,-0.006,0.003,-0.009,0.002,-1.556,0.021,-0.804,99.64,94.2,40.498161,-3.379315,601.6,3,5,236.2,0.0
100.81,1,-0.0,-0.017,-0.009,0.002,-0.016,-0.006,-1.554,0.023,-0.803,99.64,94.2,40.498161,-3.379315,601.6,3,5,236.2,0.0
100.91,1,-0.032,-0.013,0.003,-0.01,-0.017,0.0,-1.556,0.023,-0.804,99.64,94.2,40.498161,-3.379315,601.6,3,5,236.2,0.0
101.0,1,-0.008,0.007,0.011,-0.013,-0.008,0.005,-1.556,0.022,-0.804,99.64,94.2,40.498161,-3.379315,601.6,3,5,236.2,0.0
101.1,1,0.011,0.044,-0.002,-0.003,0.018,0.005,-1.556,0.02,-0.805,99.64,94.2,40.498161,-3.379315,601.6,3,5,236.2,0.0
101.2,1,0.008,0.01,-0.005,0.003,0.02,-0.002,-1.556,0.021,-0.806,99.64,94.2,40.498161,-3.379315,601.6,3,5,236.2,0.0
101.3,1,-0.01,-0.032,0.018,0.001,-0.0,0.001,-1.555,0.021,-0.806,99.64,94.2,40.498161,-3.379315,601.6,3,5,236.2,0.0
101.4,1,-0.026,-0.022,-0.008,-0.01,-0.014,0.001,-1.558,0.021,-0.806,100.57,94.2,40.498035,-3.379574,601.2,3,5,236.2,0.0
101.5,1,-0.005,0.013,0.023,-0.018,-0.008,0.014,-1.558,0.016,-0.806,100.57,94.2,40.498035,-3.379574,601.2,3,5,236.2,0.0
101.6,1,-0.006,0.014,0.003,-0.003,0.006,0.009,-1.558,0.013,-0.807,100.57,94.2,40.498035,-3.379574,601.2,3,5,236.2,0.0
101.7,1,-0.024,-0.009,-0.006,-0.016,0.006,0.001,-1.557,0.014,-0.806,100.57,94.2,40.498035,-3.379574,601.2,3,5,236.2,0.0
101.8,1,-0.04,-0.017,0.004,-0.023,-0.009,0.002,-1.556,0.017,-0.806,100.57,94.2,40.498035,-3.379574,601.2,3,5,236.2,0.0
101.9,1,-0.023,-0.001,0.019,-0.024,-0.01,0.008,-1.558,0.018,-0.806,100.57,94.2,40.498035,-3.379574,601.2,3,5,236.2,0.0
102.0,1,0.004,-0.022,0.005,-0.021,-0.011,0.01,-1.558,0.023,-0.806,100.57,94.2,40.498035,-3.379574,601.2,3,5,236.2,0.0
102.1,1,0.012,-0.032,0.006,0.001,-0.022,0.007,-1.56,0.027,-0.805,100.57,94.2,40.498035,-3.379574,601.2,3,5,236.2,0.0
102.2,1,-0.014,-0.054,-0.008,-0.007,-0.036,0.003,-1.559,0.03,-0.803,100.57,94.2,40.498035,-3.379574,601.2,3,5,236.2,0.0
102.3,1,-0.036,-0.037,0.034,-0.02,-0.043,0.01,-1.56,0.034,-0.801,100.57,94.2,40.498035,-3.379574,601.2,3,5,236.2,0.0
102.4,1,0.007,-0.033,0.02,-0.012,-0.04,0.019,-1.563,0.037,-0.8,101.59,93.1,40.497894,-3.379833,600.7,3,5,236.2,0.0
102.5,1,0.01,-0.026,-0.003,-0.002,-0.028,0.012,-1.561,0.039,-0.799,101.59,93.1,40.497894,-3.379833,600.7,3,5,236.2,0.0
102.62,1,-0.012,-0.019,0.003,0.002,-0.027,0.008,-1.559,0.039,-0.798,101.59,93.1,40.497894,-3.379833,600.7,3,5,236.2,0.0
102.71,1,0.005,-0.009,0.028,0.005,-0.017,0.009,-1.561,0.038,-0.798,101.59,93.1,40.497894,-3.379833,600.7,3,5,236.2,0.0
102.8,1,-0.047,0.009,0.001,-0.023,-0.005,0.012,-1.563,0.035,-0.798,101.59,93.1,40.497894,-3.379833,600.7,3,5,236.2,0.0
102.9,1,-0.049,0.018,0.013,-0.037,0.006,0.007,-1.562,0.031,-0.798,101.59,93.1,40.497894,-3.379833,600.7,3,5,236.2,0.0
103.0,1,-0.009,0.011,0.037,-0.024,0.007,0.024,-1.564,0.029,-0.797,101.59,93.1,40.497894,-3.379833,600.7,3,5,236.2,0.0
103.1,1,0.015,-0.014,-0.002,-0.008,0.003,0.018,-1.563,0.032,-0.797,101.59,93.1,40.497894,-3.379833,600.7,3,5,236.2,0.0
103.2,1,-0.016,0.009,0.004,-0.009,0.001,0.005,-1.564,0.031,-0.797,101.59,93.1,40.497894,-3.379833,600.7,3,5,236.2,0.0
103.32,1,-0.018,0.01,0.014,-0.015,0.007,0.01,-1.566,0.029,-0.797,101.59,93.1,40.497894,-3.379833,600.7,3,5,236.2,0.0
103.4,1,-0.001,0.007,-0.012,-0.008,0.012,0.004,-1.566,0.029,-0.797,102.61,94.1,40.497761,-3.38009,600.8,3,5,236.2,0.0
103.51,1,0.011,0.008,0.006,0.002,0.008,0.003,-1.564,0.03,-0.797,102.61,94.1,40.497761,-3.38009,600.8,3,5,236.2,0.0
103.71,1,-0.014,0.024,0.014,-0.013,0.017,0.006,-1.565,0.026,-0.798,102.61,94.1,40.497761,-3.38009,600.8,3,5,236.2,0.0
103.81,1,-0.004,0.021,0.002,-0.008,0.021,0.007,-1.565,0.023,-0.799,102.61,94.1,40.497761,-3.38009,600.8,3,5,236.2,0.0
103.91,1,0.02,0.021,-0.008,0.012,0.023,-0.002,-1.565,0.022,-0.799,102.61,94.1,40.497761,-3.38009,600.8,3,5,236.2,0.0
104.01,1,-0.043,0.014,0.006,-0.013,0.015,-0.0,-1.566,0.023,-0.8,102.61,94.1,40.497761,-3.38009,600.8,3,5,236.2,0.0
104.11,1,-0.042,0.017,0.028,-0.029,0.017,0.015,-1.568,0.022,-0.801,102.61,94.1,40.497761,-3.38009,600.8,3,5,236.2,0.0
104.21,1,-0.038,0.024,0.032,-0.039,0.019,0.023,-1.57,0.017,-0.802,102.61,94.1,40.497761,-3.38009,600.8,3,5,236.2,0.0
104.31,1,0.011,0.016,0.046,-0.018,0.019,0.032,-1.574,0.014,-0.803,102.61,94.1,40.497761,-3.38009,600.8,3,5,236.2,0.0
104.41,1,0.008,0.031,0.012,-0.003,0.027,0.029,-1.577,0.014,-0.804,102.61,94.1,40.497761,-3.38009,600.8,3,5,236.2,0.0
104.51,1,-0.004,0.007,0.03,0.0,0.018,0.027,-1.578,0.012,-0.805,103.56,93.9,40.497627,-3.380344,601.9,3,5,235.5,0.703
104.61,1,-0.022,0.022,0.024,-0.003,0.02,0.028,-1.581,0.012,-0.805,103.56,93.9,40.497627,-3.380344,601.9,3,5,235.5,0.703
104.71,1,-0.004,0.001,0.024,-0.014,0.011,0.022,-1.584,0.013,-0.806,103.56,93.9,40.497627,-3.380344,601.9,3,5,235.5,0.703
104.81,1,0.002,0.001,0.042,-0.008,0.006,0.027,-1.588,0.014,-0.806,103.56,93.9,40.497627,-3.380344,601.9,3,5,235.5,0.703
104.92,1,0.001,0.008,0.024,0.002,0.001,0.033,-1.588,0.012,-0.807,103.56,93.9,40.497627,-3.380344,601.9,3,5,235.5,0.703
105.01,1,-0.01,-0.001,0.026,0.003,-0.003,0.028,-1.59,0.011,-0.807,103.56,93.9,40.497627,-3.380344,601.9,3,5,235.5,0.703
105.12,1,-0.015,-0.004,0.025,-0.013,0.003,0.026,-1.593,0.009,-0.808,103.56,93.9,40.497627,-3.380344,601.9,3,5,235.5,0.703
105.21,1,-0.012,0.004,0.013,-0.012,0.001,0.022,-1.597,0.011,-0.808,103.56,93.9,40.497627,-3.380344,601.9,3,5,235.5,0.703
105.31,1,-0.009,0.009,0.01,-0.009,0.006,0.015,-1.6,0.013,-0.809,103.56,93.9,40.497627,-3.380344,601.9,3,5,235.5,0.703
105.42,1,-0.015,0.006,0.021,-0.016,0.005,0.013,-1.6,0.013,-0.809,103.56,93.9,40.497627,-3.380344,601.9,3,5,235.5,0.703
105.51,1,-0.036,0.001,0.027,-0.026,0.004,0.023,-1.602,0.012,-0.81,104.54,94.1,40.497494,-3.3806,600.8,3,5,235.9,0.352
105.61,1,-0.027,-0.008,0.034,-0.025,-0.002,0.026,-1.603,0.009,-0.81,104.54,94.1,40.497494,-3.3806,600.8,3,5,235.9,0.352
105.72,1,-0.005,-0.001,0.02,-0.019,-0.001,0.028,-1.605,0.007,-0.811,104.54,94.1,40.497494,-3.3806,600.8,3,5,235.9,0.352
105.81,1,-0.018,0.016,0.025,-0.012,0.005,0.024,-1.607,0.005,-0.812,104.54,94.1,40.497494,-3.3806,600.8,3,5,235.9,0.352
105.91,1,-0.018,0.002,0.026,-0.017,0.007,0.027,-1.609,0.004,-0.813,104.54,94.1,40.497494,-3.3806,600.8,3,5,235.9,0.352
106.01,1,-0.021,-0.008,0.038,-0.019,-0.001,0.028,-1.612,0.005,-0.813,104.54,94.1,40.497494,-3.3806,600.8,3,5,235.9,0.352
106.11,1,-0.025,-0.013,0.035,-0.021,-0.008,0.036,-1.615,0.008,-0.813,104.54,94.1,40.497494,-3.3806,600.8,3,5,235.9,0.352
106.21,1,-0.038,-0.026,0.053,-0.026,-0.017,0.042,-1.621,0.013,-0.812,104.54,94.1,40.497494,-3.3806,600.8,3,5,235.9,0.352
106.32,1,0.011,-0.017,0.05,-0.016,-0.019,0.047,-1.624,0.015,-0.811,104.54,94.1,40.497494,-3.3806,600.8,3,5,235.9,0.352
106.42,1,0.032,-0.021,0.021,0.009,-0.02,0.036,-1.624,0.018,-0.811,104.54,94.1,40.497494,-3.3806,600.8,3,5,235.9,0.352
106.51,1,-0.004,-0.013,0.046,0.004,-0.018,0.035,-1.626,0.019,-0.811,105.55,95.7,40.497356,-3.38086,600.4,3,5,236.2,0.703
106.61,1,-0.035,-0.012,0.038,-0.008,-0.014,0.042,-1.628,0.017,-0.811,105.55,95.7,40.497356,-3.38086,600.4,3,5,236.2,0.703
106.71,1,-0.023,0.022,0.042,-0.021,0.004,0.042,-1.63,0.016,-0.811,105.55,95.7,40.497356,-3.38086,600.4,3,5,236.2,0.703
106.82,1,0.026,0.021,0.02,-0.004,0.013,0.031,-1.633,0.016,-0.811,105.55,95.7,40.497356,-3.38086,600.4,3,5,236.2,0.703
106.92,1,0.007,0.021,0.021,0.006,0.017,0.023,-1.636,0.016,-0.812,105.55,95.7,40.497356,-3.38086,600.4,3,5,236.2,0.703
107.02,1,0.003,0.004,0.015,0.005,0.013,0.023,-1.636,0.014,-0.812,105.55,95.7,40.497356,-3.38086,600.4,3,5,236.2,0.703
107.12,1,-0.014,0.01,0.016,0.001,0.012,0.017,-1.637,0.012,-0.813,105.55,95.7,40.497356,-3.38086,600.4,3,5,236.2,0.703
107.22,1,-0.069,-0.002,0.001,-0.032,0.007,0.01,-1.638,0.012,-0.813,105.55,95.7,40.497356,-3.38086,600.4,3,5,236.2,0.703
107.32,1,-0.038,-0.004,0.029,-0.047,-0.0,0.011,-1.641,0.012,-0.813,105.55,95.7,40.497356,-3.38086,600.4,3,5,236.2,0.703
107.43,1,-0.017,-0.032,-0.003,-0.032,-0.011,0.013,-1.641,0.014,-0.813,105.55,95.7,40.497356,-3.38086,600.4,3,5,236.2,0.703
107.52,1,0.01,-0.011,0.007,-0.018,-0.017,0.005,-1.642,0.016,-0.813,106.56,99.0,40.497223,-3.381131,600.5,3,5,236.2,0.352
107.63,1,0.025,0.006,0.025,0.01,-0.01,0.016,-1.642,0.018,-0.813,106.56,99.0,40.497223,-3.381131,600.5,3,5,236.2,0.352
107.72,1,0.007,-0.016,-0.007,0.018,-0.006,0.008,-1.642,0.018,-0.813,106.56,99.0,40.497223,-3.381131,600.5,3,5,236.2,0.352
107.82,1,-0.057,-0.014,-0.01,-0.018,-0.007,-0.001,-1.64,0.02,-0.812,106.56,99.0,40.497223,-3.381131,600.5,3,5,236.2,0.352
107.92,1,-0.028,-0.017,-0.002,-0.031,-0.014,-0.001,-1.64,0.021,-0.811,106.56,99.0,40.497223,-3.381131,600.5,3,5,236.2,0.352
108.02,1,-0.02,-0.015,0.002,-0.026,-0.021,-0.005,-1.641,0.022,-0.811,106.56,99.0,40.497223,-3.381131,600.5,3,5,236.2,0.352
108.12,1,-0.036,-0.014,-0.015,-0.026,-0.019,-0.005,-1.64,0.023,-0.811,106.56,99.0,40.497223,-3.381131,600.5,3,5,236.2,0.352
108.22,1,-0.009,0.021,-0.004,-0.022,-0.002,-0.011,-1.64,0.022,-0.812,106.56,99.0,40.497223,-3.381131,600.5,3,5,236.2,0.352
108.32,1,0.023,0.034,0.006,-0.005,0.02,-0.002,-1.642,0.019,-0.813,106.56,99.0,40.497223,-3.381131,600.5,3,5,236.2,0.352
108.42,1,-0.02,0.043,-0.03,-0.001,0.035,-0.008,-1.641,0.017,-0.815,106.56,99.0,40.497223,-3.381131,600.5,3,5,236.2,0.352
108.52,1,-0.054,0.032,-0.003,-0.029,0.038,-0.013,-1.64,0.014,-0.816,107.58,102.7,40.497078,-3.381407,600.9,4,5,236.2,0.0
108.62,1,-0.025,0.025,0.024,-0.034,0.026,0.005,-1.641,0.012,-0.817,107.58,102.7,40.497078,-3.381407,600.9,4,5,236.2,0.0
108.72,1,-0.0,0.027,0.009,-0.022,0.026,0.011,-1.641,0.013,-0.817,107.58,102.7,40.497078,-3.381407,600.9,4,5,236.2,0.0
108.83,1,-0.009,-0.037,-0.004,-0.004,0.004,0.006,-1.641,0.013,-0.817,107.58,102.7,40.497078,-3.381407,600.9,4,5,236.2,0.0
108.92,1,-0.044,0.01,0.032,-0.028,0.004,0.011,-1.641,0.014,-0.817,107.58,102.7,40.497078,-3.381407,600.9,4,5,236.2,0.0
109.02,1,-0.036,-0.031,0.031,-0.031,-0.017,0.026,-1.642,0.015,-0.816,107.58,102.7,40.497078,-3.381407,600.9,4,5,236.2,0.0
109.12,1,-0.022,-0.047,0.024,-0.024,-0.034,0.027,-1.642,0.015,-0.815,107.58,102.7,40.497078,-3.381407,600.9,4,5,236.2,0.0
109.22,1,-0.013,-0.036,0.015,-0.021,-0.038,0.022,-1.644,0.017,-0.815,107.58,102.7,40.497078,-3.381407,600.9,4,5,236.2,0.0
109.32,1,-0.029,-0.035,0.043,-0.027,-0.037,0.026,-1.649,0.019,-0.814,107.58,102.7,40.497078,-3.381407,600.9,4,5,236.2,0.0
109.43,1,-0.042,-0.052,0.046,-0.033,-0.04,0.041,-1.653,0.02,-0.814,107.58,102.7,40.497078,-3.381407,600.9,4,5,236.2,0.0
109.52,1,0.02,-0.015,0.039,-0.01,-0.034,0.04,-1.655,0.017,-0.814,108.55,104.5,40.496933,-3.381691,601.3,4,5,235.9,0.352
109.62,1,0.054,0.042,0.023,0.024,0.001,0.033,-1.654,0.013,-0.814,108.55,104.5,40.496933,-3.381691,601.3,4,5,235.9,0.352
109.72,1,-0.043,-0.019,-0.039,0.003,0.004,0.002,-1.653,0.014,-0.814,108.55,104.5,40.496933,-3.381691,601.3,4,5,235.9,0.352
109.84,1,-0.119,-0.008,0.013,-0.058,-0.013,-0.005,-1.657,0.013,-0.814,108.55,104.5,40.496933,-3.381691,601.3,4,5,235.9,0.352
109.92,1,-0.032,0.05,0.0,-0.068,0.016,0.006,-1.658,0.008,-0.815,108.55,104.5,40.496933,-3.381691,601.3,4,5,235.9,0.352
110.03,1,-0.009,0.011,-0.046,-0.027,0.029,-0.02,-1.656,0.004,-0.816,108.55,104.5,40.496933,-3.381691,601.3,4,5,235.9,0.352
110.12,1,0.015,-0.01,-0.021,-0.007,0.005,-0.022,-1.656,0.007,-0.816,108.55,104.5,40.496933,-3.381691,601.3,4,5,235.9,0.352
110.22,1,0.005,0.016,-0.034,0.001,0.006,-0.028,-1.652,0.005,-0.817,108.55,104.5,40.496933,-3.381691,601.3,4,5,235.9,0.352
110.32,1,-0.007,-0.017,-0.046,-0.001,0.0,-0.037,-1.648,0.001,-0.818,108.55,104.5,40.496933,-3.381691,601.3,4,5,235.9,0.352
110.42,1,0.01,-0.023,-0.062,0.006,-0.014,-0.047,-1.643,0.001,-0.818,108.55,104.5,40.496933,-3.381691,601.3,4,5,235.9,0.352
110.53,1,-0.044,-0.049,-0.073,-0.01,-0.028,-0.063,-1.636,0.003,-0.817,109.67,107.7,40.49678,-3.381985,601.3,3,5,236.2,0.352
110.64,1,-0.039,-0.029,-0.068,-0.039,-0.035,-0.07,-1.63,0.003,-0.816,109.67,107.7,40.49678,-3.381985,601.3,3,5,236.2,0.352
110.74,1,-0.0,-0.03,-0.062,-0.025,-0.032,-0.066,-1.623,0.006,-0.815,109.67,107.7,40.49678,-3.381985,601.3,3,5,236.2,0.352
110.83,1,0.006,-0.028,-0.069,-0.003,-0.03,-0.065,-1.617,0.009,-0.814,109.67,107.7,40.49678,-3.381985,601.3,3,5,236.2,0.352
110.93,1,-0.016,-0.037,-0.091,-0.004,-0.03,-0.076,-1.608,0.012,-0.813,109.67,107.7,40.49678,-3.381985,601.3,3,5,236.2,0.352
111.03,1,-0.056,-0.035,-0.074,-0.034,-0.035,-0.083,-1.602,0.018,-0.812,109.67,107.7,40.49678,-3.381985,601.3,3,5,236.2,0.352
111.13,1,-0.067,-0.033,-0.052,-0.05,-0.035,-0.058,-1.6,0.021,-0.812,109.67,107.7,40.49678,-3.381985,601.3,3,5,236.2,0.352
111.23,1,-0.004,-0.024,-0.07,-0.032,-0.031,-0.066,-1.594,0.021,-0.813,109.67,107.7,40.49678,-3.381985,601.3,3,5,236.2,0.352
111.33,1,0.011,0.031,-0.073,-0.008,-0.007,-0.073,-1.588,0.02,-0.813,109.67,107.7,40.49678,-3.381985,601.3,3,5,236.2,0.352
111.43,1,-0.004,0.006,-0.072,-0.006,0.014,-0.072,-1.582,0.018,-0.813,109.67,107.7,40.49678,-3.381985,601.3,3,5,236.2,0.352
111.53,1,0.032,-0.014,-0.046,0.009,0.002,-0.063,-1.577,0.023,-0.813,110.57,110.6,40.496635,-3.38228,601.3,3,5,236.2,0.352
111.63,1,0.042,-0.017,-0.063,0.027,-0.01,-0.055,-1.575,0.024,-0.813,110.57,110.6,40.496635,-3.38228,601.3,3,5,236.2,0.352
111.74,1,0.024,-0.009,-0.078,0.035,-0.014,-0.065,-1.574,0.024,-0.812,110.57,110.6,40.496635,-3.38228,601.3,3,5,236.2,0.352
111.83,1,-0.009,-0.027,-0.063,0.012,-0.019,-0.073,-1.571,0.025,-0.812,110.57,110.6,40.496635,-3.38228,601.3,3,5,236.2,0.352
111.94,1,-0.036,0.026,-0.048,-0.015,-0.006,-0.058,-1.568,0.025,-0.812,110.57,110.6,40.496635,-3.38228,601.3,3,5,236.2,0.352
112.03,1,-0.031,0.023,-0.047,-0.027,0.017,-0.049,-1.564,0.023,-0.813,110.57,110.6,40.496635,-3.38228,601.3,3,5,236.2,0.352
112.13,1,-0.011,0.025,-0.045,-0.02,0.025,-0.052,-1.56,0.02,-0.814,110.57,110.6,40.496635,-3.38228,601.3,3,5,236.2,0.352
112.23,1,0.014,0.013,-0.017,0.0,0.015,-0.033,-1.557,0.018,-0.814,110.57,110.6,40.496635,-3.38228,601.3,3,5,236.2,0.352
112.34,1,0.037,0.021,-0.032,0.021,0.017,-0.027,-1.553,0.015,-0.815,110.57,110.6,40.496635,-3.38228,601.3,3,5,236.2,0.352
112.43,1,-0.025,0.022,-0.043,0.003,0.019,-0.043,-1.548,0.012,-0.816,110.57,110.6,40.496635,-3.38228,601.3,3,5,236.2,0.352
112.53,1,-0.076,0.002,-0.038,-0.035,0.014,-0.034,-1.547,0.009,-0.816,111.65,110.3,40.496479,-3.382581,601.6,3,5,235.5,0.703
112.63,1,-0.052,-0.011,-0.034,-0.055,0.003,-0.037,-1.546,0.008,-0.817,111.65,110.3,40.496479,-3.382581,601.6,3,5,235.5,0.703
112.73,1,-0.018,-0.015,-0.033,-0.04,-0.009,-0.031,-1.546,0.012,-0.816,111.65,110.3,40.496479,-3.382581,601.6,3,5,235.5,0.703
112.83,1,-0.047,-0.035,-0.03,-0.039,-0.021,-0.033,-1.542,0.015,-0.815,111.65,110.3,40.496479,-3.382581,601.6,3,5,235.5,0.703
112.94,1,0.016,-0.035,-0.017,-0.019,-0.027,-0.03,-1.539,0.02,-0.814,111.65,110.3,40.496479,-3.382581,601.6,3,5,235.5,0.703
113.03,1,0.019,-0.043,-0.006,0.009,-0.038,-0.012,-1.538,0.024,-0.813,111.65,110.3,40.496479,-3.382581,601.6,3,5,235.5,0.703
113.14,1,-0.007,-0.018,-0.034,0.007,-0.034,-0.022,-1.535,0.028,-0.812,111.65,110.3,40.496479,-3.382581,601.6,3,5,235.5,0.703
113.23,1,-0.05,-0.02,-0.016,-0.017,-0.024,-0.021,-1.535,0.028,-0.812,111.65,110.3,40.496479,-3.382581,601.6,3,5,235.5,0.703
113.33,1,-0.065,-0.008,-0.016,-0.047,-0.018,-0.02,-1.536,0.028,-0.811,111.65,110.3,40.496479,-3.382581,601.6,3,5,235.5,0.703
113.43,1,-0.028,0.002,-0.019,-0.047,-0.003,-0.014,-1.536,0.028,-0.811,111.65,110.3,40.496479,-3.382581,601.6,3,5,235.5,0.703
113.54,1,0.012,0.001,-0.025,-0.015,0.001,-0.024,-1.535,0.029,-0.811,112.54,108.5,40.496323,-3.382877,601.0,3,5,235.5,0.703
113.73,1,-0.032,0.016,-0.024,-0.007,-0.003,-0.021,-1.531,0.031,-0.811,112.54,108.5,40.496323,-3.382877,601.0,3,5,235.5,0.703
113.84,1,-0.054,0.008,-0.01,-0.031,0.003,-0.018,-1.531,0.03,-0.81,112.54,108.5,40.496323,-3.382877,601.0,3,5,235.5,0.703
113.94,1,0.02,-0.015,-0.011,-0.017,-0.003,-0.012,-1.531,0.03,-0.81,112.54,108.5,40.496323,-3.382877,601.0,3,5,235.5,0.703
114.04,1,0.002,0.006,-0.022,-0.002,0.001,-0.018,-1.528,0.029,-0.81,112.54,108.5,40.496323,-3.382877,601.0,3,5,235.5,0.703
114.14,1,-0.021,-0.006,0.001,-0.011,0.001,-0.01,-1.529,0.03,-0.809,112.54,108.5,40.496323,-3.382877,601.0,3,5,235.5,0.703
114.24,1,0.005,-0.009,-0.008,-0.006,-0.008,-0.004,-1.528,0.033,-0.808,112.54,108.5,40.496323,-3.382877,601.0,3,5,235.5,0.703
114.34,1,0.005,-0.019,-0.02,0.005,-0.012,-0.013,-1.528,0.037,-0.807,112.54,108.5,40.496323,-3.382877,601.0,3,5,235.5,0.703
114.44,1,-0.013,-0.036,-0.004,-0.005,-0.022,-0.014,-1.527,0.041,-0.806,112.54,108.5,40.496323,-3.382877,601.0,3,5,235.5,0.703
114.54,1,-0.044,-0.021,-0.01,-0.024,-0.024,-0.006,-1.527,0.044,-0.805,112.54,108.5,40.496323,-3.382877,601.0,3,5,235.5,0.703
114.64,1,-0.028,-0.014,-0.014,-0.027,-0.018,-0.011,-1.525,0.046,-0.803,113.57,106.8,40.49617,-3.383173,600.9,3,5,235.5,0.0
114.74,1,-0.006,-0.038,0.015,-0.022,-0.03,-0.004,-1.525,0.047,-0.802,113.57,106.8,40.49617,-3.383173,600.9,3,5,235.5,0.0
114.84,1,-0.005,-0.023,-0.01,-0.011,-0.027,0.003,-1.525,0.049,-0.8,113.57,106.8,40.49617,-3.383173,600.9,3,5,235.5,0.0
114.94,1,0.017,-0.011,-0.012,0.001,-0.018,-0.009,-1.523,0.05,-0.799,113.57,106.8,40.49617,-3.383173,600.9,3,5,235.5,0.0
115.04,1,0.016,-0.007,-0.011,0.014,-0.014,-0.009,-1.523,0.053,-0.797,113.57,106.8,40.49617,-3.383173,600.9,3,5,235.5,0.0
115.15,1,-0.022,0.002,-0.003,-0.001,-0.006,-0.01,-1.522,0.052,-0.796,113.57,106.8,40.49617,-3.383173,600.9,3,5,235.5,0.0
115.24,1,-0.024,-0.002,-0.004,-0.019,0.001,-0.003,-1.522,0.053,-0.796,113.57,106.8,40.49617,-3.383173,600.9,3,5,235.5,0.0
115.34,1,-0.011,0.016,0.002,-0.013,0.004,-0.001,-1.524,0.055,-0.795,113.57,106.8,40.49617,-3.383173,600.9,3,5,235.5,0.0
115.44,1,0.026,0.02,-0.0,0.002,0.012,0.001,-1.524,0.053,-0.795,113.57,106.8,40.49617,-3.383173,600.9,3,5,235.5,0.0
115.54,1,-0.013,0.018,-0.015,0.001,0.015,-0.01,-1.522,0.051,-0.795,113.57,106.8,40.49617,-3.383173,600.9,3,5,235.5,0.0
115.64,1,-0.019,0.042,-0.011,-0.012,0.027,-0.011,-1.523,0.048,-0.795,114.56,104.9,40.496029,-3.383452,601.1,3,5,235.2,0.352
115.74,1,-0.02,0.049,-0.003,-0.01,0.04,-0.003,-1.522,0.046,-0.795,114.56,104.9,40.496029,-3.383452,601.1,3,5,235.2,0.352
115.84,1,-0.043,0.025,-0.007,-0.025,0.034,-0.007,-1.52,0.045,-0.795,114.56,104.9,40.496029,-3.383452,601.1,3,5,235.2,0.352
115.94,1,-0.02,0.001,-0.0,-0.037,0.022,-0.007,-1.52,0.043,-0.795,114.56,104.9,40.496029,-3.383452,601.1,3,5,235.2,0.352
116.06,1,-0.003,-0.007,-0.007,-0.016,0.002,-0.007,-1.52,0.044,-0.795,114.56,104.9,40.496029,-3.383452,601.1,3,5,235.2,0.352
116.14,1,0.038,0.011,0.018,0.016,0.008,0.003,-1.52,0.046,-0.795,114.56,104.9,40.496029,-3.383452,601.1,3,5,235.2,0.352
116.26,1,0.028,0.016,-0.011,0.022,0.012,0.005,-1.521,0.048,-0.795,114.56,104.9,40.496029,-3.383452,601.1,3,5,235.2,0.352
116.34,1,-0.021,0.007,0.004,0.004,0.008,-0.001,-1.522,0.047,-0.794,114.56,104.9,40.496029,-3.383452,601.1,3,5,235.2,0.352
116.44,1,-0.039,-0.002,-0.002,-0.021,0.007,0.002,-1.522,0.047,-0.794,114.56,104.9,40.496029,-3.383452,601.1,3,5,235.2,0.352
116.54,1,-0.005,0.001,-0.003,-0.016,-0.0,-0.002,-1.522,0.046,-0.793,114.56,104.9,40.496029,-3.383452,601.1,3,5,235.2,0.352
116.64,1,-0.003,0.006,0.003,-0.009,0.0,0.001,-1.521,0.045,-0.793,115.56,103.2,40.49588,-3.383724,600.8,3,5,234.5,1.055
116.74,1,-0.024,-0.018,-0.002,-0.012,-0.001,-0.002,-1.519,0.044,-0.792,115.56,103.2,40.49588,-3.383724,600.8,3,5,234.5,1.055
116.84,1,-0.03,-0.012,-0.006,-0.023,-0.011,-0.002,-1.518,0.043,-0.791,115.56,103.2,40.49588,-3.383724,600.8,3,5,234.5,1.055
116.94,1,-0.025,-0.016,0.003,-0.024,-0.014,-0.004,-1.518,0.043,-0.79,115.56,103.2,40.49588,-3.383724,600.8,3,5,234.5,1.055
117.05,1,-0.027,-0.022,0.017,-0.027,-0.018,0.008,-1.52,0.044,-0.789,115.56,103.2,40.49588,-3.383724,600.8,3,5,234.5,1.055
117.14,1,0.043,-0.025,0.018,0.002,-0.022,0.013,-1.52,0.046,-0.788,115.56,103.2,40.49588,-3.383724,600.8,3,5,234.5,1.055
117.25,1,0.009,-0.002,-0.019,0.016,-0.013,0.003,-1.518,0.046,-0.787,115.56,103.2,40.49588,-3.383724,600.8,3,5,234.5,1.055
117.34,1,-0.041,-0.01,0.014,-0.005,-0.012,0.002,-1.518,0.045,-0.786,115.56,103.2,40.49588,-3.383724,600.8,3,5,234.5,1.055
117.45,1,-0.026,-0.005,0.01,-0.025,-0.006,0.008,-1.519,0.046,-0.786,115.56,103.2,40.49588,-3.383724,600.8,3,5,234.5,1.055
117.54,1,-0.034,0.004,0.01,-0.035,0.001,0.008,-1.519,0.047,-0.785,115.56,103.2,40.49588,-3.383724,600.8,3,5,234.5,1.055
117.64,1,-0.002,0.006,-0.005,-0.014,-0.0,0.007,-1.518,0.047,-0.785,116.56,101.7,40.495735,-3.383997,601.0,3,5,234.1,1.055
117.74,1,-0.024,-0.006,-0.005,-0.015,-0.005,-0.003,-1.517,0.047,-0.785,116.56,101.7,40.495735,-3.383997,601.0,3,5,234.1,1.055
117.85,1,0.008,0.001,0.005,-0.01,0.002,0.001,-1.518,0.045,-0.784,116.56,101.7,40.495735,-3.383997,601.0,3,5,234.1,1.055
117.95,1,-0.002,0.01,0.014,-0.005,0.007,0.008,-1.518,0.046,-0.784,116.56,101.7,40.495735,-3.383997,601.0,3,5,234.1,1.055
118.05,1,-0.014,-0.007,0.018,-0.0,-0.002,0.012,-1.519,0.048,-0.782,116.56,101.7,40.495735,-3.383997,601.0,3,5,234.1,1.055
118.15,1,0.006,-0.022,0.036,-0.01,-0.011,0.02,-1.52,0.051,-0.781,116.56,101.7,40.495735,-3.383997,601.0,3,5,234.1,1.055
118.25,1,0.03,-0.014,0.063,0.011,-0.016,0.044,-1.525,0.055,-0.779,116.56,101.7,40.495735,-3.383997,601.0,3,5,234.1,1.055
118.35,1,0.024,-0.015,0.042,0.025,-0.011,0.047,-1.527,0.057,-0.778,116.56,101.7,40.495735,-3.383997,601.0,3,5,234.1,1.055
118.45,1,-0.015,0.007,0.049,0.007,-0.007,0.045,-1.531,0.058,-0.778,116.56,101.7,40.495735,-3.383997,601.0,3,5,234.1,1.055
118.55,1,-0.039,-0.013,0.071,-0.017,-0.008,0.058,-1.537,0.057,-0.777,116.56,101.7,40.495735,-3.383997,601.0,3,5,234.1,1.055
118.66,1,-0.007,0.004,0.079,-0.021,-0.003,0.069,-1.544,0.056,-0.775,117.58,101.0,40.495586,-3.384261,602.2,3,5,233.8,0.703
118.75,1,0.015,-0.006,0.051,-0.002,-0.001,0.067,-1.548,0.055,-0.773,117.58,101.0,40.495586,-3.384261,602.2,3,5,233.8,0.703
118.85,1,-0.01,-0.008,0.055,0.004,-0.007,0.055,-1.552,0.056,-0.772,117.58,101.0,40.495586,-3.384261,602.2,3,5,233.8,0.703
118.95,1,-0.036,-0.009,0.076,-0.016,-0.008,0.063,-1.559,0.06,-0.77,117.58,101.0,40.495586,-3.384261,602.2,3,5,233.8,0.703
119.05,1,-0.03,-0.038,0.093,-0.031,-0.019,0.077,-1.568,0.062,-0.767,117.58,101.0,40.495586,-3.384261,602.2,3,5,233.8,0.703
119.15,1,0.025,-0.011,0.09,-0.013,-0.022,0.086,-1.574,0.064,-0.765,117.58,101.0,40.495586,-3.384261,602.2,3,5,233.8,0.703
119.25,1,0.001,-0.017,0.084,0.012,-0.018,0.087,-1.58,0.066,-0.762,117.58,101.0,40.495586,-3.384261,602.2,3,5,233.8,0.703
119.36,1,-0.062,-0.024,0.095,-0.021,-0.02,0.092,-1.589,0.068,-0.76,117.58,101.0,40.495586,-3.384261,602.2,3,5,233.8,0.703
119.46,1,-0.048,-0.028,0.098,-0.047,-0.022,0.093,-1.597,0.07,-0.757,117.58,101.0,40.495586,-3.384261,602.2,3,5,233.8,0.703
119.55,1,-0.014,-0.011,0.084,-0.038,-0.021,0.091,-1.605,0.07,-0.755,117.58,101.0,40.495586,-3.384261,602.2,3,5,233.8,0.703
119.66,1,0.021,0.006,0.084,-0.002,-0.009,0.092,-1.611,0.069,-0.753,118.55,101.1,40.495438,-3.384529,602.4,3,5,233.8,0.352
119.75,1,0.019,-0.009,0.056,0.011,-0.005,0.069,-1.617,0.069,-0.751,118.55,101.1,40.495438,-3.384529,602.4,3,5,233.8,0.352
119.85,1,0.014,-0.005,0.055,0.01,-0.003,0.06,-1.62,0.067,-0.749,118.55,101.1,40.495438,-3.384529,602.4,3,5,233.8,0.352
119.95,1,-0.023,0.02,0.055,0.004,0.004,0.061,-1.625,0.067,-0.748,118.55,101.1,40.495438,-3.384529,602.4,3,5,233.8,0.352
120.05,1,-0.041,0.019,0.031,-0.023,0.011,0.044,-1.627,0.065,-0.747,118.55,101.1,40.495438,-3.384529,602.4,3,5,233.8,0.352
120.15,1,-0.016,0.026,0.057,-0.025,0.022,0.048,-1.632,0.062,-0.746,118.55,101.1,40.495438,-3.384529,602.4,3,5,233.8,0.352
120.25,1,-0.015,0.023,0.026,-0.016,0.021,0.041,-1.636,0.062,-0.745,118.55,101.1,40.495438,-3.384529,602.4,3,5,233.8,0.352
120.36,1,0.0,0.013,0.029,-0.012,0.017,0.027,-1.64,0.06,-0.744,118.55,101.1,40.495438,-3.384529,602.4,3,5,233.8,0.352
120.45,1,0.024,-0.002,0.039,0.004,0.01,0.041,-1.642,0.056,-0.743,118.55,101.1,40.495438,-3.384529,602.4,3,5,233.8,0.352
120.55,1,-0.012,-0.024,0.027,0.007,-0.004,0.031,-1.644,0.055,-0.742,118.55,101.1,40.495438,-3.384529,602.4,3,5,233.8,0.352
120.65,1,-0.045,0.003,0.043,-0.02,-0.005,0.037,-1.647,0.054,-0.742,119.61,100.5,40.495281,-3.384792,601.4,4,5,233.1,0.703
120.75,1,-0.023,0.011,0.029,-0.025,-0.001,0.033,-1.651,0.054,-0.741,119.61,100.5,40.495281,-3.384792,601.4,4,5,233.1,0.703
120.85,1,0.011,-0.0,0.001,-0.013,0.001,0.02,-1.652,0.056,-0.739,119.61,100.5,40.495281,-3.384792,601.4,4,5,233.1,0.703
120.95,1,-0.024,0.017,-0.031,-0.008,0.01,0.001,-1.652,0.056,-0.738,119.61,100.5,40.495281,-3.384792,601.4,4,5,233.1,0.703
121.06,1,-0.014,-0.016,0.0,-0.013,-0.001,-0.013,-1.652,0.053,-0.737,119.61,100.5,40.495281,-3.384792,601.4,4,5,233.1,0.703
121.15,1,0.047,0.006,0.0,0.007,-0.0,-0.005,-1.653,0.054,-0.736,119.61,100.5,40.495281,-3.384792,601.4,4,5,233.1,0.703
121.26,1,0.049,0.039,-0.075,0.04,0.021,-0.028,-1.648,0.052,-0.736,119.61,100.5,40.495281,-3.384792,601.4,4,5,233.1,0.703
121.36,1,-0.04,0.019,-0.061,0.009,0.022,-0.056,-1.647,0.05,-0.736,119.61,100.5,40.495281,-3.384792,601.4,4,5,233.1,0.703
121.46,1,-0.04,0.009,-0.068,-0.026,0.018,-0.061,-1.644,0.048,-0.735,119.61,100.5,40.495281,-3.384792,601.4,4,5,233.1,0.703
121.56,1,-0.044,0.015,-0.083,-0.034,0.012,-0.071,-1.637,0.047,-0.734,119.61,100.5,40.495281,-3.384792,601.4,4,5,233.1,0.703
121.66,1,-0.054,0.021,-0.098,-0.045,0.01,-0.082,-1.63,0.048,-0.734,120.54,101.8,40.495113,-3.385045,601.7,3,5,231.7,2.109
121.77,1,0.02,0.055,-0.083,-0.025,0.037,-0.088,-1.628,0.05,-0.734,120.54,101.8,40.495113,-3.385045,601.7,3,5,231.7,2.109
121.86,1,0.02,0.038,-0.08,0.007,0.048,-0.084,-1.624,0.052,-0.734,120.54,101.8,40.495113,-3.385045,601.7,3,5,231.7,2.109
121.96,1,-0.058,0.021,-0.098,-0.022,0.029,-0.087,-1.619,0.048,-0.735,120.54,101.8,40.495113,-3.385045,601.7,3,5,231.7,2.109
122.06,1,-0.009,0.04,-0.098,-0.021,0.032,-0.093,-1.61,0.042,-0.736,120.54,101.8,40.495113,-3.385045,601.7,3,5,231.7,2.109
122.16,1,-0.02,0.062,-0.081,-0.019,0.047,-0.09,-1.605,0.036,-0.737,120.54,101.8,40.495113,-3.385045,601.7,3,5,231.7,2.109
122.26,1,-0.02,0.08,-0.071,-0.017,0.066,-0.082,-1.597,0.033,-0.739,120.54,101.8,40.495113,-3.385045,601.7,3,5,231.7,2.109
122.36,1,-0.028,0.043,-0.076,-0.022,0.057,-0.08,-1.589,0.032,-0.74,120.54,101.8,40.495113,-3.385045,601.7,3,5,231.7,2.109
122.47,1,0.023,0.061,-0.049,-0.005,0.055,-0.065,-1.585,0.027,-0.742,120.54,101.8,40.495113,-3.385045,601.7,3,5,231.7,2.109
122.56,1,0.007,0.078,-0.059,0.004,0.069,-0.057,-1.578,0.021,-0.745,120.54,101.8,40.495113,-3.385045,601.7,3,5,231.7,2.109
122.66,1,-0.002,0.071,-0.064,0.003,0.067,-0.063,-1.572,0.015,-0.747,121.56,106.3,40.494946,-3.385309,602.0,3,5,230.3,2.812
122.77,1,0.046,0.065,-0.028,0.015,0.069,-0.05,-1.567,0.009,-0.749,121.56,106.3,40.494946,-3.385309,602.0,3,5,230.3,2.812
122.86,1,0.005,0.027,-0.054,0.024,0.05,-0.046,-1.561,0.005,-0.751,121.56,106.3,40.494946,-3.385309,602.0,3,5,230.3,2.812
122.96,1,-0.012,0.047,-0.038,0.004,0.041,-0.044,-1.555,-0.002,-0.753,121.56,106.3,40.494946,-3.385309,602.0,3,5,230.3,2.812
123.06,1,-0.033,0.044,-0.04,-0.017,0.047,-0.041,-1.552,-0.006,-0.756,121.56,106.3,40.494946,-3.385309,602.0,3,5,230.3,2.812
123.16,1,-0.034,0.035,-0.018,-0.029,0.042,-0.032,-1.55,-0.008,-0.757,121.56,106.3,40.494946,-3.385309,602.0,3,5,230.3,2.812
123.26,1,0.01,0.025,-0.025,-0.012,0.033,-0.023,-1.549,-0.01,-0.759,121.56,106.3,40.494946,-3.385309,602.0,3,5,230.3,2.812
123.36,1,0.001,0.031,-0.041,-0.003,0.031,-0.031,-1.546,-0.01,-0.76,121.56,106.3,40.494946,-3.385309,602.0,3,5,230.3,2.812
123.48,1,-0.009,0.016,-0.03,-0.006,0.025,-0.036,-1.545,-0.008,-0.762,121.56,106.3,40.494946,-3.385309,602.0,3,5,230.3,2.812
123.67,1,-0.007,-0.017,-0.02,-0.02,-0.007,-0.015,-1.54,-0.002,-0.763,121.56,106.3,40.494946,-3.385309,602.0,3,5,230.3,2.812
123.77,1,0.012,-0.015,-0.011,-0.001,-0.014,-0.015,-1.539,0.001,-0.763,122.6,106.2,40.494766,-3.385571,602.5,3,5,230.3,1.406
123.86,1,-0.011,-0.019,-0.036,0.001,-0.02,-0.023,-1.535,0.004,-0.763,122.6,106.2,40.494766,-3.385571,602.5,3,5,230.3,1.406
123.96,1,-0.015,-0.022,-0.005,-0.011,-0.016,-0.016,-1.534,0.006,-0.763,122.6,106.2,40.494766,-3.385571,602.5,3,5,230.3,1.406
124.06,1,-0.021,-0.001,-0.008,-0.015,-0.014,-0.01,-1.533,0.008,-0.763,122.6,106.2,40.494766,-3.385571,602.5,3,5,230.3,1.406
124.16,1,-0.022,-0.003,-0.013,-0.02,-0.008,-0.016,-1.533,0.011,-0.763,122.6,106.2,40.494766,-3.385571,602.5,3,5,230.3,1.406
124.26,1,-0.007,-0.035,-0.002,-0.013,-0.015,-0.006,-1.534,0.012,-0.762,122.6,106.2,40.494766,-3.385571,602.5,3,5,230.3,1.406
124.36,1,-0.021,-0.042,-0.022,-0.017,-0.031,-0.014,-1.531,0.016,-0.761,122.6,106.2,40.494766,-3.385571,602.5,3,5,230.3,1.406
124.47,1,0.005,-0.041,-0.004,-0.012,-0.038,-0.01,-1.53,0.02,-0.76,122.6,106.2,40.494766,-3.385571,602.5,3,5,230.3,1.406
124.56,1,0.023,-0.048,0.005,0.015,-0.047,0.002,-1.53,0.026,-0.759,122.6,106.2,40.494766,-3.385571,602.5,3,5,230.3,1.406
124.67,1,-0.009,-0.05,-0.009,0.008,-0.045,-0.004,-1.527,0.026,-0.758,122.6,106.2,40.494766,-3.385571,602.5,3,5,230.3,1.406
124.77,1,-0.057,-0.023,-0.023,-0.027,-0.038,-0.015,-1.527,0.026,-0.757,123.54,104.7,40.494598,-3.385842,601.9,3,5,231.0,0.703
124.87,1,-0.022,-0.022,-0.002,-0.039,-0.024,-0.012,-1.529,0.024,-0.756,123.54,104.7,40.494598,-3.385842,601.9,3,5,231.0,0.703
124.97,1,0.009,0.013,0.004,-0.014,-0.011,-0.002,-1.528,0.024,-0.756,123.54,104.7,40.494598,-3.385842,601.9,3,5,231.0,0.703
125.07,1,-0.002,0.003,-0.03,0.004,0.003,-0.01,-1.525,0.023,-0.756,123.54,104.7,40.494598,-3.385842,601.9,3,5,231.0,0.703
125.17,1,-0.002,0.039,0.025,-0.005,0.013,-0.005,-1.524,0.02,-0.758,123.54,104.7,40.494598,-3.385842,601.9,3,5,231.0,0.703
125.27,1,-0.015,0.054,0.001,-0.015,0.035,0.008,-1.527,0.018,-0.76,123.54,104.7,40.494598,-3.385842,601.9,3,5,231.0,0.703
125.37,1,-0.045,0.017,0.016,-0.025,0.034,0.003,-1.529,0.016,-0.761,123.54,104.7,40.494598,-3.385842,601.9,3,5,231.0,0.703
125.47,1,0.008,0.033,0.039,-0.015,0.028,0.021,-1.532,0.013,-0.761,123.54,104.7,40.494598,-3.385842,601.9,3,5,231.0,0.703
