Timestamp_Accel,SystemActivated,accelerometerXAxis,accelerometerYAxis,accelerometerZAxis,AccelX_KF,AccelY_KF,AccelZ_KF,gyroscopeXAxis,gyroscopeYAxis,gyroscopeZAxis,Timestamp_GPS,Speed,latitude,longitude,Altitude,VerticalAccuracy,HorizontalAccuracy,Course,Difcourse
14.92,1,0.07,-0.004,-0.049,0.017,-0.012,-0.038,-1.557,0.025,0.106,14.88,127.2,40.533833,-3.450816,657.2,6,5,270.0,0.352
15.01,1,-0.01,0.014,-0.048,0.02,0.002,-0.048,-1.554,0.026,0.105,14.88,127.2,40.533833,-3.450816,657.2,6,5,270.0,0.352
15.12,1,0.017,-0.002,-0.017,0.009,0.002,-0.037,-1.549,0.027,0.105,14.88,127.2,40.533833,-3.450816,657.2,6,5,270.0,0.352
15.22,1,-0.029,0.058,-0.062,0.001,0.028,-0.036,-1.549,0.028,0.106,14.88,127.2,40.533833,-3.450816,657.2,6,5,270.0,0.352
15.32,1,-0.02,0.021,-0.007,-0.012,0.031,-0.031,-1.548,0.027,0.106,14.88,127.2,40.533833,-3.450816,657.2,6,5,270.0,0.352
15.42,1,-0.022,0.028,-0.02,-0.024,0.023,-0.023,-1.548,0.022,0.105,14.88,127.2,40.533833,-3.450816,657.2,6,5,270.0,0.352
15.52,1,-0.065,0.043,-0.021,-0.046,0.035,-0.021,-1.545,0.021,0.105,14.88,127.2,40.533833,-3.450816,657.2,6,5,270.0,0.352
15.62,1,-0.038,0.018,-0.01,-0.038,0.025,-0.011,-1.545,0.02,0.105,14.88,127.2,40.533833,-3.450816,657.2,6,5,270.0,0.352
15.72,1,-0.003,0.014,-0.016,-0.022,0.02,-0.015,-1.543,0.018,0.105,14.88,127.2,40.533833,-3.450816,657.2,6,5,270.0,0.352
15.82,1,-0.047,-0.003,-0.003,-0.034,0.007,-0.016,-1.541,0.011,0.105,14.88,127.2,40.533833,-3.450816,657.2,6,5,270.0,0.352
15.92,1,-0.025,-0.007,-0.004,-0.03,0.004,-0.002,-1.54,0.009,0.105,15.87,126.3,40.533829,-3.451236,656.6,6,5,269.6,0.352
16.03,1,0.031,0.012,-0.019,-0.001,0.005,-0.011,-1.538,0.01,0.104,15.87,126.3,40.533829,-3.451236,656.6,6,5,269.6,0.352
16.12,1,-0.017,0.002,-0.006,-0.006,0.002,-0.015,-1.538,0.011,0.104,15.87,126.3,40.533829,-3.451236,656.6,6,5,269.6,0.352
16.22,1,-0.037,0.015,-0.018,-0.02,0.008,-0.007,-1.54,0.012,0.104,15.87,126.3,40.533829,-3.451236,656.6,6,5,269.6,0.352
16.32,1,-0.005,0.013,-0.024,-0.011,0.011,-0.016,-1.541,0.014,0.104,15.87,126.3,40.533829,-3.451236,656.6,6,5,269.6,0.352
16.42,1,0.013,-0.004,-0.002,-0.004,0.009,-0.016,-1.54,0.013,0.104,15.87,126.3,40.533829,-3.451236,656.6,6,5,269.6,0.352
16.52,1,-0.009,-0.004,-0.012,-0.002,-0.001,-0.012,-1.541,0.012,0.104,15.87,126.3,40.533829,-3.451236,656.6,6,5,269.6,0.352
16.62,1,-0.002,0.019,-0.013,-0.007,0.009,-0.012,-1.544,0.013,0.104,15.87,126.3,40.533829,-3.451236,656.6,6,5,269.6,0.352
16.72,1,-0.007,0.006,-0.011,-0.004,0.004,-0.01,-1.542,0.012,0.104,15.87,126.3,40.533829,-3.451236,656.6,6,5,269.6,0.352
16.82,1,-0.006,0.003,0.001,-0.009,0.008,-0.005,-1.539,0.01,0.104,15.87,126.3,40.533829,-3.451236,656.6,6,5,269.6,0.352
16.92,1,-0.042,0.02,-0.009,-0.022,0.013,-0.005,-1.538,0.006,0.104,16.88,126.1,40.533829,-3.451651,655.9,6,5,269.6,0.352
17.02,1,-0.005,-0.006,0.007,-0.013,0.004,-0.0,-1.538,0.005,0.104,16.88,126.1,40.533829,-3.451651,655.9,6,5,269.6,0.352
17.12,1,0.002,0.014,-0.018,0.002,0.003,-0.005,-1.537,0.002,0.103,16.88,126.1,40.533829,-3.451651,655.9,6,5,269.6,0.352
17.23,1,-0.02,0.017,-0.017,-0.018,0.015,-0.015,-1.535,-0.002,0.103,16.88,126.1,40.533829,-3.451651,655.9,6,5,269.6,0.352
17.32,1,0.009,0.005,-0.0,-0.011,0.011,-0.013,-1.535,-0.004,0.103,16.88,126.1,40.533829,-3.451651,655.9,6,5,269.6,0.352
17.42,1,-0.01,-0.004,-0.0,0.001,0.005,0.001,-1.537,-0.004,0.103,16.88,126.1,40.533829,-3.451651,655.9,6,5,269.6,0.352
17.52,1,0.004,0.001,0.001,0.001,-0.001,-0.002,-1.536,-0.002,0.103,16.88,126.1,40.533829,-3.451651,655.9,6,5,269.6,0.352
17.62,1,0.033,-0.01,0.01,0.007,-0.0,-0.002,-1.537,-0.001,0.103,16.88,126.1,40.533829,-3.451651,655.9,6,5,269.6,0.352
17.73,1,-0.01,-0.008,-0.0,0.011,-0.009,0.009,-1.538,0.003,0.102,16.88,126.1,40.533829,-3.451651,655.9,6,5,269.6,0.352
17.82,1,0.003,0.012,-0.03,0.007,0.007,-0.01,-1.539,0.004,0.102,16.88,126.1,40.533829,-3.451651,655.9,6,5,269.6,0.352
17.93,1,0.01,-0.019,-0.025,0.002,-0.002,-0.022,-1.539,0.004,0.103,17.87,125.7,40.533829,-3.452071,655.1,6,5,269.6,0.0
18.03,1,-0.016,-0.014,-0.002,-0.003,-0.018,-0.011,-1.538,0.004,0.103,17.87,125.7,40.533829,-3.452071,655.1,6,5,269.6,0.0
18.12,1,-0.021,0.014,-0.035,-0.011,-0.001,-0.02,-1.537,0.005,0.103,17.87,125.7,40.533829,-3.452071,655.1,6,5,269.6,0.0
18.22,1,-0.035,-0.012,-0.01,-0.024,-0.006,-0.022,-1.538,0.003,0.103,17.87,125.7,40.533829,-3.452071,655.1,6,5,269.6,0.0
18.32,1,-0.038,0.004,-0.002,-0.037,-0.001,-0.007,-1.542,0.002,0.104,17.87,125.7,40.533829,-3.452071,655.1,6,5,269.6,0.0
18.42,1,-0.05,-0.011,-0.007,-0.04,-0.003,-0.011,-1.543,0.003,0.104,17.87,125.7,40.533829,-3.452071,655.1,6,5,269.6,0.0
18.52,1,-0.008,-0.025,-0.013,-0.033,-0.013,-0.01,-1.544,0.006,0.104,17.87,125.7,40.533829,-3.452071,655.1,6,5,269.6,0.0
18.63,1,0.026,-0.009,-0.001,-0.002,-0.019,-0.005,-1.545,0.01,0.104,17.87,125.7,40.533829,-3.452071,655.1,6,5,269.6,0.0
18.73,1,0.018,0.007,-0.009,0.017,-0.007,-0.006,-1.543,0.009,0.104,17.87,125.7,40.533829,-3.452071,655.1,6,5,269.6,0.0
18.83,1,0.024,-0.013,-0.023,0.02,-0.005,-0.014,-1.542,0.007,0.105,17.87,125.7,40.533829,-3.452071,655.1,6,5,269.6,0.0
18.93,1,-0.001,-0.003,0.002,0.002,0.001,-0.015,-1.539,0.005,0.105,18.88,124.7,40.533821,-3.452485,654.8,6,5,269.3,0.352
19.03,1,-0.021,-0.008,-0.009,-0.003,-0.005,-0.006,-1.539,0.008,0.105,18.88,124.7,40.533821,-3.452485,654.8,6,5,269.3,0.352
19.13,1,-0.023,-0.01,-0.001,-0.006,-0.012,0.003,-1.539,0.007,0.105,18.88,124.7,40.533821,-3.452485,654.8,6,5,269.3,0.352
19.23,1,-0.073,-0.007,-0.008,-0.039,-0.012,-0.01,-1.543,0.007,0.105,18.88,124.7,40.533821,-3.452485,654.8,6,5,269.3,0.352
19.33,1,-0.006,-0.001,0.012,-0.044,-0.006,0.001,-1.544,0.011,0.106,18.88,124.7,40.533821,-3.452485,654.8,6,5,269.3,0.352
19.43,1,0.012,-0.003,0.012,-0.008,-0.007,0.01,-1.546,0.013,0.106,18.88,124.7,40.533821,-3.452485,654.8,6,5,269.3,0.352
19.53,1,-0.01,0.032,0.0,-0.002,0.008,0.004,-1.545,0.017,0.106,18.88,124.7,40.533821,-3.452485,654.8,6,5,269.3,0.352
19.63,1,-0.041,-0.024,0.011,-0.014,0.006,0.014,-1.544,0.016,0.106,18.88,124.7,40.533821,-3.452485,654.8,6,5,269.3,0.352
19.73,1,-0.018,0.004,0.005,-0.029,0.0,0.005,-1.544,0.017,0.106,18.88,124.7,40.533821,-3.452485,654.8,6,5,269.3,0.352
19.83,1,0.022,-0.008,-0.01,-0.004,-0.001,-0.007,-1.545,0.017,0.106,18.88,124.7,40.533821,-3.452485,654.8,6,5,269.3,0.352
19.93,1,0.073,0.005,-0.022,0.028,0.002,-0.007,-1.544,0.018,0.106,19.98,125.4,40.533813,-3.452895,653.9,6,5,269.6,0.352
20.03,1,0.006,0.004,0.003,0.039,-0.0,-0.005,-1.54,0.019,0.106,19.98,125.4,40.533813,-3.452895,653.9,6,5,269.6,0.352
20.13,1,-0.031,0.006,0.002,-0.008,0.008,-0.003,-1.538,0.016,0.106,19.98,125.4,40.533813,-3.452895,653.9,6,5,269.6,0.352
20.23,1,-0.015,-0.017,-0.002,-0.014,-0.002,-0.006,-1.541,0.013,0.107,19.98,125.4,40.533813,-3.452895,653.9,6,5,269.6,0.352
20.33,1,-0.001,0.005,-0.013,-0.006,-0.003,-0.008,-1.543,0.017,0.107,19.98,125.4,40.533813,-3.452895,653.9,6,5,269.6,0.352
20.43,1,-0.027,0.013,-0.005,-0.008,0.007,-0.003,-1.542,0.018,0.107,19.98,125.4,40.533813,-3.452895,653.9,6,5,269.6,0.352
20.53,1,-0.037,0.001,0.006,-0.022,-0.002,-0.0,-1.544,0.022,0.107,19.98,125.4,40.533813,-3.452895,653.9,6,5,269.6,0.352
20.63,1,-0.074,0.024,0.004,-0.048,0.005,0.002,-1.545,0.023,0.107,19.98,125.4,40.533813,-3.452895,653.9,6,5,269.6,0.352
20.73,1,-0.1,-0.008,-0.003,-0.08,0.006,0.0,-1.547,0.023,0.107,19.98,125.4,40.533813,-3.452895,653.9,6,5,269.6,0.352
20.83,1,0.001,0.023,-0.0,-0.054,0.014,-0.001,-1.55,0.024,0.108,19.98,125.4,40.533813,-3.452895,653.9,6,5,269.6,0.352
20.93,1,0.031,-0.009,-0.004,-0.006,0.008,-0.005,-1.549,0.021,0.108,20.86,125.9,40.533806,-3.453308,653.0,6,5,269.6,0.352
21.03,1,0.024,0.026,-0.003,0.011,0.013,-0.004,-1.547,0.024,0.108,20.86,125.9,40.533806,-3.453308,653.0,6,5,269.6,0.352
21.14,1,0.026,0.008,-0.011,0.029,0.008,-0.005,-1.546,0.022,0.108,20.86,125.9,40.533806,-3.453308,653.0,6,5,269.6,0.352
21.23,1,-0.002,0.006,0.016,0.015,0.004,0.008,-1.545,0.022,0.108,20.86,125.9,40.533806,-3.453308,653.0,6,5,269.6,0.352
21.33,1,-0.023,-0.017,-0.01,-0.009,0.01,-0.006,-1.546,0.023,0.108,20.86,125.9,40.533806,-3.453308,653.0,6,5,269.6,0.352
21.43,1,-0.057,0.027,-0.02,-0.028,0.007,-0.009,-1.546,0.023,0.108,20.86,125.9,40.533806,-3.453308,653.0,6,5,269.6,0.352
21.54,1,-0.077,0.04,0.003,-0.053,0.021,-0.003,-1.547,0.022,0.107,20.86,125.9,40.533806,-3.453308,653.0,6,5,269.6,0.352
21.64,1,-0.027,0.02,-0.01,-0.058,0.025,-0.01,-1.548,0.021,0.107,20.86,125.9,40.533806,-3.453308,653.0,6,5,269.6,0.352
21.73,1,0.049,-0.0,0.019,-0.002,0.014,0.002,-1.547,0.016,0.107,20.86,125.9,40.533806,-3.453308,653.0,6,5,269.6,0.352
21.83,1,-0.013,0.018,0.004,0.008,0.015,0.009,-1.543,0.015,0.106,20.86,125.9,40.533806,-3.453308,653.0,6,5,269.6,0.352
21.93,1,-0.033,0.011,0.001,-0.015,0.014,0.003,-1.547,0.012,0.106,21.88,126.2,40.53381,-3.453727,652.6,6,5,269.6,0.0
22.03,1,-0.052,0.022,0.022,-0.029,0.013,0.013,-1.552,0.011,0.106,21.88,126.2,40.53381,-3.453727,652.6,6,5,269.6,0.0
22.14,1,-0.032,0.015,0.017,-0.039,0.014,0.012,-1.556,0.007,0.106,21.88,126.2,40.53381,-3.453727,652.6,6,5,269.6,0.0
22.24,1,0.003,-0.002,0.054,-0.027,0.012,0.032,-1.558,0.004,0.105,21.88,126.2,40.53381,-3.453727,652.6,6,5,269.6,0.0
22.34,1,-0.014,-0.012,0.029,-0.008,-0.004,0.036,-1.562,0.007,0.105,21.88,126.2,40.53381,-3.453727,652.6,6,5,269.6,0.0
22.44,1,0.021,0.001,0.027,0.003,0.001,0.032,-1.565,0.006,0.105,21.88,126.2,40.53381,-3.453727,652.6,6,5,269.6,0.0
22.54,1,-0.008,-0.0,0.027,-0.001,-0.006,0.028,-1.566,0.007,0.105,21.88,126.2,40.53381,-3.453727,652.6,6,5,269.6,0.0
22.64,1,-0.028,0.003,0.033,-0.011,-0.001,0.029,-1.567,0.008,0.105,21.88,126.2,40.53381,-3.453727,652.6,6,5,269.6,0.0
22.74,1,-0.019,-0.02,0.025,-0.016,-0.004,0.029,-1.569,0.007,0.105,21.88,126.2,40.53381,-3.453727,652.6,6,5,269.6,0.0
22.84,1,0.034,-0.008,0.036,0.001,-0.012,0.03,-1.57,0.009,0.105,21.88,126.2,40.53381,-3.453727,652.6,6,5,269.6,0.0
22.94,1,0.017,0.038,0.032,0.009,0.012,0.028,-1.569,0.012,0.105,22.9,126.1,40.533813,-3.454148,652.0,6,5,269.6,0.0
23.04,1,-0.038,-0.01,-0.011,0.0,0.013,0.013,-1.569,0.015,0.106,22.9,126.1,40.533813,-3.454148,652.0,6,5,269.6,0.0
23.14,1,-0.042,0.007,-0.0,-0.024,0.001,0.017,-1.568,0.016,0.106,22.9,126.1,40.533813,-3.454148,652.0,6,5,269.6,0.0
23.24,1,0.0,-0.019,0.049,-0.02,-0.007,0.013,-1.569,0.015,0.107,22.9,126.1,40.533813,-3.454148,652.0,6,5,269.6,0.0
23.34,1,-0.023,-0.021,0.024,-0.017,-0.015,0.031,-1.569,0.014,0.106,22.9,126.1,40.533813,-3.454148,652.0,6,5,269.6,0.0
23.44,1,-0.048,0.013,0.017,-0.032,-0.005,0.024,-1.573,0.01,0.107,22.9,126.1,40.533813,-3.454148,652.0,6,5,269.6,0.0
23.54,1,-0.045,-0.025,0.032,-0.046,-0.005,0.023,-1.576,0.012,0.107,22.9,126.1,40.533813,-3.454148,652.0,6,5,269.6,0.0
23.64,1,0.006,0.017,0.024,-0.022,-0.004,0.027,-1.579,0.009,0.108,22.9,126.1,40.533813,-3.454148,652.0,6,5,269.6,0.0
23.74,1,0.068,-0.012,0.015,0.023,-0.002,0.025,-1.578,0.013,0.108,22.9,126.1,40.533813,-3.454148,652.0,6,5,269.6,0.0
23.84,1,0.025,0.001,-0.008,0.037,-0.005,0.009,-1.576,0.017,0.108,22.9,126.1,40.533813,-3.454148,652.0,6,5,269.6,0.0
23.94,1,-0.055,-0.003,-0.005,-0.008,-0.005,-0.006,-1.574,0.017,0.108,23.85,129.4,40.533806,-3.454569,651.5,6,5,269.6,0.0
24.04,1,-0.069,0.013,0.001,-0.046,0.003,-0.004,-1.577,0.014,0.109,23.85,129.4,40.533806,-3.454569,651.5,6,5,269.6,0.0
24.14,1,0.02,-0.027,0.011,-0.03,0.002,0.005,-1.581,0.017,0.109,23.85,129.4,40.533806,-3.454569,651.5,6,5,269.6,0.0
24.24,1,0.063,-0.007,-0.009,0.031,-0.013,-0.002,-1.578,0.016,0.109,23.85,129.4,40.533806,-3.454569,651.5,6,5,269.6,0.0
24.34,1,0.014,0.01,-0.028,0.029,-0.002,-0.01,-1.575,0.017,0.108,23.85,129.4,40.533806,-3.454569,651.5,6,5,269.6,0.0
24.45,1,-0.016,0.01,0.008,0.004,0.008,-0.006,-1.573,0.018,0.108,23.85,129.4,40.533806,-3.454569,651.5,6,5,269.6,0.0
24.54,1,0.001,0.034,-0.019,0.0,0.013,-0.007,-1.571,0.018,0.108,23.85,129.4,40.533806,-3.454569,651.5,6,5,269.6,0.0
24.65,1,-0.03,-0.007,-0.023,-0.01,0.017,-0.017,-1.572,0.017,0.109,23.85,129.4,40.533806,-3.454569,651.5,6,5,269.6,0.0
24.74,1,0.002,-0.008,-0.028,-0.012,-0.007,-0.025,-1.572,0.017,0.109,23.85,129.4,40.533806,-3.454569,651.5,6,5,269.6,0.0
24.84,1,0.021,-0.032,-0.004,0.004,-0.008,-0.027,-1.567,0.016,0.109,23.85,129.4,40.533806,-3.454569,651.5,6,5,269.6,0.0
24.94,1,0.006,0.007,0.015,0.01,-0.019,0.007,-1.567,0.017,0.109,24.88,130.2,40.533802,-3.454997,651.2,6,5,269.6,0.0
25.04,1,-0.007,-0.0,-0.026,0.001,0.008,-0.007,-1.568,0.014,0.109,24.88,130.2,40.533802,-3.454997,651.2,6,5,269.6,0.0
25.14,1,-0.068,0.011,-0.012,-0.02,-0.003,-0.014,-1.565,0.014,0.108,24.88,130.2,40.533802,-3.454997,651.2,6,5,269.6,0.0
25.24,1,-0.141,0.004,-0.031,-0.087,0.003,-0.021,-1.567,0.014,0.109,24.88,130.2,40.533802,-3.454997,651.2,6,5,269.6,0.0
25.34,1,-0.043,-0.005,-0.017,-0.092,0.005,-0.021,-1.571,0.015,0.109,24.88,130.2,40.533802,-3.454997,651.2,6,5,269.6,0.0
25.44,1,0.006,-0.005,-0.011,-0.035,-0.011,-0.013,-1.575,0.017,0.109,24.88,130.2,40.533802,-3.454997,651.2,6,5,269.6,0.0
25.54,1,-0.002,0.024,-0.027,-0.006,0.007,-0.02,-1.573,0.016,0.109,24.88,130.2,40.533802,-3.454997,651.2,6,5,269.6,0.0
25.66,1,0.008,0.037,-0.025,-0.005,0.025,-0.025,-1.574,0.016,0.109,24.88,130.2,40.533802,-3.454997,651.2,6,5,269.6,0.0
25.75,1,0.01,-0.006,-0.033,0.008,0.014,-0.025,-1.574,0.017,0.109,24.88,130.2,40.533802,-3.454997,651.2,6,5,269.6,0.0
25.86,1,-0.02,-0.009,-0.005,-0.005,0.005,-0.021,-1.573,0.017,0.109,24.88,130.2,40.533802,-3.454997,651.2,6,5,269.6,0.0
25.96,1,-0.082,-0.026,-0.029,-0.044,-0.012,-0.025,-1.574,0.017,0.109,25.85,130.6,40.533798,-3.455438,651.1,6,5,269.3,0.352
26.05,1,0.059,-0.002,0.008,-0.017,-0.016,-0.013,-1.575,0.018,0.109,25.85,130.6,40.533798,-3.455438,651.1,6,5,269.3,0.352
26.15,1,0.05,0.016,-0.019,0.035,0.0,-0.009,-1.571,0.017,0.109,25.85,130.6,40.533798,-3.455438,651.1,6,5,269.3,0.352
26.25,1,0.022,0.036,-0.069,0.025,0.024,-0.042,-1.56,0.014,0.109,25.85,130.6,40.533798,-3.455438,651.1,6,5,269.3,0.352
26.35,1,-0.006,-0.001,-0.031,0.02,0.017,-0.035,-1.56,0.014,0.109,25.85,130.6,40.533798,-3.455438,651.1,6,5,269.3,0.352
26.45,1,-0.071,0.019,-0.033,-0.01,0.007,-0.032,-1.56,0.02,0.108,25.85,130.6,40.533798,-3.455438,651.1,6,5,269.3,0.352
26.55,1,-0.133,0.034,-0.004,-0.085,0.024,-0.028,-1.559,0.02,0.107,25.85,130.6,40.533798,-3.455438,651.1,6,5,269.3,0.352
26.65,1,-0.063,0.031,0.016,-0.089,0.032,0.001,-1.558,0.013,0.107,25.85,130.6,40.533798,-3.455438,651.1,6,5,269.3,0.352
26.75,1,-0.023,0.002,0.006,-0.051,0.017,0.006,-1.556,0.01,0.107,25.85,130.6,40.533798,-3.455438,651.1,6,5,269.3,0.352
26.85,1,-0.009,0.017,0.021,-0.033,0.013,0.011,-1.556,0.01,0.106,25.85,130.6,40.533798,-3.455438,651.1,6,5,269.3,0.352
26.95,1,-0.014,0.019,-0.016,-0.013,0.018,0.008,-1.555,0.009,0.106,26.89,131.4,40.533791,-3.455867,650.8,6,5,269.6,0.352
27.06,1,-0.021,0.012,-0.006,-0.022,0.018,-0.009,-1.553,0.008,0.105,26.89,131.4,40.533791,-3.455867,650.8,6,5,269.6,0.352
27.15,1,0.013,-0.007,0.001,-0.009,0.003,0.0,-1.557,0.012,0.105,26.89,131.4,40.533791,-3.455867,650.8,6,5,269.6,0.352
27.25,1,-0.009,0.012,-0.019,-0.006,0.005,-0.009,-1.555,0.012,0.105,26.89,131.4,40.533791,-3.455867,650.8,6,5,269.6,0.352
27.35,1,0.008,-0.01,0.006,0.004,0.002,-0.004,-1.551,0.011,0.105,26.89,131.4,40.533791,-3.455867,650.8,6,5,269.6,0.352
27.45,1,-0.0,0.021,0.008,0.006,0.002,0.002,-1.549,0.009,0.105,26.89,131.4,40.533791,-3.455867,650.8,6,5,269.6,0.352
27.56,1,-0.071,0.001,-0.019,-0.029,0.011,-0.005,-1.552,0.009,0.105,26.89,131.4,40.533791,-3.455867,650.8,6,5,269.6,0.352
27.66,1,-0.009,0.011,0.004,-0.035,0.007,-0.001,-1.556,0.011,0.105,26.89,131.4,40.533791,-3.455867,650.8,6,5,269.6,0.352
27.76,1,0.011,-0.012,0.001,-0.008,-0.0,0.001,-1.556,0.011,0.106,26.89,131.4,40.533791,-3.455867,650.8,6,5,269.6,0.352
27.85,1,0.013,-0.014,0.005,0.003,-0.007,-0.003,-1.556,0.014,0.106,26.89,131.4,40.533791,-3.455867,650.8,6,5,269.6,0.352
27.95,1,-0.066,0.001,-0.002,-0.023,-0.007,-0.004,-1.552,0.016,0.106,27.95,131.9,40.533794,-3.456295,650.5,6,5,269.6,0.352
28.05,1,-0.042,0.025,0.005,-0.036,0.01,0.005,-1.55,0.012,0.106,27.95,131.9,40.533794,-3.456295,650.5,6,5,269.6,0.352
28.16,1,-0.006,0.021,0.016,-0.025,0.018,0.006,-1.553,0.015,0.105,27.95,131.9,40.533794,-3.456295,650.5,6,5,269.6,0.352
28.26,1,-0.016,0.011,-0.009,-0.017,0.015,0.007,-1.55,0.013,0.106,27.95,131.9,40.533794,-3.456295,650.5,6,5,269.6,0.352
28.36,1,-0.045,0.01,0.003,-0.028,0.009,0.001,-1.549,0.009,0.106,27.95,131.9,40.533794,-3.456295,650.5,6,5,269.6,0.352
28.45,1,-0.071,0.016,0.009,-0.052,0.014,0.004,-1.551,0.008,0.106,27.95,131.9,40.533794,-3.456295,650.5,6,5,269.6,0.352
28.56,1,-0.035,-0.012,0.012,-0.05,0.006,0.007,-1.55,0.006,0.106,27.95,131.9,40.533794,-3.456295,650.5,6,5,269.6,0.352
28.66,1,0.001,-0.026,0.013,-0.03,-0.011,0.007,-1.553,0.006,0.106,27.95,131.9,40.533794,-3.456295,650.5,6,5,269.6,0.352
28.75,1,-0.034,-0.02,0.005,-0.024,-0.021,0.011,-1.556,0.004,0.106,27.95,131.9,40.533794,-3.456295,650.5,6,5,269.6,0.352
28.86,1,-0.001,-0.007,-0.02,-0.016,-0.014,-0.001,-1.555,0.003,0.106,27.95,131.9,40.533794,-3.456295,650.5,6,5,269.6,0.352
28.96,1,0.017,-0.005,-0.003,0.005,-0.009,-0.01,-1.554,0.003,0.106,28.85,132.2,40.533794,-3.456728,650.0,6,5,269.6,0.0
29.06,1,-0.007,-0.036,-0.009,-0.004,-0.02,-0.009,-1.551,0.004,0.106,28.85,132.2,40.533794,-3.456728,650.0,6,5,269.6,0.0
29.15,1,-0.034,-0.0,-0.003,-0.011,-0.017,-0.003,-1.551,0.006,0.106,28.85,132.2,40.533794,-3.456728,650.0,6,5,269.6,0.0
29.26,1,-0.06,-0.008,0.006,-0.035,-0.015,0.003,-1.552,0.007,0.106,28.85,132.2,40.533794,-3.456728,650.0,6,5,269.6,0.0
29.36,1,-0.082,-0.008,0.019,-0.06,-0.001,0.009,-1.553,0.009,0.106,28.85,132.2,40.533794,-3.456728,650.0,6,5,269.6,0.0
29.46,1,-0.08,-0.037,-0.005,-0.074,-0.017,0.005,-1.555,0.01,0.106,28.85,132.2,40.533794,-3.456728,650.0,6,5,269.6,0.0
29.56,1,0.007,0.007,0.008,-0.049,-0.013,0.001,-1.552,0.007,0.106,28.85,132.2,40.533794,-3.456728,650.0,6,5,269.6,0.0
29.66,1,0.058,-0.007,0.006,0.01,-0.006,0.002,-1.552,0.007,0.106,28.85,132.2,40.533794,-3.456728,650.0,6,5,269.6,0.0
29.76,1,0.055,-0.004,-0.007,0.041,-0.006,-0.0,-1.553,0.008,0.106,28.85,132.2,40.533794,-3.456728,650.0,6,5,269.6,0.0
29.86,1,-0.015,-0.003,-0.016,0.024,-0.003,-0.009,-1.552,0.007,0.106,28.85,132.2,40.533794,-3.456728,650.0,6,5,269.6,0.0
29.96,1,-0.092,-0.027,-0.0,-0.029,-0.013,-0.004,-1.551,0.008,0.106,29.9,132.7,40.533794,-3.457166,649.8,6,5,269.6,0.0
30.06,1,-0.092,-0.015,-0.016,-0.077,-0.017,-0.011,-1.553,0.008,0.107,29.9,132.7,40.533794,-3.457166,649.8,6,5,269.6,0.0
30.17,1,-0.034,-0.027,0.013,-0.061,-0.024,0.001,-1.553,0.009,0.107,29.9,132.7,40.533794,-3.457166,649.8,6,5,269.6,0.0
30.27,1,-0.006,-0.008,-0.008,-0.034,-0.015,-0.002,-1.553,0.007,0.107,29.9,132.7,40.533794,-3.457166,649.8,6,5,269.6,0.0
30.36,1,0.071,-0.033,0.031,0.021,-0.028,0.009,-1.552,0.006,0.107,29.9,132.7,40.533794,-3.457166,649.8,6,5,269.6,0.0
30.46,1,0.004,-0.005,-0.028,0.032,-0.013,-0.001,-1.552,0.006,0.107,29.9,132.7,40.533794,-3.457166,649.8,6,5,269.6,0.0
30.56,1,-0.026,-0.013,0.005,0.002,-0.009,-0.007,-1.549,0.003,0.107,29.9,132.7,40.533794,-3.457166,649.8,6,5,269.6,0.0
30.66,1,-0.068,0.014,0.027,-0.042,-0.008,0.011,-1.549,0.002,0.107,29.9,132.7,40.533794,-3.457166,649.8,6,5,269.6,0.0
30.76,1,-0.042,0.038,0.001,-0.053,0.025,0.014,-1.552,0.003,0.106,29.9,132.7,40.533794,-3.457166,649.8,6,5,269.6,0.0
30.86,1,0.062,0.012,-0.006,0.001,0.017,0.003,-1.551,0.004,0.106,29.9,132.7,40.533794,-3.457166,649.8,6,5,269.6,0.0
30.96,1,0.051,0.038,-0.013,0.035,0.026,-0.007,-1.55,0.005,0.105,30.87,131.9,40.533794,-3.457602,648.9,6,5,269.6,0.0
31.06,1,-0.044,0.028,-0.064,0.012,0.028,-0.023,-1.55,0.005,0.104,30.87,131.9,40.533794,-3.457602,648.9,6,5,269.6,0.0
31.16,1,-0.047,0.0,0.033,-0.033,0.018,-0.022,-1.551,0.005,0.104,30.87,131.9,40.533794,-3.457602,648.9,6,5,269.6,0.0
31.26,1,-0.024,0.009,0.0,-0.029,0.006,0.009,-1.551,0.006,0.103,30.87,131.9,40.533794,-3.457602,648.9,6,5,269.6,0.0
31.37,1,-0.035,-0.015,-0.007,-0.031,0.004,-0.009,-1.55,0.006,0.104,30.87,131.9,40.533794,-3.457602,648.9,6,5,269.6,0.0
31.46,1,-0.011,0.04,-0.0,-0.019,0.011,0.001,-1.551,0.006,0.103,30.87,131.9,40.533794,-3.457602,648.9,6,5,269.6,0.0
31.56,1,-0.024,0.004,0.026,-0.025,0.016,0.009,-1.551,0.006,0.103,30.87,131.9,40.533794,-3.457602,648.9,6,5,269.6,0.0
31.66,1,-0.049,-0.004,-0.006,-0.033,0.009,0.008,-1.551,0.006,0.103,30.87,131.9,40.533794,-3.457602,648.9,6,5,269.6,0.0
31.76,1,-0.058,0.015,0.009,-0.045,0.008,0.007,-1.552,0.006,0.103,30.87,131.9,40.533794,-3.457602,648.9,6,5,269.6,0.0
31.87,1,-0.023,0.015,0.017,-0.039,0.006,0.019,-1.552,0.006,0.103,30.87,131.9,40.533794,-3.457602,648.9,6,5,269.6,0.0
31.96,1,-0.02,-0.006,-0.01,-0.034,0.004,-0.006,-1.552,0.007,0.103,31.89,132.4,40.533787,-3.458035,649.0,6,5,269.6,0.0
32.06,1,0.017,0.009,0.016,-0.006,0.003,0.007,-1.552,0.008,0.103,31.89,132.4,40.533787,-3.458035,649.0,6,5,269.6,0.0
32.16,1,0.046,-0.034,0.031,0.019,-0.007,0.014,-1.552,0.007,0.103,31.89,132.4,40.533787,-3.458035,649.0,6,5,269.6,0.0
32.26,1,-0.048,-0.028,-0.024,0.0,-0.023,0.004,-1.55,0.008,0.103,31.89,132.4,40.533787,-3.458035,649.0,6,5,269.6,0.0
32.36,1,-0.044,0.006,-0.015,-0.037,-0.011,-0.009,-1.551,0.007,0.101,31.89,132.4,40.533787,-3.458035,649.0,6,5,269.6,0.0
32.47,1,-0.036,0.021,-0.002,-0.03,0.005,-0.012,-1.552,0.007,0.102,31.89,132.4,40.533787,-3.458035,649.0,6,5,269.6,0.0
32.56,1,0.007,-0.0,0.01,-0.022,0.01,0.004,-1.551,0.007,0.102,31.89,132.4,40.533787,-3.458035,649.0,6,5,269.6,0.0
32.67,1,-0.018,-0.021,-0.009,-0.003,-0.008,0.003,-1.544,0.003,0.102,31.89,132.4,40.533787,-3.458035,649.0,6,5,269.6,0.0
32.77,1,-0.036,-0.002,-0.003,-0.026,-0.011,-0.006,-1.538,-0.001,0.101,31.89,132.4,40.533787,-3.458035,649.0,6,5,269.6,0.0
32.87,1,-0.049,0.008,0.022,-0.037,-0.003,0.011,-1.545,0.004,0.102,31.89,132.4,40.533787,-3.458035,649.0,6,5,269.6,0.0
32.97,1,0.016,0.006,0.022,-0.013,0.002,0.018,-1.545,0.004,0.102,32.86,131.8,40.533779,-3.458479,649.6,6,5,269.6,0.0
33.07,1,-0.011,0.001,-0.002,-0.005,0.006,0.007,-1.544,0.005,0.102,32.86,131.8,40.533779,-3.458479,649.6,6,5,269.6,0.0
33.17,1,-0.061,-0.004,0.005,-0.029,0.004,0.003,-1.545,0.006,0.102,32.86,131.8,40.533779,-3.458479,649.6,6,5,269.6,0.0
33.27,1,-0.138,-0.01,-0.007,-0.086,-0.007,-0.002,-1.547,0.006,0.103,32.86,131.8,40.533779,-3.458479,649.6,6,5,269.6,0.0
33.38,1,-0.019,-0.02,0.046,-0.074,-0.012,0.023,-1.556,0.011,0.103,32.86,131.8,40.533779,-3.458479,649.6,6,5,269.6,0.0
33.47,1,0.103,0.002,-0.015,0.018,-0.01,0.009,-1.561,0.016,0.102,32.86,131.8,40.533779,-3.458479,649.6,6,5,269.6,0.0
33.57,1,0.09,0.021,-0.003,0.069,0.002,-0.001,-1.559,0.013,0.102,32.86,131.8,40.533779,-3.458479,649.6,6,5,269.6,0.0
33.67,1,0.009,0.028,-0.016,0.049,0.015,-0.005,-1.555,0.012,0.102,32.86,131.8,40.533779,-3.458479,649.6,6,5,269.6,0.0
33.77,1,-0.074,-0.01,-0.021,-0.011,0.013,-0.019,-1.557,0.02,0.102,32.86,131.8,40.533779,-3.458479,649.6,6,5,269.6,0.0
33.97,1,-0.104,0.017,-0.02,-0.098,0.005,-0.012,-1.558,0.022,0.102,32.86,131.8,40.533779,-3.458479,649.6,6,5,269.6,0.0
34.07,1,0.003,0.018,0.023,-0.063,0.011,-0.001,-1.558,0.022,0.102,33.86,132.0,40.533775,-3.458918,649.8,6,5,269.6,0.0
34.17,1,0.168,0.015,0.006,0.05,0.016,0.014,-1.551,0.021,0.102,33.86,132.0,40.533775,-3.458918,649.8,6,5,269.6,0.0
34.28,1,0.103,-0.042,-0.018,0.114,-0.015,0.008,-1.548,0.019,0.102,33.86,132.0,40.533775,-3.458918,649.8,6,5,269.6,0.0
34.37,1,-0.164,0.028,-0.068,-0.0,0.006,-0.045,-1.551,0.015,0.101,33.86,132.0,40.533775,-3.458918,649.8,6,5,269.6,0.0
34.48,1,-0.011,0.063,0.108,-0.085,0.042,0.018,-1.553,0.015,0.101,33.86,132.0,40.533775,-3.458918,649.8,6,5,269.6,0.0
34.58,1,0.058,0.021,-0.16,0.031,0.025,-0.042,-1.546,0.019,0.102,33.86,132.0,40.533775,-3.458918,649.8,6,5,269.6,0.0
34.67,1,-0.045,0.016,0.016,-0.007,0.029,-0.048,-1.547,0.021,0.102,33.86,132.0,40.533775,-3.458918,649.8,6,5,269.6,0.0
34.77,1,0.037,-0.031,0.026,-0.01,-0.004,0.003,-1.549,0.02,0.101,33.86,132.0,40.533775,-3.458918,649.8,6,5,269.6,0.0
34.87,1,0.073,0.001,-0.0,0.044,-0.007,0.009,-1.546,0.016,0.101,33.86,132.0,40.533775,-3.458918,649.8,6,5,269.6,0.0
34.97,1,0.09,0.029,0.002,0.074,0.009,0.001,-1.542,0.005,0.1,33.86,132.0,40.533775,-3.458918,649.8,6,5,269.6,0.0
35.08,1,-0.082,0.016,-0.018,0.02,0.017,-0.006,-1.535,-0.003,0.1,34.86,131.5,40.533783,-3.459353,649.5,6,5,269.6,0.0
35.17,1,-0.114,-0.014,0.012,-0.063,-0.0,-0.001,-1.538,0.002,0.101,34.86,131.5,40.533783,-3.459353,649.5,6,5,269.6,0.0
35.27,1,-0.064,-0.022,0.015,-0.08,-0.009,0.01,-1.538,0.003,0.102,34.86,131.5,40.533783,-3.459353,649.5,6,5,269.6,0.0
35.37,1,0.027,-0.015,0.012,-0.035,-0.017,0.018,-1.533,0.012,0.097,34.86,131.5,40.533783,-3.459353,649.5,6,5,269.6,0.0
35.47,1,0.024,-0.004,0.014,0.01,-0.007,0.01,-1.531,0.016,0.099,34.86,131.5,40.533783,-3.459353,649.5,6,5,269.6,0.0
35.57,1,-0.049,-0.003,-0.012,-0.01,-0.002,-0.0,-1.533,0.013,0.1,34.86,131.5,40.533783,-3.459353,649.5,6,5,269.6,0.0
35.68,1,-0.09,0.012,0.009,-0.051,0.001,0.007,-1.537,0.014,0.1,34.86,131.5,40.533783,-3.459353,649.5,6,5,269.6,0.0
35.78,1,-0.07,-0.011,0.006,-0.072,0.001,0.0,-1.541,0.015,0.101,34.86,131.5,40.533783,-3.459353,649.5,6,5,269.6,0.0
35.87,1,-0.023,-0.019,0.015,-0.048,-0.019,0.008,-1.544,0.015,0.101,34.86,131.5,40.533783,-3.459353,649.5,6,5,269.6,0.0
35.97,1,-0.01,0.024,0.016,-0.031,-0.001,0.012,-1.548,0.013,0.101,34.86,131.5,40.533783,-3.459353,649.5,6,5,269.6,0.0
36.07,1,-0.013,-0.006,-0.029,-0.013,0.006,-0.002,-1.546,0.014,0.1,35.86,130.8,40.533783,-3.459788,649.7,6,5,269.6,0.0
36.18,1,-0.082,0.024,0.008,-0.042,0.011,-0.002,-1.546,0.013,0.101,35.86,130.8,40.533783,-3.459788,649.7,6,5,269.6,0.0
36.28,1,-0.087,-0.011,-0.02,-0.069,0.014,-0.006,-1.547,0.013,0.101,35.86,130.8,40.533783,-3.459788,649.7,6,5,269.6,0.0
36.38,1,-0.017,0.012,0.012,-0.054,-0.001,-0.003,-1.547,0.013,0.101,35.86,130.8,40.533783,-3.459788,649.7,6,5,269.6,0.0
36.48,1,0.01,-0.001,0.017,-0.021,0.002,0.006,-1.546,0.012,0.1,35.86,130.8,40.533783,-3.459788,649.7,6,5,269.6,0.0
36.58,1,-0.024,0.005,0.007,-0.014,0.006,0.01,-1.546,0.006,0.1,35.86,130.8,40.533783,-3.459788,649.7,6,5,269.6,0.0
36.68,1,-0.053,0.026,-0.025,-0.034,0.014,-0.005,-1.548,0.002,0.101,35.86,130.8,40.533783,-3.459788,649.7,6,5,269.6,0.0
36.78,1,-0.02,0.009,0.021,-0.034,0.014,0.0,-1.549,0.0,0.1,35.86,130.8,40.533783,-3.459788,649.7,6,5,269.6,0.0
36.88,1,0.054,-0.007,0.001,0.007,0.006,0.007,-1.547,0.0,0.1,35.86,130.8,40.533783,-3.459788,649.7,6,5,269.6,0.0
36.98,1,0.057,-0.003,-0.005,0.044,-0.003,-0.003,-1.544,-0.002,0.1,35.86,130.8,40.533783,-3.459788,649.7,6,5,269.6,0.0
37.08,1,-0.011,0.012,-0.001,0.022,-0.0,0.003,-1.548,-0.003,0.1,36.86,130.0,40.533787,-3.460207,650.1,6,5,269.6,0.0
37.18,1,-0.01,-0.035,-0.014,0.002,-0.016,-0.009,-1.55,0.003,0.1,36.86,130.0,40.533787,-3.460207,650.1,6,5,269.6,0.0
37.28,1,-0.035,-0.02,-0.007,-0.018,-0.018,-0.004,-1.549,0.001,0.1,36.86,130.0,40.533787,-3.460207,650.1,6,5,269.6,0.0
37.38,1,-0.037,-0.012,0.02,-0.034,-0.012,0.003,-1.549,-0.0,0.1,36.86,130.0,40.533787,-3.460207,650.1,6,5,269.6,0.0
37.49,1,0.005,0.001,0.001,-0.021,-0.009,0.004,-1.548,0.0,0.1,36.86,130.0,40.533787,-3.460207,650.1,6,5,269.6,0.0
37.59,1,0.025,-0.003,-0.021,0.01,-0.001,-0.009,-1.547,0.0,0.1,36.86,130.0,40.533787,-3.460207,650.1,6,5,269.6,0.0
37.68,1,-0.011,-0.026,0.004,0.006,-0.019,-0.007,-1.547,0.001,0.1,36.86,130.0,40.533787,-3.460207,650.1,6,5,269.6,0.0
37.78,1,-0.049,0.009,0.019,-0.024,-0.009,0.006,-1.548,0.001,0.099,36.86,130.0,40.533787,-3.460207,650.1,6,5,269.6,0.0
37.88,1,-0.009,-0.035,0.002,-0.019,-0.016,0.006,-1.548,0.003,0.1,36.86,130.0,40.533787,-3.460207,650.1,6,5,269.6,0.0
37.98,1,-0.034,-0.01,0.012,-0.022,-0.02,0.013,-1.547,0.003,0.099,36.86,130.0,40.533787,-3.460207,650.1,6,5,269.6,0.0
38.08,1,-0.03,-0.022,-0.025,-0.027,-0.012,-0.011,-1.548,-0.003,0.099,37.93,129.3,40.533783,-3.460629,650.3,6,5,269.6,0.0
38.19,1,0.029,0.012,0.0,-0.01,-0.005,-0.006,-1.553,-0.008,0.098,37.93,129.3,40.533783,-3.460629,650.3,6,5,269.6,0.0
38.28,1,-0.011,0.015,-0.017,-0.002,0.009,-0.007,-1.553,-0.008,0.098,37.93,129.3,40.533783,-3.460629,650.3,6,5,269.6,0.0
38.38,1,-0.036,0.009,-0.007,-0.016,0.008,-0.007,-1.551,0.003,0.098,37.93,129.3,40.533783,-3.460629,650.3,6,5,269.6,0.0
38.48,1,-0.006,-0.004,-0.011,-0.013,-0.001,-0.011,-1.55,0.008,0.098,37.93,129.3,40.533783,-3.460629,650.3,6,5,269.6,0.0
38.58,1,-0.077,-0.028,-0.013,-0.035,-0.012,-0.016,-1.549,0.008,0.098,37.93,129.3,40.533783,-3.460629,650.3,6,5,269.6,0.0
38.68,1,-0.048,-0.001,0.01,-0.06,-0.012,-0.004,-1.548,0.016,0.097,37.93,129.3,40.533783,-3.460629,650.3,6,5,269.6,0.0
38.79,1,0.025,0.019,0.029,-0.027,0.008,0.017,-1.551,0.019,0.097,37.93,129.3,40.533783,-3.460629,650.3,6,5,269.6,0.0
38.89,1,0.065,-0.004,-0.015,0.035,0.007,0.003,-1.548,0.02,0.097,37.93,129.3,40.533783,-3.460629,650.3,6,5,269.6,0.0
38.98,1,0.009,0.027,-0.009,0.026,0.01,-0.003,-1.548,0.023,0.097,37.93,129.3,40.533783,-3.460629,650.3,6,5,269.6,0.0
39.08,1,-0.013,0.006,-0.004,0.009,0.01,0.001,-1.552,0.019,0.098,38.86,128.2,40.533783,-3.461059,651.0,6,5,269.3,0.352
39.18,1,-0.05,0.009,0.004,-0.024,0.011,0.002,-1.556,0.02,0.097,38.86,128.2,40.533783,-3.461059,651.0,6,5,269.3,0.352
39.28,1,-0.028,0.011,-0.01,-0.029,0.015,-0.007,-1.556,0.022,0.097,38.86,128.2,40.533783,-3.461059,651.0,6,5,269.3,0.352
39.39,1,0.011,0.036,-0.024,-0.015,0.02,-0.016,-1.557,0.023,0.097,38.86,128.2,40.533783,-3.461059,651.0,6,5,269.3,0.352
39.48,1,0.011,0.009,-0.017,0.003,0.018,-0.02,-1.559,0.023,0.097,38.86,128.2,40.533783,-3.461059,651.0,6,5,269.3,0.352
39.58,1,0.025,0.039,0.01,0.014,0.021,-0.009,-1.555,0.02,0.096,38.86,128.2,40.533783,-3.461059,651.0,6,5,269.3,0.352
39.68,1,0.008,0.018,-0.008,0.017,0.022,-0.001,-1.555,0.02,0.096,38.86,128.2,40.533783,-3.461059,651.0,6,5,269.3,0.352
39.78,1,-0.019,-0.008,-0.021,0.0,0.018,-0.013,-1.552,0.019,0.096,38.86,128.2,40.533783,-3.461059,651.0,6,5,269.3,0.352
39.89,1,-0.019,0.006,-0.015,-0.01,0.004,-0.012,-1.552,0.018,0.096,38.86,128.2,40.533783,-3.461059,651.0,6,5,269.3,0.352
40.0,1,-0.029,0.028,-0.005,-0.02,0.011,-0.01,-1.552,0.017,0.096,38.86,128.2,40.533783,-3.461059,651.0,6,5,269.3,0.352
40.1,1,-0.051,0.006,-0.001,-0.038,0.017,-0.006,-1.553,0.018,0.096,39.88,128.1,40.533783,-3.461466,651.0,6,5,269.6,0.352
40.19,1,-0.076,-0.001,0.016,-0.048,0.0,-0.0,-1.554,0.018,0.096,39.88,128.1,40.533783,-3.461466,651.0,6,5,269.6,0.352
40.29,1,-0.019,0.008,-0.002,-0.057,0.005,0.01,-1.555,0.018,0.096,39.88,128.1,40.533783,-3.461466,651.0,6,5,269.6,0.352
40.39,1,0.03,0.007,0.01,-0.014,0.009,0.008,-1.554,0.018,0.095,39.88,128.1,40.533783,-3.461466,651.0,6,5,269.6,0.352
40.49,1,0.089,0.01,0.001,0.045,0.008,0.004,-1.552,0.015,0.096,39.88,128.1,40.533783,-3.461466,651.0,6,5,269.6,0.352
40.59,1,0.013,0.028,-0.014,0.047,0.015,-0.007,-1.553,0.014,0.096,39.88,128.1,40.533783,-3.461466,651.0,6,5,269.6,0.352
40.69,1,-0.001,-0.009,0.026,0.019,0.012,0.008,-1.556,0.018,0.096,39.88,128.1,40.533783,-3.461466,651.0,6,5,269.6,0.352
40.79,1,-0.039,0.013,-0.013,-0.016,0.005,-0.0,-1.557,0.019,0.096,39.88,128.1,40.533783,-3.461466,651.0,6,5,269.6,0.352
40.89,1,-0.01,0.005,-0.018,-0.019,0.007,-0.012,-1.554,0.02,0.097,39.88,128.1,40.533783,-3.461466,651.0,6,5,269.6,0.352
40.99,1,-0.016,-0.0,-0.025,-0.016,0.0,-0.016,-1.554,0.021,0.097,39.88,128.1,40.533783,-3.461466,651.0,6,5,269.6,0.352
41.09,1,-0.022,0.011,-0.006,-0.02,0.005,-0.011,-1.554,0.02,0.097,40.89,127.2,40.533779,-3.461873,651.9,6,5,270.0,0.703
41.19,1,-0.005,0.01,0.037,-0.013,0.008,0.003,-1.557,0.02,0.097,40.89,127.2,40.533779,-3.461873,651.9,6,5,270.0,0.703
41.3,1,0.024,-0.003,0.009,0.003,0.006,0.012,-1.558,0.02,0.097,40.89,127.2,40.533779,-3.461873,651.9,6,5,270.0,0.703
41.39,1,-0.033,0.014,-0.03,-0.001,0.01,0.001,-1.556,0.02,0.097,40.89,127.2,40.533779,-3.461873,651.9,6,5,270.0,0.703
41.49,1,-0.048,0.018,-0.018,-0.031,0.013,-0.009,-1.552,0.017,0.097,40.89,127.2,40.533779,-3.461873,651.9,6,5,270.0,0.703
41.59,1,0.008,-0.022,0.061,-0.019,-0.004,0.017,-1.55,0.015,0.097,40.89,127.2,40.533779,-3.461873,651.9,6,5,270.0,0.703
41.7,1,-0.023,0.008,-0.0,-0.013,-0.001,0.009,-1.549,0.014,0.097,40.89,127.2,40.533779,-3.461873,651.9,6,5,270.0,0.703
41.79,1,-0.079,-0.02,-0.007,-0.035,0.001,0.007,-1.549,0.014,0.097,40.89,127.2,40.533779,-3.461873,651.9,6,5,270.0,0.703
41.89,1,0.015,0.043,0.034,-0.02,0.003,0.015,-1.548,0.014,0.097,40.89,127.2,40.533779,-3.461873,651.9,6,5,270.0,0.703
41.99,1,-0.047,0.022,0.053,-0.043,0.021,0.028,-1.55,0.014,0.096,40.89,127.2,40.533779,-3.461873,651.9,6,5,270.0,0.703
42.09,1,0.008,0.009,0.077,-0.023,0.019,0.057,-1.551,0.013,0.096,41.86,126.2,40.533791,-3.462297,652.1,6,5,269.6,0.352
42.19,1,0.066,0.017,0.044,0.03,0.019,0.05,-1.549,0.013,0.096,41.86,126.2,40.533791,-3.462297,652.1,6,5,269.6,0.352
42.29,1,0.002,0.01,0.049,0.03,0.016,0.052,-1.549,0.014,0.095,41.86,126.2,40.533791,-3.462297,652.1,6,5,269.6,0.352
42.39,1,-0.05,0.066,0.042,-0.019,0.027,0.052,-1.549,0.014,0.095,41.86,126.2,40.533791,-3.462297,652.1,6,5,269.6,0.352
42.5,1,0.002,0.018,0.049,-0.014,0.035,0.049,-1.548,0.014,0.095,41.86,126.2,40.533791,-3.462297,652.1,6,5,269.6,0.352
42.59,1,-0.001,-0.009,0.055,0.001,0.011,0.049,-1.55,0.013,0.094,41.86,126.2,40.533791,-3.462297,652.1,6,5,269.6,0.352
42.7,1,-0.046,0.008,0.031,-0.021,0.012,0.038,-1.56,0.011,0.094,41.86,126.2,40.533791,-3.462297,652.1,6,5,269.6,0.352
42.79,1,-0.029,0.005,0.015,-0.031,0.01,0.029,-1.562,0.009,0.094,41.86,126.2,40.533791,-3.462297,652.1,6,5,269.6,0.352
42.89,1,-0.005,0.056,0.03,-0.019,0.02,0.029,-1.562,0.008,0.093,41.86,126.2,40.533791,-3.462297,652.1,6,5,269.6,0.352
43.0,1,-0.026,0.028,0.034,-0.016,0.032,0.032,-1.561,0.009,0.093,41.86,126.2,40.533791,-3.462297,652.1,6,5,269.6,0.352
43.1,1,0.031,0.004,0.064,-0.0,0.021,0.044,-1.561,0.01,0.093,42.86,125.2,40.533791,-3.462692,652.4,6,5,270.0,0.352
43.2,1,0.021,-0.02,0.046,0.013,0.004,0.044,-1.56,0.01,0.093,42.86,125.2,40.533791,-3.462692,652.4,6,5,270.0,0.352
43.3,1,0.006,0.019,0.014,0.014,0.006,0.037,-1.559,0.009,0.092,42.86,125.2,40.533791,-3.462692,652.4,6,5,270.0,0.352
43.4,1,-0.041,0.026,0.054,-0.007,0.011,0.042,-1.561,0.009,0.092,42.86,125.2,40.533791,-3.462692,652.4,6,5,270.0,0.352
43.5,1,-0.042,0.004,0.06,-0.041,0.01,0.047,-1.567,0.014,0.093,42.86,125.2,40.533791,-3.462692,652.4,6,5,270.0,0.352
43.6,1,-0.028,0.003,0.03,-0.032,0.008,0.048,-1.569,0.013,0.093,42.86,125.2,40.533791,-3.462692,652.4,6,5,270.0,0.352
43.7,1,-0.013,0.007,0.027,-0.021,0.007,0.032,-1.574,0.019,0.093,42.86,125.2,40.533791,-3.462692,652.4,6,5,270.0,0.352
43.8,1,-0.015,0.0,0.029,-0.014,0.007,0.031,-1.576,0.014,0.093,42.86,125.2,40.533791,-3.462692,652.4,6,5,270.0,0.352
44.0,1,-0.043,-0.006,-0.004,-0.026,0.004,0.015,-1.576,0.014,0.094,42.86,125.2,40.533791,-3.462692,652.4,6,5,270.0,0.352
44.1,1,0.022,-0.004,0.017,-0.016,-0.005,0.016,-1.579,0.013,0.093,42.86,125.2,40.533791,-3.462692,652.4,6,5,270.0,0.352
44.21,1,0.073,0.023,-0.031,0.038,0.007,-0.003,-1.579,0.019,0.093,43.89,126.3,40.533787,-3.463108,652.9,6,5,270.0,0.352
44.3,1,0.051,0.02,-0.03,0.048,0.017,-0.026,-1.576,0.019,0.093,43.89,126.3,40.533787,-3.463108,652.9,6,5,270.0,0.352
44.4,1,0.054,0.0,-0.04,0.05,0.012,-0.034,-1.574,0.019,0.093,43.89,126.3,40.533787,-3.463108,652.9,6,5,270.0,0.352
44.5,1,0.001,0.047,-0.065,0.036,0.026,-0.044,-1.572,0.019,0.092,43.89,126.3,40.533787,-3.463108,652.9,6,5,270.0,0.352
44.6,1,-0.022,0.036,-0.03,0.003,0.028,-0.041,-1.572,0.018,0.092,43.89,126.3,40.533787,-3.463108,652.9,6,5,270.0,0.352
44.7,1,-0.005,-0.005,-0.042,-0.008,0.023,-0.042,-1.572,0.018,0.093,43.89,126.3,40.533787,-3.463108,652.9,6,5,270.0,0.352
44.8,1,0.027,-0.007,-0.075,0.007,0.001,-0.051,-1.571,0.019,0.093,43.89,126.3,40.533787,-3.463108,652.9,6,5,270.0,0.352
44.9,1,-0.055,0.016,-0.088,-0.016,0.007,-0.079,-1.571,0.019,0.093,43.89,126.3,40.533787,-3.463108,652.9,6,5,270.0,0.352
45.0,1,-0.038,0.052,-0.071,-0.032,0.028,-0.076,-1.571,0.02,0.092,43.89,126.3,40.533787,-3.463108,652.9,6,5,270.0,0.352
45.1,1,-0.035,-0.005,-0.055,-0.033,0.019,-0.063,-1.571,0.022,0.092,43.89,126.3,40.533787,-3.463108,652.9,6,5,270.0,0.352
45.2,1,-0.034,0.029,-0.06,-0.036,0.014,-0.057,-1.571,0.022,0.091,44.86,127.8,40.533787,-3.463537,653.7,6,5,269.6,0.352
45.3,1,0.009,0.03,-0.049,-0.011,0.03,-0.062,-1.567,0.019,0.091,44.86,127.8,40.533787,-3.463537,653.7,6,5,269.6,0.352
45.4,1,0.002,0.015,-0.032,-0.005,0.022,-0.048,-1.567,0.022,0.091,44.86,127.8,40.533787,-3.463537,653.7,6,5,269.6,0.352
45.51,1,-0.017,0.025,-0.007,-0.012,0.026,-0.03,-1.562,0.016,0.09,44.86,127.8,40.533787,-3.463537,653.7,6,5,269.6,0.352
45.61,1,-0.001,0.006,0.046,-0.008,0.011,0.012,-1.563,0.017,0.09,44.86,127.8,40.533787,-3.463537,653.7,6,5,269.6,0.352
45.7,1,-0.0,0.025,0.044,-0.002,0.014,0.031,-1.564,0.018,0.089,44.86,127.8,40.533787,-3.463537,653.7,6,5,269.6,0.352
45.8,1,0.013,0.011,0.038,0.008,0.02,0.034,-1.564,0.019,0.089,44.86,127.8,40.533787,-3.463537,653.7,6,5,269.6,0.352
45.91,1,0.007,0.046,0.03,0.003,0.031,0.033,-1.565,0.019,0.088,44.86,127.8,40.533787,-3.463537,653.7,6,5,269.6,0.352
46.0,1,0.037,0.047,0.018,0.02,0.038,0.031,-1.569,0.02,0.087,44.86,127.8,40.533787,-3.463537,653.7,6,5,269.6,0.352
46.11,1,-0.026,0.031,0.032,0.009,0.033,0.022,-1.569,0.017,0.086,44.86,127.8,40.533787,-3.463537,653.7,6,5,269.6,0.352
46.21,1,-0.029,0.033,0.043,-0.022,0.032,0.038,-1.572,0.009,0.085,45.88,126.6,40.533783,-3.46395,654.4,6,5,270.0,0.352
46.31,1,-0.011,0.017,0.043,-0.017,0.032,0.038,-1.575,0.004,0.083,45.88,126.6,40.533783,-3.46395,654.4,6,5,270.0,0.352
46.4,1,0.029,0.021,0.027,0.008,0.027,0.037,-1.577,-0.001,0.082,45.88,126.6,40.533783,-3.46395,654.4,6,5,270.0,0.352
46.51,1,-0.006,0.027,0.027,0.01,0.027,0.028,-1.574,0.004,0.081,45.88,126.6,40.533783,-3.46395,654.4,6,5,270.0,0.352
46.61,1,0.035,0.044,0.029,0.013,0.03,0.033,-1.574,0.006,0.079,45.88,126.6,40.533783,-3.46395,654.4,6,5,270.0,0.352
46.7,1,-0.008,0.064,0.034,0.008,0.042,0.033,-1.574,0.008,0.079,45.88,126.6,40.533783,-3.46395,654.4,6,5,270.0,0.352
46.81,1,-0.085,0.035,0.017,-0.04,0.042,0.02,-1.575,0.012,0.078,45.88,126.6,40.533783,-3.46395,654.4,6,5,270.0,0.352
46.9,1,-0.05,-0.003,0.034,-0.055,0.027,0.025,-1.577,0.014,0.076,45.88,126.6,40.533783,-3.46395,654.4,6,5,270.0,0.352
47.0,1,-0.034,0.04,0.031,-0.038,0.029,0.033,-1.577,0.013,0.074,45.88,126.6,40.533783,-3.46395,654.4,6,5,270.0,0.352
47.11,1,-0.034,0.041,0.037,-0.036,0.038,0.035,-1.577,0.013,0.073,45.88,126.6,40.533783,-3.46395,654.4,6,5,270.0,0.352
47.21,1,0.023,0.055,0.047,-0.018,0.042,0.037,-1.577,0.012,0.071,46.86,125.6,40.533779,-3.46436,654.8,6,5,270.0,0.352
47.31,1,0.061,0.101,0.035,0.028,0.064,0.041,-1.576,0.011,0.068,46.86,125.6,40.533779,-3.46436,654.8,6,5,270.0,0.352
47.42,1,0.034,0.142,-0.015,0.035,0.11,0.014,-1.574,0.011,0.064,46.86,125.6,40.533779,-3.46436,654.8,6,5,270.0,0.352
47.51,1,0.04,0.145,0.025,0.043,0.133,0.018,-1.573,0.012,0.06,46.86,125.6,40.533779,-3.46436,654.8,6,5,270.0,0.352
47.61,1,-0.025,0.202,-0.002,0.004,0.162,0.005,-1.578,-0.0,0.054,46.86,125.6,40.533779,-3.46436,654.8,6,5,270.0,0.352
47.71,1,-0.068,0.188,0.001,-0.026,0.18,0.013,-1.578,-0.001,0.049,46.86,125.6,40.533779,-3.46436,654.8,6,5,270.0,0.352
47.81,1,-0.057,0.152,0.018,-0.056,0.169,0.004,-1.574,-0.009,0.043,46.86,125.6,40.533779,-3.46436,654.8,6,5,270.0,0.352
47.91,1,-0.045,0.127,0.012,-0.035,0.155,0.015,-1.581,-0.014,0.038,46.86,125.6,40.533779,-3.46436,654.8,6,5,270.0,0.352
48.02,1,-0.048,0.128,0.007,-0.048,0.136,0.009,-1.585,-0.025,0.033,46.86,125.6,40.533779,-3.46436,654.8,6,5,270.0,0.352
48.11,1,-0.04,0.103,-0.01,-0.052,0.121,-0.002,-1.588,-0.031,0.028,46.86,125.6,40.533779,-3.46436,654.8,6,5,270.0,0.352
48.22,1,-0.033,0.087,0.012,-0.036,0.098,0.003,-1.592,-0.036,0.024,47.92,126.7,40.533783,-3.464776,655.5,4,5,270.7,0.703
48.31,1,0.033,0.115,0.033,-0.013,0.102,0.017,-1.591,-0.037,0.019,47.92,126.7,40.533783,-3.464776,655.5,4,5,270.7,0.703
48.41,1,-0.034,0.11,-0.009,0.006,0.109,0.009,-1.591,-0.034,0.014,47.92,126.7,40.533783,-3.464776,655.5,4,5,270.7,0.703
48.52,1,-0.079,0.13,0.015,-0.046,0.124,0.007,-1.594,-0.032,0.009,47.92,126.7,40.533783,-3.464776,655.5,4,5,270.7,0.703
48.62,1,-0.088,0.085,0.03,-0.077,0.11,0.018,-1.596,-0.03,0.004,47.92,126.7,40.533783,-3.464776,655.5,4,5,270.7,0.703
48.71,1,-0.006,0.089,0.027,-0.052,0.09,0.028,-1.596,-0.03,-0.002,47.92,126.7,40.533783,-3.464776,655.5,4,5,270.7,0.703
48.81,1,0.046,0.126,-0.001,-0.003,0.106,0.01,-1.598,-0.033,-0.007,47.92,126.7,40.533783,-3.464776,655.5,4,5,270.7,0.703
48.91,1,0.046,0.126,0.032,0.026,0.118,0.017,-1.598,-0.032,-0.013,47.92,126.7,40.533783,-3.464776,655.5,4,5,270.7,0.703
49.01,1,0.006,0.173,-0.012,0.035,0.14,0.016,-1.598,-0.034,-0.019,47.92,126.7,40.533783,-3.464776,655.5,4,5,270.7,0.703
49.12,1,-0.02,0.159,-0.011,0.002,0.159,-0.005,-1.602,-0.042,-0.026,47.92,126.7,40.533783,-3.464776,655.5,4,5,270.7,0.703
49.21,1,-0.04,0.138,0.001,-0.022,0.146,-0.007,-1.603,-0.041,-0.033,48.9,127.7,40.533791,-3.465198,655.9,4,5,272.8,2.812
49.31,1,-0.078,0.185,-0.025,-0.048,0.163,-0.015,-1.604,-0.041,-0.04,48.9,127.7,40.533791,-3.465198,655.9,4,5,272.8,2.812
49.41,1,-0.072,0.129,0.008,-0.066,0.158,-0.004,-1.606,-0.04,-0.046,48.9,127.7,40.533791,-3.465198,655.9,4,5,272.8,2.812
49.52,1,-0.063,0.152,-0.003,-0.067,0.145,0.001,-1.608,-0.04,-0.053,48.9,127.7,40.533791,-3.465198,655.9,4,5,272.8,2.812
49.62,1,-0.03,0.154,0.016,-0.051,0.145,0.002,-1.609,-0.041,-0.06,48.9,127.7,40.533791,-3.465198,655.9,4,5,272.8,2.812
49.72,1,0.041,0.175,0.042,-0.01,0.16,0.027,-1.61,-0.043,-0.068,48.9,127.7,40.533791,-3.465198,655.9,4,5,272.8,2.812
49.81,1,0.006,0.179,-0.002,0.013,0.178,0.011,-1.61,-0.043,-0.076,48.9,127.7,40.533791,-3.465198,655.9,4,5,272.8,2.812
49.92,1,-0.08,0.202,-0.013,-0.023,0.187,0.005,-1.611,-0.042,-0.084,48.9,127.7,40.533791,-3.465198,655.9,4,5,272.8,2.812
50.01,1,-0.059,0.183,-0.018,-0.061,0.194,-0.014,-1.613,-0.051,-0.092,48.9,127.7,40.533791,-3.465198,655.9,4,5,272.8,2.812
50.11,1,-0.019,0.177,-0.03,-0.043,0.179,-0.019,-1.614,-0.056,-0.099,48.9,127.7,40.533791,-3.465198,655.9,4,5,272.8,2.812
50.21,1,-0.008,0.152,-0.023,-0.015,0.164,-0.021,-1.615,-0.055,-0.106,49.89,128.8,40.533813,-3.465623,656.7,4,5,275.6,4.922
50.32,1,-0.018,0.14,-0.03,-0.013,0.15,-0.027,-1.616,-0.053,-0.113,49.89,128.8,40.533813,-3.465623,656.7,4,5,275.6,4.922
50.42,1,-0.07,0.133,-0.003,-0.042,0.14,-0.022,-1.618,-0.054,-0.12,49.89,128.8,40.533813,-3.465623,656.7,4,5,275.6,4.922
50.53,1,-0.035,0.135,-0.014,-0.053,0.135,-0.012,-1.618,-0.075,-0.127,49.89,128.8,40.533813,-3.465623,656.7,4,5,275.6,4.922
50.62,1,0.041,0.165,-0.003,-0.017,0.153,-0.005,-1.619,-0.085,-0.135,49.89,128.8,40.533813,-3.465623,656.7,4,5,275.6,4.922
50.72,1,0.103,0.114,-0.014,0.057,0.145,-0.009,-1.618,-0.083,-0.141,49.89,128.8,40.533813,-3.465623,656.7,4,5,275.6,4.922
50.82,1,-0.016,0.131,-0.031,0.041,0.125,-0.02,-1.619,-0.081,-0.148,49.89,128.8,40.533813,-3.465623,656.7,4,5,275.6,4.922
50.92,1,-0.061,0.117,-0.019,-0.015,0.123,-0.022,-1.62,-0.089,-0.155,49.89,128.8,40.533813,-3.465623,656.7,4,5,275.6,4.922
51.02,1,-0.072,0.1,-0.009,-0.049,0.112,-0.015,-1.622,-0.095,-0.161,49.89,128.8,40.533813,-3.465623,656.7,4,5,275.6,4.922
51.12,1,-0.014,0.053,-0.025,-0.038,0.086,-0.018,-1.625,-0.105,-0.167,49.89,128.8,40.533813,-3.465623,656.7,4,5,275.6,4.922
51.22,1,-0.021,0.064,-0.036,-0.026,0.072,-0.032,-1.623,-0.11,-0.172,50.91,129.9,40.533855,-3.466043,657.2,4,5,279.5,6.68
51.32,1,-0.065,0.068,-0.011,-0.044,0.068,-0.024,-1.612,-0.116,-0.178,50.91,129.9,40.533855,-3.466043,657.2,4,5,279.5,6.68
51.42,1,-0.085,0.104,-0.018,-0.071,0.082,-0.008,-1.612,-0.12,-0.185,50.91,129.9,40.533855,-3.466043,657.2,4,5,279.5,6.68
51.52,1,-0.03,0.116,-0.033,-0.052,0.103,-0.022,-1.613,-0.121,-0.192,50.91,129.9,40.533855,-3.466043,657.2,4,5,279.5,6.68
51.62,1,-0.016,0.098,0.001,-0.034,0.099,-0.013,-1.615,-0.12,-0.199,50.91,129.9,40.533855,-3.466043,657.2,4,5,279.5,6.68
51.72,1,-0.039,0.111,-0.036,-0.029,0.102,-0.022,-1.616,-0.121,-0.206,50.91,129.9,40.533855,-3.466043,657.2,4,5,279.5,6.68
51.82,1,-0.075,0.125,-0.02,-0.044,0.111,-0.029,-1.618,-0.121,-0.214,50.91,129.9,40.533855,-3.466043,657.2,4,5,279.5,6.68
51.92,1,-0.057,0.131,-0.047,-0.057,0.128,-0.031,-1.618,-0.121,-0.222,50.91,129.9,40.533855,-3.466043,657.2,4,5,279.5,6.68
52.02,1,-0.039,0.126,-0.009,-0.05,0.126,-0.028,-1.62,-0.122,-0.23,50.91,129.9,40.533855,-3.466043,657.2,4,5,279.5,6.68
52.12,1,-0.095,0.112,-0.016,-0.069,0.122,-0.025,-1.622,-0.124,-0.238,50.91,129.9,40.533855,-3.466043,657.2,4,5,279.5,6.68
52.23,1,-0.075,0.141,-0.039,-0.082,0.128,-0.027,-1.624,-0.125,-0.247,51.87,130.4,40.533916,-3.466446,658.1,4,5,283.4,7.734
52.33,1,-0.046,0.116,-0.018,-0.066,0.133,-0.025,-1.626,-0.124,-0.254,51.87,130.4,40.533916,-3.466446,658.1,4,5,283.4,7.734
52.42,1,-0.04,0.11,-0.037,-0.049,0.118,-0.027,-1.628,-0.122,-0.261,51.87,130.4,40.533916,-3.466446,658.1,4,5,283.4,7.734
52.52,1,0.031,0.082,-0.014,-0.015,0.1,-0.018,-1.63,-0.122,-0.268,51.87,130.4,40.533916,-3.466446,658.1,4,5,283.4,7.734
52.62,1,0.037,0.081,-0.013,0.015,0.082,-0.016,-1.63,-0.123,-0.275,51.87,130.4,40.533916,-3.466446,658.1,4,5,283.4,7.734
52.72,1,-0.003,0.107,-0.042,0.019,0.094,-0.024,-1.631,-0.122,-0.282,51.87,130.4,40.533916,-3.466446,658.1,4,5,283.4,7.734
52.83,1,-0.039,0.103,-0.051,-0.011,0.098,-0.041,-1.632,-0.121,-0.289,51.87,130.4,40.533916,-3.466446,658.1,4,5,283.4,7.734
52.93,1,-0.051,0.103,-0.018,-0.036,0.104,-0.036,-1.634,-0.123,-0.296,51.87,130.4,40.533916,-3.466446,658.1,4,5,283.4,7.734
53.03,1,-0.048,0.09,-0.047,-0.04,0.095,-0.035,-1.639,-0.128,-0.304,51.87,130.4,40.533916,-3.466446,658.1,4,5,283.4,7.734
53.12,1,-0.045,0.091,-0.034,-0.048,0.091,-0.037,-1.641,-0.127,-0.31,51.87,130.4,40.533916,-3.466446,658.1,4,5,283.4,7.734
53.22,1,-0.027,0.084,-0.047,-0.043,0.089,-0.039,-1.642,-0.126,-0.318,52.87,132.2,40.534008,-3.466861,658.9,4,5,287.9,8.438
53.32,1,-0.012,0.072,-0.051,-0.021,0.086,-0.052,-1.639,-0.132,-0.325,52.87,132.2,40.534008,-3.466861,658.9,4,5,287.9,8.438
53.42,1,-0.045,0.082,-0.037,-0.03,0.079,-0.048,-1.626,-0.147,-0.33,52.87,132.2,40.534008,-3.466861,658.9,4,5,287.9,8.438
53.52,1,0.002,0.073,0.022,-0.024,0.073,-0.012,-1.629,-0.158,-0.338,52.87,132.2,40.534008,-3.466861,658.9,4,5,287.9,8.438
53.63,1,-0.033,0.085,-0.035,-0.018,0.077,-0.012,-1.631,-0.159,-0.346,52.87,132.2,40.534008,-3.466861,658.9,4,5,287.9,8.438
53.72,1,-0.044,0.065,-0.038,-0.03,0.076,-0.026,-1.633,-0.16,-0.353,52.87,132.2,40.534008,-3.466861,658.9,4,5,287.9,8.438
53.82,1,-0.029,0.082,-0.015,-0.027,0.081,-0.034,-1.634,-0.159,-0.361,52.87,132.2,40.534008,-3.466861,658.9,4,5,287.9,8.438
54.03,1,-0.047,0.074,-0.019,-0.066,0.077,-0.035,-1.639,-0.159,-0.377,52.87,132.2,40.534008,-3.466861,658.9,4,5,287.9,8.438
54.13,1,-0.013,0.096,-0.059,-0.042,0.086,-0.04,-1.638,-0.167,-0.384,52.87,132.2,40.534008,-3.466861,658.9,4,5,287.9,8.438
54.23,1,-0.029,0.074,-0.024,-0.028,0.083,-0.042,-1.636,-0.181,-0.391,52.87,132.2,40.534008,-3.466861,658.9,4,5,287.9,8.438
54.33,1,0.045,0.066,-0.006,0.006,0.077,-0.019,-1.632,-0.195,-0.399,53.92,133.0,40.534122,-3.46727,659.2,4,5,291.8,8.438
54.43,1,-0.085,0.046,-0.055,-0.02,0.06,-0.034,-1.624,-0.202,-0.404,53.92,133.0,40.534122,-3.46727,659.2,4,5,291.8,8.438
54.53,1,-0.082,0.033,-0.008,-0.068,0.044,-0.029,-1.62,-0.204,-0.41,53.92,133.0,40.534122,-3.46727,659.2,4,5,291.8,8.438
54.63,1,-0.053,0.037,-0.019,-0.06,0.038,-0.019,-1.619,-0.206,-0.418,53.92,133.0,40.534122,-3.46727,659.2,4,5,291.8,8.438
54.73,1,-0.081,0.019,-0.025,-0.062,0.029,-0.021,-1.621,-0.205,-0.425,53.92,133.0,40.534122,-3.46727,659.2,4,5,291.8,8.438
54.83,1,-0.094,0.029,-0.002,-0.084,0.027,-0.012,-1.62,-0.204,-0.431,53.92,133.0,40.534122,-3.46727,659.2,4,5,291.8,8.438
54.93,1,-0.044,0.026,0.004,-0.074,0.029,-0.008,-1.617,-0.208,-0.438,53.92,133.0,40.534122,-3.46727,659.2,4,5,291.8,8.438
55.03,1,-0.001,0.034,-0.014,-0.031,0.026,-0.003,-1.614,-0.212,-0.445,53.92,133.0,40.534122,-3.46727,659.2,4,5,291.8,8.438
55.13,1,-0.031,0.053,-0.019,-0.028,0.038,-0.012,-1.615,-0.213,-0.453,53.92,133.0,40.534122,-3.46727,659.2,4,5,291.8,8.438
55.23,1,-0.033,0.04,0.001,-0.028,0.044,-0.005,-1.617,-0.213,-0.461,53.92,133.0,40.534122,-3.46727,659.2,4,5,291.8,8.438
55.33,1,-0.06,0.028,-0.036,-0.034,0.038,-0.02,-1.618,-0.211,-0.468,54.91,136.0,40.53426,-3.467676,659.7,6,5,295.0,7.031
55.44,1,-0.058,0.043,-0.037,-0.059,0.036,-0.036,-1.621,-0.211,-0.475,54.91,136.0,40.53426,-3.467676,659.7,6,5,295.0,7.031
55.53,1,-0.067,0.06,-0.061,-0.061,0.05,-0.04,-1.625,-0.21,-0.483,54.91,136.0,40.53426,-3.467676,659.7,6,5,295.0,7.031
55.63,1,-0.036,0.027,0.013,-0.058,0.045,-0.03,-1.626,-0.208,-0.491,54.91,136.0,40.53426,-3.467676,659.7,6,5,295.0,7.031
55.73,1,-0.026,0.044,-0.045,-0.033,0.034,-0.019,-1.627,-0.207,-0.499,54.91,136.0,40.53426,-3.467676,659.7,6,5,295.0,7.031
55.83,1,-0.013,0.041,-0.052,-0.024,0.047,-0.038,-1.629,-0.207,-0.507,54.91,136.0,40.53426,-3.467676,659.7,6,5,295.0,7.031
55.93,1,-0.111,0.039,-0.044,-0.054,0.039,-0.049,-1.628,-0.209,-0.514,54.91,136.0,40.53426,-3.467676,659.7,6,5,295.0,7.031
56.04,1,-0.11,0.064,-0.026,-0.096,0.051,-0.036,-1.63,-0.211,-0.522,54.91,136.0,40.53426,-3.467676,659.7,6,5,295.0,7.031
56.14,1,-0.039,0.04,-0.028,-0.079,0.049,-0.031,-1.632,-0.21,-0.53,54.91,136.0,40.53426,-3.467676,659.7,6,5,295.0,7.031
56.23,1,0.001,0.015,-0.035,-0.037,0.034,-0.032,-1.633,-0.207,-0.537,54.91,136.0,40.53426,-3.467676,659.7,6,5,295.0,7.031
56.33,1,-0.031,0.029,-0.013,-0.024,0.024,-0.026,-1.635,-0.207,-0.545,55.87,134.9,40.534428,-3.468055,660.1,6,5,300.6,8.789
56.43,1,-0.006,0.051,-0.048,-0.014,0.034,-0.032,-1.637,-0.207,-0.552,55.87,134.9,40.534428,-3.468055,660.1,6,5,300.6,8.789
56.54,1,-0.067,0.042,-0.049,-0.03,0.046,-0.043,-1.639,-0.206,-0.56,55.87,134.9,40.534428,-3.468055,660.1,6,5,300.6,8.789
56.64,1,-0.06,0.035,-0.031,-0.06,0.041,-0.043,-1.642,-0.206,-0.568,55.87,134.9,40.534428,-3.468055,660.1,6,5,300.6,8.789
56.73,1,0.015,0.008,-0.045,-0.027,0.023,-0.038,-1.643,-0.207,-0.576,55.87,134.9,40.534428,-3.468055,660.1,6,5,300.6,8.789
56.83,1,0.0,0.031,-0.049,-0.009,0.024,-0.041,-1.644,-0.208,-0.583,55.87,134.9,40.534428,-3.468055,660.1,6,5,300.6,8.789
56.93,1,-0.084,0.096,-0.098,-0.035,0.053,-0.066,-1.647,-0.208,-0.591,55.87,134.9,40.534428,-3.468055,660.1,6,5,300.6,8.789
57.03,1,-0.03,0.045,-0.013,-0.045,0.062,-0.058,-1.649,-0.204,-0.598,55.87,134.9,40.534428,-3.468055,660.1,6,5,300.6,8.789
57.14,1,0.027,0.029,-0.094,-0.001,0.046,-0.05,-1.649,-0.201,-0.605,55.87,134.9,40.534428,-3.468055,660.1,6,5,300.6,8.789
57.23,1,-0.066,-0.049,-0.048,-0.029,0.007,-0.067,-1.652,-0.2,-0.612,55.87,134.9,40.534428,-3.468055,660.1,6,5,300.6,8.789
57.34,1,-0.082,0.032,-0.069,-0.054,-0.006,-0.055,-1.655,-0.203,-0.62,56.88,135.7,40.534615,-3.468427,661.6,4,5,305.2,10.195
57.43,1,-0.103,0.049,-0.101,-0.087,0.032,-0.081,-1.657,-0.204,-0.627,56.88,135.7,40.534615,-3.468427,661.6,4,5,305.2,10.195
57.53,1,-0.029,0.038,-0.093,-0.073,0.032,-0.082,-1.658,-0.204,-0.634,56.88,135.7,40.534615,-3.468427,661.6,4,5,305.2,10.195
57.63,1,-0.016,0.047,-0.124,-0.029,0.044,-0.108,-1.658,-0.203,-0.642,56.88,135.7,40.534615,-3.468427,661.6,4,5,305.2,10.195
57.74,1,-0.033,0.009,-0.138,-0.032,0.028,-0.124,-1.66,-0.203,-0.649,56.88,135.7,40.534615,-3.468427,661.6,4,5,305.2,10.195
57.84,1,-0.03,0.031,-0.148,-0.028,0.026,-0.14,-1.662,-0.205,-0.658,56.88,135.7,40.534615,-3.468427,661.6,4,5,305.2,10.195
57.94,1,-0.093,0.065,-0.168,-0.055,0.042,-0.153,-1.664,-0.206,-0.666,56.88,135.7,40.534615,-3.468427,661.6,4,5,305.2,10.195
58.04,1,-0.1,0.033,-0.198,-0.089,0.048,-0.178,-1.667,-0.206,-0.673,56.88,135.7,40.534615,-3.468427,661.6,4,5,305.2,10.195
58.14,1,-0.067,0.079,-0.162,-0.089,0.055,-0.166,-1.669,-0.207,-0.682,56.88,135.7,40.534615,-3.468427,661.6,4,5,305.2,10.195
58.24,1,0.012,0.055,-0.178,-0.032,0.062,-0.172,-1.669,-0.205,-0.69,56.88,135.7,40.534615,-3.468427,661.6,4,5,305.2,10.195
58.34,1,-0.076,0.023,-0.176,-0.026,0.044,-0.174,-1.671,-0.203,-0.699,57.87,136.8,40.534824,-3.46877,662.0,4,5,309.4,8.789
58.44,1,-0.133,0.048,-0.194,-0.086,0.047,-0.193,-1.674,-0.204,-0.706,57.87,136.8,40.534824,-3.46877,662.0,4,5,309.4,8.789
58.54,1,-0.05,0.039,-0.173,-0.089,0.042,-0.177,-1.676,-0.204,-0.713,57.87,136.8,40.534824,-3.46877,662.0,4,5,309.4,8.789
58.64,1,0.036,0.054,-0.2,-0.033,0.04,-0.19,-1.676,-0.203,-0.722,57.87,136.8,40.534824,-3.46877,662.0,4,5,309.4,8.789
58.74,1,0.004,0.051,-0.215,0.011,0.052,-0.197,-1.676,-0.201,-0.728,57.87,136.8,40.534824,-3.46877,662.0,4,5,309.4,8.789
58.84,1,0.022,0.061,-0.152,-0.004,0.051,-0.191,-1.679,-0.2,-0.737,57.87,136.8,40.534824,-3.46877,662.0,4,5,309.4,8.789
58.95,1,0.025,0.079,-0.18,0.027,0.066,-0.167,-1.678,-0.199,-0.746,57.87,136.8,40.534824,-3.46877,662.0,4,5,309.4,8.789
59.04,1,-0.096,0.106,-0.228,-0.042,0.077,-0.204,-1.681,-0.198,-0.755,57.87,136.8,40.534824,-3.46877,662.0,4,5,309.4,8.789
59.14,1,-0.124,0.098,-0.213,-0.071,0.104,-0.2,-1.685,-0.194,-0.762,57.87,136.8,40.534824,-3.46877,662.0,4,5,309.4,8.789
59.24,1,-0.178,0.094,-0.223,-0.128,0.098,-0.222,-1.689,-0.187,-0.769,57.87,136.8,40.534824,-3.46877,662.0,4,5,309.4,8.789
59.34,1,-0.097,0.018,-0.214,-0.139,0.064,-0.219,-1.692,-0.182,-0.776,58.88,137.1,40.535053,-3.469104,662.9,4,5,313.6,8.438
59.44,1,-0.045,0.021,-0.245,-0.089,0.035,-0.223,-1.692,-0.181,-0.783,58.88,137.1,40.535053,-3.469104,662.9,4,5,313.6,8.438
59.54,1,-0.035,0.038,-0.286,-0.049,0.032,-0.257,-1.695,-0.183,-0.792,58.88,137.1,40.535053,-3.469104,662.9,4,5,313.6,8.438
59.64,1,-0.018,0.066,-0.246,-0.034,0.049,-0.252,-1.698,-0.183,-0.801,58.88,137.1,40.535053,-3.469104,662.9,4,5,313.6,8.438
59.74,1,-0.039,0.048,-0.264,-0.033,0.053,-0.259,-1.698,-0.18,-0.807,58.88,137.1,40.535053,-3.469104,662.9,4,5,313.6,8.438
59.84,1,-0.107,0.018,-0.279,-0.072,0.035,-0.271,-1.7,-0.178,-0.814,58.88,137.1,40.535053,-3.469104,662.9,4,5,313.6,8.438
59.94,1,0.01,0.049,-0.212,-0.051,0.038,-0.254,-1.702,-0.178,-0.823,58.88,137.1,40.535053,-3.469104,662.9,4,5,313.6,8.438
60.05,1,0.059,0.046,-0.251,0.021,0.045,-0.235,-1.701,-0.176,-0.83,58.88,137.1,40.535053,-3.469104,662.9,4,5,313.6,8.438
60.14,1,-0.077,0.016,-0.312,-0.004,0.032,-0.275,-1.703,-0.174,-0.837,58.88,137.1,40.535053,-3.469104,662.9,4,5,313.6,8.438
60.25,1,-0.166,0.072,-0.211,-0.094,0.045,-0.261,-1.71,-0.175,-0.846,58.88,137.1,40.535053,-3.469104,662.9,4,5,313.6,8.438
60.35,1,-0.051,0.043,-0.182,-0.103,0.055,-0.206,-1.712,-0.173,-0.852,59.9,133.7,40.535297,-3.469406,663.0,4,5,318.2,8.789
60.45,1,0.088,-0.003,-0.256,0.0,0.028,-0.223,-1.709,-0.17,-0.859,59.9,133.7,40.535297,-3.469406,663.0,4,5,318.2,8.789
60.55,1,0.011,-0.013,-0.398,0.023,0.004,-0.298,-1.707,-0.171,-0.868,59.9,133.7,40.535297,-3.469406,663.0,4,5,318.2,8.789
60.65,1,-0.124,0.053,-0.507,-0.038,0.017,-0.413,-1.707,-0.177,-0.878,59.9,133.7,40.535297,-3.469406,663.0,4,5,318.2,8.789
60.74,1,-0.157,0.074,-0.551,-0.11,0.049,-0.49,-1.708,-0.18,-0.886,59.9,133.7,40.535297,-3.469406,663.0,4,5,318.2,8.789
60.84,1,-0.101,-0.025,-0.521,-0.127,0.033,-0.506,-1.71,-0.178,-0.89,59.9,133.7,40.535297,-3.469406,663.0,4,5,318.2,8.789
60.94,1,0.001,-0.026,-0.467,-0.059,-0.013,-0.508,-1.712,-0.177,-0.896,59.9,133.7,40.535297,-3.469406,663.0,4,5,318.2,8.789
61.05,1,0.166,-0.055,-0.514,0.045,-0.021,-0.489,-1.711,-0.174,-0.901,59.9,133.7,40.535297,-3.469406,663.0,4,5,318.2,8.789
61.14,1,0.013,-0.077,-0.556,0.063,-0.061,-0.524,-1.709,-0.171,-0.908,59.9,133.7,40.535297,-3.469406,663.0,4,5,318.2,8.789
61.25,1,-0.063,-0.03,-0.582,0.002,-0.06,-0.566,-1.713,-0.175,-0.915,59.9,133.7,40.535297,-3.469406,663.0,4,5,318.2,8.789
61.34,1,-0.252,0.014,-0.562,-0.125,-0.01,-0.555,-1.715,-0.178,-0.921,60.87,131.3,40.535557,-3.469678,663.3,4,5,322.7,9.141
61.45,1,-0.122,-0.029,-0.554,-0.149,-0.019,-0.572,-1.719,-0.177,-0.925,60.87,131.3,40.535557,-3.469678,663.3,4,5,322.7,9.141
61.55,1,-0.071,-0.047,-0.542,-0.11,-0.03,-0.54,-1.72,-0.173,-0.93,60.87,131.3,40.535557,-3.469678,663.3,4,5,322.7,9.141
61.65,1,0.031,-0.096,-0.585,-0.041,-0.063,-0.57,-1.72,-0.17,-0.934,60.87,131.3,40.535557,-3.469678,663.3,4,5,322.7,9.141
61.75,1,-0.027,-0.046,-0.526,-0.014,-0.064,-0.556,-1.723,-0.171,-0.941,60.87,131.3,40.535557,-3.469678,663.3,4,5,322.7,9.141
61.85,1,-0.024,-0.026,-0.525,-0.029,-0.041,-0.529,-1.725,-0.172,-0.947,60.87,131.3,40.535557,-3.469678,663.3,4,5,322.7,9.141
61.95,1,-0.085,-0.035,-0.495,-0.049,-0.036,-0.52,-1.728,-0.172,-0.952,60.87,131.3,40.535557,-3.469678,663.3,4,5,322.7,9.141
62.05,1,-0.065,-0.045,-0.294,-0.065,-0.04,-0.426,-1.734,-0.171,-0.956,60.87,131.3,40.535557,-3.469678,663.3,4,5,322.7,9.141
62.15,1,0.001,-0.076,-0.253,-0.037,-0.053,-0.323,-1.737,-0.169,-0.959,60.87,131.3,40.535557,-3.469678,663.3,4,5,322.7,9.141
62.25,1,0.018,-0.084,-0.201,-0.012,-0.074,-0.26,-1.739,-0.168,-0.963,60.87,131.3,40.535557,-3.469678,663.3,4,5,322.7,9.141
62.35,1,0.032,-0.103,-0.24,0.025,-0.09,-0.232,-1.74,-0.167,-0.967,61.88,123.9,40.53582,-3.469919,663.6,6,5,326.6,8.438
62.45,1,-0.093,-0.109,-0.253,-0.025,-0.097,-0.251,-1.742,-0.166,-0.971,61.88,123.9,40.53582,-3.469919,663.6,6,5,326.6,8.438
62.55,1,-0.131,-0.066,-0.263,-0.09,-0.088,-0.25,-1.744,-0.168,-0.975,61.88,123.9,40.53582,-3.469919,663.6,6,5,326.6,8.438
62.66,1,-0.062,-0.106,-0.232,-0.09,-0.09,-0.244,-1.744,-0.167,-0.979,61.88,123.9,40.53582,-3.469919,663.6,6,5,326.6,8.438
62.75,1,-0.019,-0.079,-0.248,-0.051,-0.091,-0.242,-1.744,-0.167,-0.983,61.88,123.9,40.53582,-3.469919,663.6,6,5,326.6,8.438
62.85,1,-0.004,-0.099,-0.228,-0.02,-0.092,-0.235,-1.744,-0.165,-0.987,61.88,123.9,40.53582,-3.469919,663.6,6,5,326.6,8.438
62.95,1,-0.006,-0.096,-0.259,-0.014,-0.097,-0.251,-1.745,-0.166,-0.992,61.88,123.9,40.53582,-3.469919,663.6,6,5,326.6,8.438
63.05,1,-0.032,-0.066,-0.243,-0.018,-0.084,-0.244,-1.746,-0.167,-0.998,61.88,123.9,40.53582,-3.469919,663.6,6,5,326.6,8.438
63.16,1,-0.099,-0.035,-0.278,-0.057,-0.06,-0.261,-1.748,-0.168,-1.004,61.88,123.9,40.53582,-3.469919,663.6,6,5,326.6,8.438
63.25,1,-0.069,-0.016,-0.253,-0.072,-0.033,-0.263,-1.75,-0.169,-1.01,61.88,123.9,40.53582,-3.469919,663.6,6,5,326.6,8.438
63.35,1,-0.07,-0.043,-0.254,-0.068,-0.032,-0.255,-1.752,-0.168,-1.016,62.87,109.3,40.53606,-3.470109,662.3,6,5,330.5,7.734
63.46,1,-0.037,-0.006,-0.238,-0.055,-0.027,-0.245,-1.753,-0.167,-1.023,62.87,109.3,40.53606,-3.470109,662.3,6,5,330.5,7.734
63.55,1,-0.041,-0.012,-0.264,-0.048,-0.016,-0.254,-1.755,-0.167,-1.03,62.87,109.3,40.53606,-3.470109,662.3,6,5,330.5,7.734
63.65,1,-0.027,0.004,-0.171,-0.041,-0.007,-0.227,-1.687,-0.173,-1.026,62.87,109.3,40.53606,-3.470109,662.3,6,5,330.5,7.734
63.75,1,-0.04,-0.002,-0.154,-0.036,-0.002,-0.184,-1.623,-0.18,-1.021,62.87,109.3,40.53606,-3.470109,662.3,6,5,330.5,7.734
63.85,1,-0.037,-0.013,-0.108,-0.035,-0.009,-0.144,-1.586,-0.176,-1.022,62.87,109.3,40.53606,-3.470109,662.3,6,5,330.5,7.734
64.05,1,-0.031,-0.004,-0.082,-0.043,-0.014,-0.091,-1.566,-0.173,-1.031,62.87,109.3,40.53606,-3.470109,662.3,6,5,330.5,7.734
64.15,1,-0.038,-0.052,-0.059,-0.034,-0.028,-0.071,-1.568,-0.172,-1.037,62.87,109.3,40.53606,-3.470109,662.3,6,5,330.5,7.734
64.25,1,-0.013,-0.052,-0.076,-0.027,-0.045,-0.071,-1.569,-0.171,-1.042,62.87,109.3,40.53606,-3.470109,662.3,6,5,330.5,7.734
64.36,1,-0.003,-0.056,-0.068,-0.014,-0.053,-0.074,-1.57,-0.171,-1.049,62.87,109.3,40.53606,-3.470109,662.3,6,5,330.5,7.734
64.45,1,0.001,-0.014,-0.043,-0.007,-0.043,-0.055,-1.569,-0.162,-1.055,63.87,105.5,40.536301,-3.470268,661.6,4,5,333.3,6.68
64.56,1,-0.049,0.017,-0.067,-0.017,-0.005,-0.064,-1.568,-0.158,-1.062,63.87,105.5,40.536301,-3.470268,661.6,4,5,333.3,6.68
64.65,1,0.001,-0.008,-0.029,-0.018,0.002,-0.046,-1.57,-0.158,-1.069,63.87,105.5,40.536301,-3.470268,661.6,4,5,333.3,6.68
64.76,1,0.016,-0.007,-0.053,0.003,-0.008,-0.044,-1.565,-0.156,-1.075,63.87,105.5,40.536301,-3.470268,661.6,4,5,333.3,6.68
64.85,1,-0.037,0.016,-0.042,-0.009,0.006,-0.048,-1.551,-0.161,-1.081,63.87,105.5,40.536301,-3.470268,661.6,4,5,333.3,6.68
64.95,1,-0.096,0.012,-0.013,-0.053,0.007,-0.03,-1.552,-0.163,-1.088,63.87,105.5,40.536301,-3.470268,661.6,4,5,333.3,6.68
65.06,1,-0.053,0.002,-0.006,-0.069,0.009,-0.02,-1.552,-0.163,-1.095,63.87,105.5,40.536301,-3.470268,661.6,4,5,333.3,6.68
65.16,1,-0.065,0.007,-0.006,-0.056,0.004,-0.008,-1.554,-0.164,-1.101,63.87,105.5,40.536301,-3.470268,661.6,4,5,333.3,6.68
65.26,1,-0.084,-0.006,0.01,-0.066,-0.001,-0.003,-1.558,-0.162,-1.107,63.87,105.5,40.536301,-3.470268,661.6,4,5,333.3,6.68
65.36,1,-0.083,-0.033,0.0,-0.084,-0.012,0.001,-1.563,-0.161,-1.113,63.87,105.5,40.536301,-3.470268,661.6,4,5,333.3,6.68
65.46,1,-0.074,-0.037,0.021,-0.081,-0.025,0.012,-1.57,-0.158,-1.118,64.87,102.9,40.536537,-3.470414,662.1,4,5,336.8,6.328
65.56,1,-0.03,-0.065,-0.004,-0.057,-0.045,0.005,-1.572,-0.15,-1.122,64.87,102.9,40.536537,-3.470414,662.1,4,5,336.8,6.328
65.66,1,0.005,-0.092,0.011,-0.031,-0.072,0.004,-1.569,-0.143,-1.126,64.87,102.9,40.536537,-3.470414,662.1,4,5,336.8,6.328
65.77,1,0.034,-0.081,0.007,0.006,-0.077,0.011,-1.57,-0.136,-1.13,64.87,102.9,40.536537,-3.470414,662.1,4,5,336.8,6.328
65.86,1,0.029,-0.098,0.017,0.026,-0.087,0.008,-1.571,-0.129,-1.134,64.87,102.9,40.536537,-3.470414,662.1,4,5,336.8,6.328
65.97,1,-0.014,-0.089,-0.024,0.012,-0.089,-0.001,-1.572,-0.119,-1.135,64.87,102.9,40.536537,-3.470414,662.1,4,5,336.8,6.328
66.06,1,-0.006,-0.142,0.029,-0.001,-0.111,0.006,-1.572,-0.105,-1.135,64.87,102.9,40.536537,-3.470414,662.1,4,5,336.8,6.328
66.16,1,-0.008,-0.142,-0.006,-0.008,-0.13,0.005,-1.572,-0.092,-1.135,64.87,102.9,40.536537,-3.470414,662.1,4,5,336.8,6.328
66.26,1,-0.058,-0.12,0.009,-0.029,-0.127,0.006,-1.571,-0.086,-1.136,64.87,102.9,40.536537,-3.470414,662.1,4,5,336.8,6.328
66.37,1,-0.052,-0.085,0.011,-0.043,-0.111,0.008,-1.571,-0.078,-1.137,64.87,102.9,40.536537,-3.470414,662.1,4,5,336.8,6.328
66.46,1,-0.022,-0.101,0.024,-0.039,-0.101,0.015,-1.574,-0.071,-1.138,65.91,100.8,40.536777,-3.470527,662.5,4,5,340.7,7.383
66.56,1,0.004,-0.082,0.01,-0.017,-0.096,0.018,-1.572,-0.067,-1.139,65.91,100.8,40.536777,-3.470527,662.5,4,5,340.7,7.383
66.67,1,-0.035,-0.06,-0.012,-0.02,-0.076,0.002,-1.57,-0.065,-1.14,65.91,100.8,40.536777,-3.470527,662.5,4,5,340.7,7.383
66.76,1,-0.051,-0.041,-0.024,-0.034,-0.056,-0.012,-1.574,-0.063,-1.141,65.91,100.8,40.536777,-3.470527,662.5,4,5,340.7,7.383
66.87,1,-0.016,-0.073,-0.004,-0.032,-0.059,-0.015,-1.574,-0.062,-1.141,65.91,100.8,40.536777,-3.470527,662.5,4,5,340.7,7.383
66.96,1,0.014,-0.089,-0.011,-0.007,-0.073,-0.002,-1.573,-0.062,-1.142,65.91,100.8,40.536777,-3.470527,662.5,4,5,340.7,7.383
67.06,1,0.017,-0.076,0.012,-0.001,-0.081,-0.008,-1.574,-0.063,-1.142,65.91,100.8,40.536777,-3.470527,662.5,4,5,340.7,7.383
67.16,1,-0.01,-0.066,-0.023,0.008,-0.073,-0.004,-1.572,-0.061,-1.143,65.91,100.8,40.536777,-3.470527,662.5,4,5,340.7,7.383
67.26,1,0.007,-0.062,-0.022,0.001,-0.066,-0.017,-1.568,-0.056,-1.143,65.91,100.8,40.536777,-3.470527,662.5,4,5,340.7,7.383
67.36,1,-0.011,-0.057,-0.04,-0.001,-0.063,-0.025,-1.566,-0.05,-1.143,65.91,100.8,40.536777,-3.470527,662.5,4,5,340.7,7.383
67.46,1,-0.012,-0.059,-0.025,-0.009,-0.06,-0.028,-1.562,-0.046,-1.143,66.86,100.0,40.537018,-3.470632,662.5,4,5,343.8,7.031
67.56,1,-0.044,-0.069,-0.009,-0.027,-0.063,-0.02,-1.561,-0.043,-1.144,66.86,100.0,40.537018,-3.470632,662.5,4,5,343.8,7.031
67.67,1,-0.028,-0.046,-0.023,-0.029,-0.057,-0.022,-1.565,-0.039,-1.144,66.86,100.0,40.537018,-3.470632,662.5,4,5,343.8,7.031
67.77,1,-0.005,-0.013,-0.029,-0.018,-0.038,-0.022,-1.566,-0.036,-1.145,66.86,100.0,40.537018,-3.470632,662.5,4,5,343.8,7.031
67.86,1,-0.006,-0.033,-0.036,-0.012,-0.026,-0.031,-1.566,-0.032,-1.145,66.86,100.0,40.537018,-3.470632,662.5,4,5,343.8,7.031
67.97,1,-0.03,-0.03,-0.056,-0.02,-0.029,-0.048,-1.566,-0.029,-1.145,66.86,100.0,40.537018,-3.470632,662.5,4,5,343.8,7.031
68.07,1,-0.029,-0.025,-0.055,-0.022,-0.032,-0.046,-1.564,-0.026,-1.145,66.86,100.0,40.537018,-3.470632,662.5,4,5,343.8,7.031
68.16,1,0.025,0.025,0.015,-0.004,-0.008,-0.024,-1.564,-0.022,-1.145,66.86,100.0,40.537018,-3.470632,662.5,4,5,343.8,7.031
68.26,1,-0.003,-0.037,-0.022,0.003,-0.011,-0.013,-1.562,-0.021,-1.145,66.86,100.0,40.537018,-3.470632,662.5,4,5,343.8,7.031
68.37,1,-0.01,-0.045,-0.031,-0.001,-0.03,-0.023,-1.558,-0.021,-1.145,66.86,100.0,40.537018,-3.470632,662.5,4,5,343.8,7.031
68.46,1,-0.046,-0.034,-0.041,-0.022,-0.036,-0.032,-1.556,-0.021,-1.144,67.87,100.6,40.537254,-3.470723,662.8,4,5,344.5,3.867
68.56,1,-0.049,-0.021,-0.039,-0.037,-0.028,-0.038,-1.554,-0.02,-1.144,67.87,100.6,40.537254,-3.470723,662.8,4,5,344.5,3.867
68.66,1,-0.01,-0.007,-0.017,-0.033,-0.017,-0.029,-1.552,-0.019,-1.144,67.87,100.6,40.537254,-3.470723,662.8,4,5,344.5,3.867
68.77,1,-0.003,-0.011,0.008,-0.016,-0.014,-0.015,-1.549,-0.017,-1.144,67.87,100.6,40.537254,-3.470723,662.8,4,5,344.5,3.867
68.88,1,0.028,-0.019,-0.006,0.004,-0.017,-0.002,-1.547,-0.015,-1.144,67.87,100.6,40.537254,-3.470723,662.8,4,5,344.5,3.867
68.97,1,0.02,-0.015,-0.018,0.023,-0.016,-0.011,-1.542,-0.014,-1.143,67.87,100.6,40.537254,-3.470723,662.8,4,5,344.5,3.867
69.07,1,-0.07,-0.013,-0.042,-0.018,-0.012,-0.025,-1.541,-0.013,-1.142,67.87,100.6,40.537254,-3.470723,662.8,4,5,344.5,3.867
69.17,1,-0.058,-0.007,-0.008,-0.051,-0.011,-0.023,-1.542,-0.012,-1.142,67.87,100.6,40.537254,-3.470723,662.8,4,5,344.5,3.867
69.27,1,-0.025,-0.019,-0.022,-0.041,-0.017,-0.015,-1.542,-0.011,-1.142,67.87,100.6,40.537254,-3.470723,662.8,4,5,344.5,3.867
69.37,1,0.01,-0.033,-0.011,-0.016,-0.023,-0.017,-1.539,-0.012,-1.142,67.87,100.6,40.537254,-3.470723,662.8,4,5,344.5,3.867
69.48,1,0.018,-0.009,-0.012,0.003,-0.017,-0.014,-1.537,-0.014,-1.141,68.93,99.4,40.537502,-3.470801,663.6,4,5,345.2,1.406
69.57,1,0.03,-0.019,-0.02,0.017,-0.015,-0.016,-1.537,-0.014,-1.14,68.93,99.4,40.537502,-3.470801,663.6,4,5,345.2,1.406
69.67,1,0.008,-0.018,0.006,0.023,-0.023,-0.005,-1.537,-0.014,-1.14,68.93,99.4,40.537502,-3.470801,663.6,4,5,345.2,1.406
69.77,1,-0.06,-0.023,-0.011,-0.018,-0.019,-0.011,-1.535,-0.013,-1.139,68.93,99.4,40.537502,-3.470801,663.6,4,5,345.2,1.406
69.87,1,-0.045,-0.038,-0.013,-0.039,-0.03,-0.01,-1.536,-0.01,-1.137,68.93,99.4,40.537502,-3.470801,663.6,4,5,345.2,1.406
69.97,1,-0.016,-0.039,0.006,-0.032,-0.031,-0.001,-1.536,-0.006,-1.136,68.93,99.4,40.537502,-3.470801,663.6,4,5,345.2,1.406
70.08,1,-0.005,-0.017,-0.007,-0.013,-0.027,-0.003,-1.535,-0.004,-1.135,68.93,99.4,40.537502,-3.470801,663.6,4,5,345.2,1.406
70.17,1,-0.001,-0.017,-0.021,-0.011,-0.023,-0.013,-1.532,-0.002,-1.134,68.93,99.4,40.537502,-3.470801,663.6,4,5,345.2,1.406
70.28,1,0.005,0.006,-0.001,-0.002,-0.008,-0.01,-1.533,-0.001,-1.133,68.93,99.4,40.537502,-3.470801,663.6,4,5,345.2,1.406
70.37,1,0.009,-0.02,0.016,0.003,-0.007,-0.001,-1.534,-0.0,-1.132,68.93,99.4,40.537502,-3.470801,663.6,4,5,345.2,1.406
70.47,1,-0.016,-0.01,-0.016,-0.002,-0.013,-0.001,-1.535,0.002,-1.131,69.88,98.6,40.537739,-3.470886,663.9,4,5,345.2,0.703
70.57,1,-0.027,-0.011,-0.003,-0.015,-0.013,-0.007,-1.535,0.003,-1.13,69.88,98.6,40.537739,-3.470886,663.9,4,5,345.2,0.703
70.67,1,0.004,-0.013,-0.002,-0.018,-0.012,-0.004,-1.536,0.004,-1.129,69.88,98.6,40.537739,-3.470886,663.9,4,5,345.2,0.703
70.78,1,0.056,0.008,0.013,0.025,-0.005,0.005,-1.535,0.002,-1.128,69.88,98.6,40.537739,-3.470886,663.9,4,5,345.2,0.703
70.88,1,0.041,0.005,0.002,0.039,0.004,0.006,-1.532,0.001,-1.127,69.88,98.6,40.537739,-3.470886,663.9,4,5,345.2,0.703
70.98,1,0.005,0.002,-0.002,0.026,-0.0,0.007,-1.531,0.001,-1.125,69.88,98.6,40.537739,-3.470886,663.9,4,5,345.2,0.703
71.09,1,-0.022,-0.021,0.007,0.003,-0.006,-0.003,-1.53,0.003,-1.124,69.88,98.6,40.537739,-3.470886,663.9,4,5,345.2,0.703
71.17,1,-0.03,-0.051,0.024,-0.021,-0.029,0.016,-1.531,0.004,-1.123,69.88,98.6,40.537739,-3.470886,663.9,4,5,345.2,0.703
71.27,1,-0.02,-0.021,0.012,-0.021,-0.031,0.017,-1.532,0.005,-1.122,69.88,98.6,40.537739,-3.470886,663.9,4,5,345.2,0.703
71.37,1,-0.042,0.004,-0.004,-0.028,-0.012,0.004,-1.535,0.007,-1.121,69.88,98.6,40.537739,-3.470886,663.9,4,5,345.2,0.703
71.47,1,-0.0,-0.01,0.048,-0.023,-0.008,0.018,-1.541,0.006,-1.12,70.86,97.9,40.537987,-3.470969,664.2,4,5,345.6,0.352
71.57,1,0.04,0.009,-0.014,0.012,-0.001,0.017,-1.539,0.007,-1.119,70.86,97.9,40.537987,-3.470969,664.2,4,5,345.6,0.352
71.67,1,-0.018,-0.015,0.0,0.009,-0.008,-0.0,-1.538,0.006,-1.118,70.86,97.9,40.537987,-3.470969,664.2,4,5,345.6,0.352
71.77,1,-0.071,-0.006,0.008,-0.033,-0.008,0.002,-1.539,0.004,-1.117,70.86,97.9,40.537987,-3.470969,664.2,4,5,345.6,0.352
71.87,1,0.0,-0.002,0.003,-0.032,-0.001,0.005,-1.54,0.002,-1.116,70.86,97.9,40.537987,-3.470969,664.2,4,5,345.6,0.352
71.97,1,-0.007,0.007,-0.006,-0.012,-0.001,0.005,-1.538,-0.0,-1.115,70.86,97.9,40.537987,-3.470969,664.2,4,5,345.6,0.352
72.07,1,-0.002,0.021,0.01,-0.007,0.007,-0.001,-1.539,-0.003,-1.115,70.86,97.9,40.537987,-3.470969,664.2,4,5,345.6,0.352
72.18,1,-0.015,0.025,0.005,-0.009,0.021,0.002,-1.542,-0.005,-1.115,70.86,97.9,40.537987,-3.470969,664.2,4,5,345.6,0.352
72.28,1,-0.018,0.026,-0.013,-0.014,0.02,0.003,-1.544,-0.003,-1.115,70.86,97.9,40.537987,-3.470969,664.2,4,5,345.6,0.352
72.37,1,-0.021,0.013,0.003,-0.015,0.022,-0.001,-1.543,-0.005,-1.115,70.86,97.9,40.537987,-3.470969,664.2,4,5,345.6,0.352
72.47,1,-0.017,0.036,0.0,-0.019,0.025,-0.002,-1.541,-0.008,-1.115,71.88,95.2,40.538216,-3.471039,664.7,4,5,345.6,0.352
72.58,1,0.017,0.01,0.004,-0.005,0.023,-0.001,-1.54,-0.01,-1.115,71.88,95.2,40.538216,-3.471039,664.7,4,5,345.6,0.352
72.68,1,0.006,0.007,0.032,0.001,0.013,0.014,-1.54,-0.012,-1.116,71.88,95.2,40.538216,-3.471039,664.7,4,5,345.6,0.352
72.78,1,-0.002,-0.002,-0.003,0.005,0.006,0.015,-1.541,-0.013,-1.116,71.88,95.2,40.538216,-3.471039,664.7,4,5,345.6,0.352
72.88,1,-0.042,-0.001,0.022,-0.019,0.004,0.008,-1.544,-0.014,-1.116,71.88,95.2,40.538216,-3.471039,664.7,4,5,345.6,0.352
72.98,1,-0.035,0.018,0.029,-0.03,0.007,0.022,-1.545,-0.015,-1.117,71.88,95.2,40.538216,-3.471039,664.7,4,5,345.6,0.352
73.08,1,0.048,0.001,-0.002,-0.002,0.008,0.01,-1.543,-0.014,-1.117,71.88,95.2,40.538216,-3.471039,664.7,4,5,345.6,0.352
73.18,1,0.034,-0.002,0.01,0.029,0.001,0.014,-1.543,-0.013,-1.117,71.88,95.2,40.538216,-3.471039,664.7,4,5,345.6,0.352
73.28,1,-0.038,0.031,0.004,0.007,0.011,0.004,-1.54,-0.016,-1.117,71.88,95.2,40.538216,-3.471039,664.7,4,5,345.6,0.352
73.39,1,-0.036,0.011,0.022,-0.027,0.021,0.015,-1.543,-0.016,-1.117,71.88,95.2,40.538216,-3.471039,664.7,4,5,345.6,0.352
73.48,1,-0.008,0.001,0.02,-0.022,0.008,0.019,-1.545,-0.013,-1.118,72.85,94.5,40.538448,-3.471115,664.9,4,5,345.2,0.352
73.58,1,0.001,0.023,0.018,-0.012,0.013,0.016,-1.547,-0.011,-1.118,72.85,94.5,40.538448,-3.471115,664.9,4,5,345.2,0.352
73.68,1,0.035,0.03,0.026,0.015,0.022,0.022,-1.546,-0.014,-1.118,72.85,94.5,40.538448,-3.471115,664.9,4,5,345.2,0.352
73.78,1,0.008,0.002,0.016,0.015,0.018,0.016,-1.547,-0.012,-1.118,72.85,94.5,40.538448,-3.471115,664.9,4,5,345.2,0.352
73.88,1,-0.021,-0.015,-0.003,0.001,-0.0,0.011,-1.547,-0.009,-1.117,72.85,94.5,40.538448,-3.471115,664.9,4,5,345.2,0.352
73.98,1,-0.05,-0.018,-0.005,-0.025,-0.009,0.003,-1.55,-0.007,-1.117,72.85,94.5,40.538448,-3.471115,664.9,4,5,345.2,0.352
74.09,1,-0.05,-0.039,0.011,-0.039,-0.026,0.005,-1.553,-0.003,-1.116,72.85,94.5,40.538448,-3.471115,664.9,4,5,345.2,0.352
74.19,1,-0.006,-0.027,0.001,-0.032,-0.031,0.003,-1.555,-0.004,-1.116,72.85,94.5,40.538448,-3.471115,664.9,4,5,345.2,0.352
74.28,1,0.004,0.002,0.006,-0.008,-0.019,0.005,-1.556,-0.005,-1.115,72.85,94.5,40.538448,-3.471115,664.9,4,5,345.2,0.352
74.39,1,-0.006,0.024,-0.01,-0.004,0.004,0.003,-1.556,-0.005,-1.115,72.85,94.5,40.538448,-3.471115,664.9,4,5,345.2,0.352
74.48,1,-0.035,0.015,0.001,-0.021,0.014,-0.006,-1.559,-0.002,-1.114,73.89,94.5,40.538677,-3.471193,665.3,6,5,345.2,0.352
74.58,1,-0.042,0.002,-0.01,-0.032,0.014,-0.003,-1.559,0.002,-1.113,73.89,94.5,40.538677,-3.471193,665.3,6,5,345.2,0.352
74.69,1,0.099,-0.038,0.024,0.014,-0.014,0.006,-1.562,0.005,-1.112,73.89,94.5,40.538677,-3.471193,665.3,6,5,345.2,0.352
74.78,1,0.091,-0.012,-0.064,0.073,-0.02,-0.022,-1.557,0.006,-1.112,73.89,94.5,40.538677,-3.471193,665.3,6,5,345.2,0.352
74.88,1,-0.038,0.023,-0.014,0.035,-0.001,-0.024,-1.555,0.004,-1.111,73.89,94.5,40.538677,-3.471193,665.3,6,5,345.2,0.352
74.98,1,-0.094,0.009,0.009,-0.041,0.015,-0.015,-1.557,0.004,-1.11,73.89,94.5,40.538677,-3.471193,665.3,6,5,345.2,0.352
75.09,1,-0.013,-0.009,0.013,-0.043,-0.002,0.008,-1.558,0.002,-1.109,73.89,94.5,40.538677,-3.471193,665.3,6,5,345.2,0.352
75.19,1,0.013,-0.018,-0.009,-0.013,-0.01,0.001,-1.557,0.003,-1.108,73.89,94.5,40.538677,-3.471193,665.3,6,5,345.2,0.352
75.29,1,0.001,0.011,-0.002,0.004,-0.006,-0.004,-1.557,0.004,-1.108,73.89,94.5,40.538677,-3.471193,665.3,6,5,345.2,0.352
75.39,1,0.001,-0.013,0.021,-0.001,-0.005,0.005,-1.558,0.007,-1.107,73.89,94.5,40.538677,-3.471193,665.3,6,5,345.2,0.352
75.48,1,-0.008,-0.014,-0.012,-0.001,-0.009,0.007,-1.557,0.006,-1.107,74.87,92.7,40.538891,-3.471255,665.8,6,5,346.3,1.055
75.58,1,0.032,0.01,-0.005,0.009,-0.004,-0.007,-1.556,0.005,-1.107,74.87,92.7,40.538891,-3.471255,665.8,6,5,346.3,1.055
75.68,1,0.03,0.037,-0.001,0.018,0.015,-0.003,-1.557,0.006,-1.106,74.87,92.7,40.538891,-3.471255,665.8,6,5,346.3,1.055
75.79,1,0.004,-0.025,-0.005,0.017,0.011,0.0,-1.558,0.005,-1.105,74.87,92.7,40.538891,-3.471255,665.8,6,5,346.3,1.055
75.89,1,-0.043,-0.012,-0.012,-0.005,-0.009,-0.008,-1.557,0.003,-1.104,74.87,92.7,40.538891,-3.471255,665.8,6,5,346.3,1.055
75.98,1,-0.063,0.021,-0.017,-0.043,0.001,-0.015,-1.557,0.003,-1.104,74.87,92.7,40.538891,-3.471255,665.8,6,5,346.3,1.055
76.08,1,-0.046,0.024,0.01,-0.05,0.015,-0.003,-1.561,0.003,-1.104,74.87,92.7,40.538891,-3.471255,665.8,6,5,346.3,1.055
76.18,1,-0.01,0.006,-0.004,-0.031,0.019,0.002,-1.562,0.003,-1.103,74.87,92.7,40.538891,-3.471255,665.8,6,5,346.3,1.055
76.29,1,0.03,-0.003,-0.004,-0.004,0.004,-0.004,-1.561,0.006,-1.102,74.87,92.7,40.538891,-3.471255,665.8,6,5,346.3,1.055
76.39,1,0.006,0.018,-0.007,0.011,0.004,-0.008,-1.56,0.009,-1.102,74.87,92.7,40.538891,-3.471255,665.8,6,5,346.3,1.055
76.49,1,-0.033,0.009,-0.011,-0.008,0.013,-0.007,-1.561,0.01,-1.101,75.88,92.4,40.539112,-3.471323,665.9,6,5,346.3,1.055
76.6,1,-0.006,-0.009,-0.013,-0.011,-0.001,-0.007,-1.561,0.012,-1.1,75.88,92.4,40.539112,-3.471323,665.9,6,5,346.3,1.055
76.69,1,-0.029,-0.004,-0.009,-0.019,-0.002,-0.012,-1.562,0.014,-1.099,75.88,92.4,40.539112,-3.471323,665.9,6,5,346.3,1.055
76.79,1,-0.037,-0.002,-0.011,-0.034,-0.0,-0.008,-1.565,0.014,-1.098,75.88,92.4,40.539112,-3.471323,665.9,6,5,346.3,1.055
76.89,1,-0.01,-0.004,-0.019,-0.018,-0.002,-0.01,-1.566,0.014,-1.098,75.88,92.4,40.539112,-3.471323,665.9,6,5,346.3,1.055
76.99,1,0.005,-0.03,-0.01,-0.004,-0.015,-0.015,-1.566,0.017,-1.096,75.88,92.4,40.539112,-3.471323,665.9,6,5,346.3,1.055
77.09,1,-0.038,0.026,-0.029,-0.018,-0.006,-0.021,-1.567,0.018,-1.096,75.88,92.4,40.539112,-3.471323,665.9,6,5,346.3,1.055
77.2,1,-0.05,-0.015,0.009,-0.041,0.002,-0.015,-1.569,0.018,-1.094,75.88,92.4,40.539112,-3.471323,665.9,6,5,346.3,1.055
77.29,1,0.004,-0.019,0.013,-0.023,-0.012,0.008,-1.571,0.023,-1.093,75.88,92.4,40.539112,-3.471323,665.9,6,5,346.3,1.055
77.39,1,0.043,0.006,-0.002,0.013,-0.006,0.002,-1.566,0.023,-1.093,75.88,92.4,40.539112,-3.471323,665.9,6,5,346.3,1.055
77.49,1,-0.0,0.012,-0.027,0.018,0.003,-0.012,-1.562,0.022,-1.092,76.89,92.4,40.539337,-3.471394,666.3,6,5,346.3,0.0
77.59,1,-0.051,0.014,-0.003,-0.015,0.014,-0.012,-1.562,0.022,-1.092,76.89,92.4,40.539337,-3.471394,666.3,6,5,346.3,0.0
77.69,1,-0.041,0.023,0.023,-0.04,0.015,0.005,-1.564,0.023,-1.09,76.89,92.4,40.539337,-3.471394,666.3,6,5,346.3,0.0
77.8,1,-0.039,0.02,0.019,-0.04,0.019,0.011,-1.567,0.027,-1.089,76.89,92.4,40.539337,-3.471394,666.3,6,5,346.3,0.0
77.89,1,0.006,-0.022,0.053,-0.022,0.003,0.034,-1.571,0.03,-1.088,76.89,92.4,40.539337,-3.471394,666.3,6,5,346.3,0.0
77.99,1,0.019,-0.012,0.044,0.002,-0.01,0.041,-1.574,0.032,-1.088,76.89,92.4,40.539337,-3.471394,666.3,6,5,346.3,0.0
78.09,1,-0.027,0.057,0.012,0.003,0.015,0.032,-1.573,0.03,-1.088,76.89,92.4,40.539337,-3.471394,666.3,6,5,346.3,0.0
78.2,1,0.059,-0.011,0.045,0.016,0.01,0.029,-1.575,0.03,-1.087,76.89,92.4,40.539337,-3.471394,666.3,6,5,346.3,0.0
78.29,1,-0.033,0.007,0.007,-0.0,0.009,0.019,-1.576,0.03,-1.085,76.89,92.4,40.539337,-3.471394,666.3,6,5,346.3,0.0
78.4,1,-0.034,-0.018,0.045,-0.016,-0.003,0.027,-1.582,0.028,-1.085,76.89,92.4,40.539337,-3.471394,666.3,6,5,346.3,0.0
78.5,1,0.053,-0.026,0.077,0.006,-0.014,0.058,-1.582,0.025,-1.084,77.88,90.4,40.539543,-3.471441,667.0,6,5,346.6,0.352
78.59,1,0.041,0.022,-0.02,0.037,0.005,0.03,-1.579,0.017,-1.084,77.88,90.4,40.539543,-3.471441,667.0,6,5,346.6,0.352
78.69,1,0.028,0.012,0.013,0.031,0.005,0.016,-1.578,0.014,-1.083,77.88,90.4,40.539543,-3.471441,667.0,6,5,346.6,0.352
78.79,1,-0.058,-0.003,0.05,-0.009,0.008,0.025,-1.58,0.016,-1.082,77.88,90.4,40.539543,-3.471441,667.0,6,5,346.6,0.352
78.89,1,-0.022,-0.005,0.041,-0.032,-0.003,0.039,-1.582,0.017,-1.08,77.88,90.4,40.539543,-3.471441,667.0,6,5,346.6,0.352
78.99,1,-0.039,0.001,0.018,-0.027,-0.005,0.029,-1.584,0.019,-1.079,77.88,90.4,40.539543,-3.471441,667.0,6,5,346.6,0.352
79.09,1,-0.063,0.004,0.023,-0.044,0.001,0.024,-1.586,0.017,-1.078,77.88,90.4,40.539543,-3.471441,667.0,6,5,346.6,0.352
79.19,1,-0.028,-0.012,0.043,-0.045,-0.0,0.032,-1.591,0.016,-1.078,77.88,90.4,40.539543,-3.471441,667.0,6,5,346.6,0.352
79.29,1,0.038,-0.033,0.038,-0.006,-0.021,0.037,-1.595,0.018,-1.077,77.88,90.4,40.539543,-3.471441,667.0,6,5,346.6,0.352
79.39,1,0.013,0.008,0.009,0.012,-0.01,0.025,-1.593,0.018,-1.076,77.88,90.4,40.539543,-3.471441,667.0,6,5,346.6,0.352
79.49,1,-0.02,0.008,0.008,0.0,0.002,0.014,-1.596,0.015,-1.075,78.86,91.4,40.539761,-3.4715,667.3,6,5,347.0,0.703
79.6,1,-0.059,0.002,0.025,-0.03,0.004,0.018,-1.601,0.019,-1.074,78.86,91.4,40.539761,-3.4715,667.3,6,5,347.0,0.703
79.69,1,-0.011,-0.033,0.022,-0.031,-0.012,0.019,-1.605,0.019,-1.073,78.86,91.4,40.539761,-3.4715,667.3,6,5,347.0,0.703
79.79,1,0.022,-0.018,0.012,-0.002,-0.021,0.02,-1.607,0.02,-1.072,78.86,91.4,40.539761,-3.4715,667.3,6,5,347.0,0.703
79.9,1,0.017,0.024,0.009,0.011,0.001,0.01,-1.606,0.019,-1.071,78.86,91.4,40.539761,-3.4715,667.3,6,5,347.0,0.703
79.99,1,-0.04,0.034,0.007,-0.008,0.018,0.01,-1.608,0.018,-1.071,78.86,91.4,40.539761,-3.4715,667.3,6,5,347.0,0.703
80.1,1,-0.048,0.007,0.032,-0.031,0.017,0.019,-1.609,0.019,-1.069,78.86,91.4,40.539761,-3.4715,667.3,6,5,347.0,0.703
80.2,1,-0.024,0.012,-0.006,-0.034,0.016,0.015,-1.609,0.016,-1.069,78.86,91.4,40.539761,-3.4715,667.3,6,5,347.0,0.703
80.3,1,-0.05,0.011,0.002,-0.039,0.011,0.001,-1.611,0.014,-1.069,78.86,91.4,40.539761,-3.4715,667.3,6,5,347.0,0.703
80.4,1,-0.014,0.007,0.013,-0.029,0.009,0.006,-1.612,0.012,-1.069,78.86,91.4,40.539761,-3.4715,667.3,6,5,347.0,0.703
80.5,1,0.005,0.023,0.021,-0.017,0.017,0.014,-1.612,0.008,-1.069,79.86,91.1,40.539978,-3.471579,667.3,6,5,345.9,1.055
80.6,1,0.015,0.021,-0.015,0.008,0.021,0.007,-1.614,0.006,-1.069,79.86,91.1,40.539978,-3.471579,667.3,6,5,345.9,1.055
80.7,1,-0.015,0.011,0.018,0.001,0.015,0.003,-1.615,0.008,-1.069,79.86,91.1,40.539978,-3.471579,667.3,6,5,345.9,1.055
80.8,1,0.01,0.02,0.018,0.0,0.014,0.013,-1.616,0.008,-1.068,79.86,91.1,40.539978,-3.471579,667.3,6,5,345.9,1.055
80.9,1,0.008,0.014,0.009,0.005,0.017,0.012,-1.616,0.008,-1.068,79.86,91.1,40.539978,-3.471579,667.3,6,5,345.9,1.055
81.0,1,-0.017,0.006,0.003,-0.003,0.011,0.011,-1.615,0.009,-1.068,79.86,91.1,40.539978,-3.471579,667.3,6,5,345.9,1.055
81.1,1,-0.027,-0.004,0.007,-0.017,0.006,0.004,-1.616,0.009,-1.068,79.86,91.1,40.539978,-3.471579,667.3,6,5,345.9,1.055
81.2,1,-0.034,0.004,0.01,-0.026,0.002,0.012,-1.618,0.008,-1.068,79.86,91.1,40.539978,-3.471579,667.3,6,5,345.9,1.055
81.3,1,-0.013,0.037,-0.003,-0.024,0.019,0.004,-1.619,0.006,-1.068,79.86,91.1,40.539978,-3.471579,667.3,6,5,345.9,1.055
81.4,1,-0.003,0.007,0.004,-0.012,0.016,0.0,-1.618,0.006,-1.067,79.86,91.1,40.539978,-3.471579,667.3,6,5,345.9,1.055
81.51,1,-0.02,-0.003,0.002,-0.014,0.004,0.004,-1.616,0.005,-1.067,80.93,93.7,40.540215,-3.471653,668.0,6,5,345.9,1.055
81.61,1,-0.004,-0.005,-0.013,-0.009,0.001,-0.005,-1.615,0.005,-1.067,80.93,93.7,40.540215,-3.471653,668.0,6,5,345.9,1.055
81.7,1,-0.019,-0.003,0.002,-0.013,-0.002,-0.003,-1.617,0.007,-1.066,80.93,93.7,40.540215,-3.471653,668.0,6,5,345.9,1.055
81.81,1,-0.024,0.01,0.0,-0.017,-0.002,-0.001,-1.62,0.006,-1.066,80.93,93.7,40.540215,-3.471653,668.0,6,5,345.9,1.055
81.9,1,-0.025,0.0,0.005,-0.025,0.001,0.001,-1.622,0.007,-1.066,80.93,93.7,40.540215,-3.471653,668.0,6,5,345.9,1.055
82.0,1,-0.006,0.009,0.017,-0.018,0.008,0.007,-1.623,0.006,-1.066,80.93,93.7,40.540215,-3.471653,668.0,6,5,345.9,1.055
82.11,1,0.028,0.009,-0.002,0.007,0.01,0.01,-1.621,0.006,-1.065,80.93,93.7,40.540215,-3.471653,668.0,6,5,345.9,1.055
82.2,1,-0.004,0.009,0.007,0.012,0.012,0.001,-1.618,0.006,-1.065,80.93,93.7,40.540215,-3.471653,668.0,6,5,345.9,1.055
82.3,1,-0.018,-0.021,0.007,-0.011,-0.003,0.006,-1.618,0.006,-1.064,80.93,93.7,40.540215,-3.471653,668.0,6,5,345.9,1.055
82.4,1,-0.011,0.004,0.017,-0.016,-0.012,0.01,-1.62,0.01,-1.064,80.93,93.7,40.540215,-3.471653,668.0,6,5,345.9,1.055
82.51,1,0.011,-0.02,-0.013,0.0,-0.012,0.004,-1.62,0.011,-1.064,81.88,94.4,40.540436,-3.471728,668.8,6,5,345.9,0.0
82.6,1,-0.016,0.014,0.004,-0.0,0.002,-0.001,-1.621,0.011,-1.064,81.88,94.4,40.540436,-3.471728,668.8,6,5,345.9,0.0
82.7,1,-0.074,0.022,-0.02,-0.037,0.014,-0.007,-1.621,0.009,-1.064,81.88,94.4,40.540436,-3.471728,668.8,6,5,345.9,0.0
82.81,1,-0.036,0.012,0.005,-0.045,0.018,-0.006,-1.622,0.008,-1.064,81.88,94.4,40.540436,-3.471728,668.8,6,5,345.9,0.0
82.9,1,-0.065,0.006,-0.018,-0.052,0.011,-0.007,-1.623,0.008,-1.063,81.88,94.4,40.540436,-3.471728,668.8,6,5,345.9,0.0
83.0,1,-0.047,0.007,0.007,-0.052,0.006,-0.002,-1.625,0.006,-1.063,81.88,94.4,40.540436,-3.471728,668.8,6,5,345.9,0.0
83.1,1,-0.013,0.027,0.012,-0.036,0.012,0.004,-1.626,0.005,-1.063,81.88,94.4,40.540436,-3.471728,668.8,6,5,345.9,0.0
83.21,1,0.017,0.005,-0.007,-0.009,0.015,0.0,-1.626,0.006,-1.063,81.88,94.4,40.540436,-3.471728,668.8,6,5,345.9,0.0
83.3,1,0.021,-0.027,0.025,0.008,-0.005,0.011,-1.622,0.005,-1.062,81.88,94.4,40.540436,-3.471728,668.8,6,5,345.9,0.0
83.4,1,0.008,0.006,0.005,0.016,-0.008,0.012,-1.621,0.003,-1.062,81.88,94.4,40.540436,-3.471728,668.8,6,5,345.9,0.0
83.5,1,0.009,0.003,-0.011,0.008,0.003,-0.003,-1.62,0.003,-1.062,82.86,96.6,40.540672,-3.4718,669.5,6,5,346.3,0.352
83.6,1,0.02,0.012,-0.011,0.018,0.004,-0.007,-1.617,0.002,-1.062,82.86,96.6,40.540672,-3.4718,669.5,6,5,346.3,0.352
83.7,1,-0.016,0.01,-0.027,0.004,0.012,-0.015,-1.615,-0.001,-1.062,82.86,96.6,40.540672,-3.4718,669.5,6,5,346.3,0.352
83.81,1,-0.039,0.01,0.005,-0.02,0.009,-0.008,-1.615,-0.004,-1.061,82.86,96.6,40.540672,-3.4718,669.5,6,5,346.3,0.352
84.01,1,0.004,-0.019,-0.002,-0.019,-0.016,0.0,-1.614,-0.004,-1.061,82.86,96.6,40.540672,-3.4718,669.5,6,5,346.3,0.352
84.11,1,-0.016,0.006,0.002,-0.008,-0.008,0.001,-1.611,-0.005,-1.06,82.86,96.6,40.540672,-3.4718,669.5,6,5,346.3,0.352
84.21,1,-0.027,-0.011,0.013,-0.015,-0.002,0.001,-1.61,-0.004,-1.06,82.86,96.6,40.540672,-3.4718,669.5,6,5,346.3,0.352
84.31,1,-0.056,0.008,0.002,-0.04,0.002,0.002,-1.613,-0.003,-1.059,82.86,96.6,40.540672,-3.4718,669.5,6,5,346.3,0.352
84.41,1,-0.053,-0.006,-0.005,-0.052,-0.005,0.002,-1.617,-0.003,-1.059,82.86,96.6,40.540672,-3.4718,669.5,6,5,346.3,0.352
84.51,1,-0.057,0.002,-0.004,-0.049,-0.002,0.004,-1.619,-0.003,-1.058,82.86,96.6,40.540672,-3.4718,669.5,6,5,346.3,0.352
84.61,1,0.002,-0.006,-0.012,-0.035,-0.003,-0.008,-1.621,-0.003,-1.058,83.87,97.9,40.540913,-3.471876,670.2,6,5,345.9,0.352
84.71,1,0.015,0.009,-0.01,-0.004,0.005,-0.006,-1.62,-0.004,-1.058,83.87,97.9,40.540913,-3.471876,670.2,6,5,345.9,0.352
84.81,1,-0.018,0.031,-0.015,-0.005,0.017,-0.009,-1.619,-0.007,-1.057,83.87,97.9,40.540913,-3.471876,670.2,6,5,345.9,0.352
84.91,1,-0.046,-0.024,-0.046,-0.027,-0.001,-0.027,-1.619,-0.004,-1.057,83.87,97.9,40.540913,-3.471876,670.2,6,5,345.9,0.352
85.01,1,-0.055,-0.009,-0.037,-0.039,-0.009,-0.036,-1.618,-0.003,-1.056,83.87,97.9,40.540913,-3.471876,670.2,6,5,345.9,0.352
85.11,1,-0.027,-0.004,-0.047,-0.04,-0.007,-0.044,-1.617,-0.004,-1.057,83.87,97.9,40.540913,-3.471876,670.2,6,5,345.9,0.352
85.21,1,0.0,0.004,-0.038,-0.021,0.003,-0.039,-1.615,-0.003,-1.057,83.87,97.9,40.540913,-3.471876,670.2,6,5,345.9,0.352
85.31,1,0.004,-0.01,-0.05,-0.004,-0.002,-0.043,-1.609,-0.004,-1.056,83.87,97.9,40.540913,-3.471876,670.2,6,5,345.9,0.352
85.41,1,-0.008,0.004,-0.078,-0.001,-0.004,-0.061,-1.6,-0.004,-1.056,83.87,97.9,40.540913,-3.471876,670.2,6,5,345.9,0.352
85.51,1,-0.01,-0.02,-0.061,-0.011,-0.008,-0.061,-1.594,-0.004,-1.056,83.87,97.9,40.540913,-3.471876,670.2,6,5,345.9,0.352
85.62,1,0.003,0.004,-0.079,-0.006,-0.008,-0.071,-1.587,-0.005,-1.056,84.88,99.2,40.541149,-3.471953,670.9,6,5,345.9,0.352
85.71,1,-0.013,0.004,-0.075,-0.01,0.002,-0.075,-1.581,-0.006,-1.056,84.88,99.2,40.541149,-3.471953,670.9,6,5,345.9,0.352
85.81,1,-0.005,0.01,-0.061,-0.003,0.005,-0.063,-1.574,-0.007,-1.056,84.88,99.2,40.541149,-3.471953,670.9,6,5,345.9,0.352
85.91,1,-0.003,-0.003,-0.049,-0.008,0.007,-0.059,-1.568,-0.007,-1.056,84.88,99.2,40.541149,-3.471953,670.9,6,5,345.9,0.352
86.01,1,-0.033,0.001,-0.008,-0.015,-0.004,-0.042,-1.565,-0.005,-1.056,84.88,99.2,40.541149,-3.471953,670.9,6,5,345.9,0.352
86.11,1,-0.021,0.029,-0.035,-0.021,0.013,-0.029,-1.561,-0.005,-1.056,84.88,99.2,40.541149,-3.471953,670.9,6,5,345.9,0.352
86.21,1,0.007,0.004,-0.045,-0.007,0.013,-0.036,-1.557,-0.005,-1.056,84.88,99.2,40.541149,-3.471953,670.9,6,5,345.9,0.352
86.31,1,-0.007,-0.011,-0.055,-0.004,0.001,-0.051,-1.555,-0.003,-1.056,84.88,99.2,40.541149,-3.471953,670.9,6,5,345.9,0.352
86.41,1,-0.029,-0.001,-0.055,-0.017,-0.004,-0.051,-1.553,-0.001,-1.056,84.88,99.2,40.541149,-3.471953,670.9,6,5,345.9,0.352
86.51,1,0.001,0.005,-0.046,-0.01,0.001,-0.049,-1.549,-0.0,-1.056,84.88,99.2,40.541149,-3.471953,670.9,6,5,345.9,0.352
86.61,1,0.004,0.001,-0.039,-0.006,0.001,-0.045,-1.546,-0.001,-1.056,85.94,100.9,40.541389,-3.472035,671.7,6,5,345.9,0.0
86.71,1,-0.021,0.011,-0.052,-0.006,0.002,-0.041,-1.542,-0.002,-1.056,85.94,100.9,40.541389,-3.472035,671.7,6,5,345.9,0.0
86.81,1,-0.036,-0.014,-0.016,-0.021,-0.003,-0.042,-1.538,-0.003,-1.056,85.94,100.9,40.541389,-3.472035,671.7,6,5,345.9,0.0
86.92,1,-0.029,-0.004,-0.041,-0.027,-0.007,-0.028,-1.539,-0.005,-1.056,85.94,100.9,40.541389,-3.472035,671.7,6,5,345.9,0.0
87.03,1,-0.058,0.01,-0.05,-0.042,0.003,-0.044,-1.536,-0.007,-1.056,85.94,100.9,40.541389,-3.472035,671.7,6,5,345.9,0.0
87.12,1,-0.015,0.002,-0.013,-0.034,0.007,-0.036,-1.535,-0.007,-1.056,85.94,100.9,40.541389,-3.472035,671.7,6,5,345.9,0.0
87.21,1,-0.017,-0.003,-0.017,-0.024,0.002,-0.019,-1.535,-0.006,-1.056,85.94,100.9,40.541389,-3.472035,671.7,6,5,345.9,0.0
87.31,1,-0.024,0.011,-0.044,-0.023,0.003,-0.027,-1.533,-0.008,-1.056,85.94,100.9,40.541389,-3.472035,671.7,6,5,345.9,0.0
87.41,1,0.01,-0.01,-0.001,-0.011,-0.003,-0.027,-1.533,-0.005,-1.056,85.94,100.9,40.541389,-3.472035,671.7,6,5,345.9,0.0
87.53,1,0.005,0.013,-0.024,0.004,0.003,-0.014,-1.53,-0.005,-1.056,85.94,100.9,40.541389,-3.472035,671.7,6,5,345.9,0.0
87.62,1,-0.008,-0.01,-0.029,-0.002,0.002,-0.02,-1.526,-0.003,-1.056,86.85,99.4,40.54163,-3.472122,672.1,6,5,345.6,0.352
87.72,1,0.032,0.001,-0.023,0.008,-0.002,-0.026,-1.525,-0.001,-1.057,86.85,99.4,40.54163,-3.472122,672.1,6,5,345.6,0.352
87.83,1,-0.029,0.019,-0.041,-0.001,0.005,-0.034,-1.522,-0.0,-1.057,86.85,99.4,40.54163,-3.472122,672.1,6,5,345.6,0.352
87.92,1,-0.014,0.015,0.008,-0.012,0.015,-0.012,-1.524,-0.002,-1.057,86.85,99.4,40.54163,-3.472122,672.1,6,5,345.6,0.352
88.02,1,-0.028,0.032,-0.028,-0.02,0.02,-0.016,-1.525,0.0,-1.057,86.85,99.4,40.54163,-3.472122,672.1,6,5,345.6,0.352
88.12,1,-0.022,-0.018,-0.003,-0.021,0.005,-0.013,-1.524,0.005,-1.057,86.85,99.4,40.54163,-3.472122,672.1,6,5,345.6,0.352
88.22,1,-0.034,-0.027,-0.018,-0.02,-0.013,-0.013,-1.521,0.005,-1.057,86.85,99.4,40.54163,-3.472122,672.1,6,5,345.6,0.352
88.32,1,-0.013,-0.01,-0.006,-0.026,-0.014,-0.015,-1.524,0.003,-1.057,86.85,99.4,40.54163,-3.472122,672.1,6,5,345.6,0.352
88.42,1,-0.029,0.006,0.003,-0.027,-0.005,-0.006,-1.526,0.003,-1.058,86.85,99.4,40.54163,-3.472122,672.1,6,5,345.6,0.352
88.52,1,-0.006,-0.01,0.002,-0.018,-0.003,0.002,-1.527,0.004,-1.058,86.85,99.4,40.54163,-3.472122,672.1,6,5,345.6,0.352
88.62,1,-0.013,-0.009,0.005,-0.009,-0.009,0.0,-1.526,0.004,-1.058,87.85,97.4,40.541862,-3.472208,672.6,6,5,345.6,0.352
88.73,1,-0.047,0.017,-0.013,-0.032,0.002,-0.002,-1.528,0.003,-1.058,87.85,97.4,40.541862,-3.472208,672.6,6,5,345.6,0.352
88.83,1,0.016,0.018,0.03,-0.016,0.013,0.009,-1.53,0.004,-1.058,87.85,97.4,40.541862,-3.472208,672.6,6,5,345.6,0.352
88.92,1,0.037,0.006,0.057,0.017,0.01,0.033,-1.534,0.005,-1.058,87.85,97.4,40.541862,-3.472208,672.6,6,5,345.6,0.352
89.02,1,-0.021,-0.013,0.055,0.007,-0.001,0.05,-1.54,0.006,-1.058,87.85,97.4,40.541862,-3.472208,672.6,6,5,345.6,0.352
89.12,1,-0.043,0.003,0.054,-0.02,0.002,0.051,-1.544,0.004,-1.058,87.85,97.4,40.541862,-3.472208,672.6,6,5,345.6,0.352
89.22,1,-0.033,0.029,0.061,-0.032,0.013,0.054,-1.55,0.004,-1.058,87.85,97.4,40.541862,-3.472208,672.6,6,5,345.6,0.352
89.32,1,-0.014,0.021,0.027,-0.026,0.019,0.049,-1.554,0.004,-1.058,87.85,97.4,40.541862,-3.472208,672.6,6,5,345.6,0.352
89.42,1,-0.037,-0.003,0.036,-0.023,0.01,0.035,-1.558,0.002,-1.058,87.85,97.4,40.541862,-3.472208,672.6,6,5,345.6,0.352
89.53,1,-0.028,-0.024,0.039,-0.032,-0.005,0.037,-1.563,-0.002,-1.058,87.85,97.4,40.541862,-3.472208,672.6,6,5,345.6,0.352
89.62,1,-0.033,0.0,0.026,-0.033,-0.008,0.033,-1.567,0.002,-1.058,88.85,92.3,40.542091,-3.472286,673.0,6,5,345.6,0.0
89.72,1,0.022,0.019,0.041,-0.008,0.005,0.039,-1.571,0.005,-1.058,88.85,92.3,40.542091,-3.472286,673.0,6,5,345.6,0.0
89.83,1,0.035,-0.024,0.029,0.022,-0.007,0.035,-1.569,0.002,-1.059,88.85,92.3,40.542091,-3.472286,673.0,6,5,345.6,0.0
89.92,1,0.024,0.018,0.016,0.023,0.003,0.027,-1.571,-0.001,-1.059,88.85,92.3,40.542091,-3.472286,673.0,6,5,345.6,0.0
90.03,1,0.002,0.013,0.025,0.011,0.013,0.018,-1.572,-0.004,-1.059,88.85,92.3,40.542091,-3.472286,673.0,6,5,345.6,0.0
90.13,1,0.031,0.004,0.034,0.019,0.009,0.029,-1.576,-0.002,-1.059,88.85,92.3,40.542091,-3.472286,673.0,6,5,345.6,0.0
90.23,1,-0.008,-0.003,-0.005,0.013,-0.001,0.017,-1.575,0.001,-1.058,88.85,92.3,40.542091,-3.472286,673.0,6,5,345.6,0.0
90.33,1,-0.063,0.0,-0.023,-0.024,0.001,-0.006,-1.577,0.001,-1.058,88.85,92.3,40.542091,-3.472286,673.0,6,5,345.6,0.0
90.42,1,-0.092,-0.005,-0.013,-0.065,0.001,-0.012,-1.578,0.004,-1.059,88.85,92.3,40.542091,-3.472286,673.0,6,5,345.6,0.0
90.53,1,-0.053,0.024,-0.013,-0.073,0.006,-0.019,-1.579,0.003,-1.059,88.85,92.3,40.542091,-3.472286,673.0,6,5,345.6,0.0
90.63,1,-0.038,0.028,-0.031,-0.051,0.019,-0.006,-1.58,0.001,-1.059,89.85,92.9,40.54232,-3.472357,673.3,6,5,345.9,0.352
90.72,1,0.049,-0.004,-0.043,-0.005,0.016,-0.033,-1.579,0.003,-1.059,89.85,92.9,40.54232,-3.472357,673.3,6,5,345.9,0.352
90.83,1,0.077,-0.015,-0.048,0.044,-0.002,-0.043,-1.576,0.005,-1.059,89.85,92.9,40.54232,-3.472357,673.3,6,5,345.9,0.352
90.93,1,0.073,0.02,-0.075,0.065,0.002,-0.052,-1.571,0.004,-1.059,89.85,92.9,40.54232,-3.472357,673.3,6,5,345.9,0.352
91.02,1,0.017,0.023,-0.033,0.048,0.015,-0.057,-1.566,0.003,-1.06,89.85,92.9,40.54232,-3.472357,673.3,6,5,345.9,0.352
91.13,1,-0.015,-0.019,-0.053,0.015,0.008,-0.047,-1.563,0.006,-1.06,89.85,92.9,40.54232,-3.472357,673.3,6,5,345.9,0.352
91.23,1,-0.056,-0.018,-0.048,-0.02,-0.014,-0.052,-1.562,0.012,-1.06,89.85,92.9,40.54232,-3.472357,673.3,6,5,345.9,0.352
91.33,1,-0.098,0.027,-0.053,-0.067,0.002,-0.054,-1.561,0.011,-1.061,89.85,92.9,40.54232,-3.472357,673.3,6,5,345.9,0.352
91.43,1,-0.059,0.02,-0.008,-0.069,0.017,-0.031,-1.562,0.007,-1.061,89.85,92.9,40.54232,-3.472357,673.3,6,5,345.9,0.352
91.54,1,0.015,-0.004,-0.016,-0.032,0.007,-0.023,-1.561,0.004,-1.061,89.85,92.9,40.54232,-3.472357,673.3,6,5,345.9,0.352
91.63,1,0.064,0.018,0.01,0.019,0.009,-0.007,-1.559,0.005,-1.062,90.86,93.7,40.542553,-3.472438,673.9,6,5,345.9,0.352
91.73,1,0.022,0.014,-0.011,0.033,0.013,-0.006,-1.556,0.007,-1.062,90.86,93.7,40.542553,-3.472438,673.9,6,5,345.9,0.352
91.84,1,-0.031,0.008,-0.026,0.005,0.009,-0.007,-1.556,0.007,-1.062,90.86,93.7,40.542553,-3.472438,673.9,6,5,345.9,0.352
91.93,1,-0.022,0.009,0.022,-0.014,0.012,-0.006,-1.554,0.003,-1.063,90.86,93.7,40.542553,-3.472438,673.9,6,5,345.9,0.352
92.04,1,0.005,-0.01,0.018,-0.009,0.002,0.012,-1.553,-0.002,-1.063,90.86,93.7,40.542553,-3.472438,673.9,6,5,345.9,0.352
92.13,1,-0.044,0.015,0.012,-0.019,0.004,0.015,-1.555,-0.005,-1.063,90.86,93.7,40.542553,-3.472438,673.9,6,5,345.9,0.352
92.23,1,-0.034,-0.002,0.023,-0.029,0.01,0.02,-1.559,-0.003,-1.063,90.86,93.7,40.542553,-3.472438,673.9,6,5,345.9,0.352
92.33,1,-0.008,-0.012,0.027,-0.022,-0.006,0.024,-1.561,-0.0,-1.063,90.86,93.7,40.542553,-3.472438,673.9,6,5,345.9,0.352
92.43,1,-0.037,-0.009,0.013,-0.028,-0.008,0.017,-1.563,0.003,-1.063,90.86,93.7,40.542553,-3.472438,673.9,6,5,345.9,0.352
92.53,1,-0.038,-0.014,0.02,-0.031,-0.013,0.016,-1.564,0.004,-1.063,90.86,93.7,40.542553,-3.472438,673.9,6,5,345.9,0.352
92.63,1,0.015,0.004,0.027,-0.017,-0.002,0.02,-1.564,0.005,-1.063,91.86,92.7,40.542786,-3.472517,674.6,6,5,345.9,0.0
92.73,1,0.015,-0.022,0.005,0.008,-0.012,0.019,-1.563,0.009,-1.062,91.86,92.7,40.542786,-3.472517,674.6,6,5,345.9,0.0
92.83,1,-0.009,-0.015,-0.005,-0.001,-0.016,0.004,-1.56,0.009,-1.061,91.86,92.7,40.542786,-3.472517,674.6,6,5,345.9,0.0
92.93,1,-0.003,-0.011,0.042,-0.003,-0.013,0.02,-1.561,0.009,-1.061,91.86,92.7,40.542786,-3.472517,674.6,6,5,345.9,0.0
93.03,1,-0.034,0.015,0.008,-0.013,-0.003,0.021,-1.564,0.009,-1.06,91.86,92.7,40.542786,-3.472517,674.6,6,5,345.9,0.0
93.13,1,0.003,0.004,0.034,-0.016,0.002,0.019,-1.566,0.01,-1.059,91.86,92.7,40.542786,-3.472517,674.6,6,5,345.9,0.0
93.23,1,-0.01,-0.024,0.019,-0.008,-0.002,0.029,-1.565,0.011,-1.058,91.86,92.7,40.542786,-3.472517,674.6,6,5,345.9,0.0
93.33,1,-0.032,-0.046,-0.0,-0.017,-0.028,0.012,-1.566,0.014,-1.057,91.86,92.7,40.542786,-3.472517,674.6,6,5,345.9,0.0
93.43,1,-0.031,-0.002,0.011,-0.029,-0.023,0.001,-1.567,0.014,-1.056,91.86,92.7,40.542786,-3.472517,674.6,6,5,345.9,0.0
93.53,1,-0.06,0.004,0.008,-0.045,-0.007,0.013,-1.57,0.01,-1.056,91.86,92.7,40.542786,-3.472517,674.6,6,5,345.9,0.0
93.63,1,0.001,-0.023,0.015,-0.027,-0.01,0.014,-1.572,0.01,-1.054,92.9,90.9,40.543003,-3.472597,675.1,6,5,346.3,0.352
93.74,1,0.034,-0.015,0.036,0.003,-0.014,0.021,-1.573,0.013,-1.053,92.9,90.9,40.543003,-3.472597,675.1,6,5,346.3,0.352
93.83,1,0.028,-0.018,0.023,0.029,-0.016,0.027,-1.572,0.016,-1.052,92.9,90.9,40.543003,-3.472597,675.1,6,5,346.3,0.352
94.03,1,-0.062,-0.008,-0.005,-0.015,-0.004,0.008,-1.573,0.014,-1.051,92.9,90.9,40.543003,-3.472597,675.1,6,5,346.3,0.352
94.13,1,-0.046,-0.011,0.002,-0.043,-0.009,0.002,-1.576,0.013,-1.05,92.9,90.9,40.543003,-3.472597,675.1,6,5,346.3,0.352
94.23,1,-0.023,0.008,0.004,-0.035,-0.005,0.006,-1.575,0.01,-1.05,92.9,90.9,40.543003,-3.472597,675.1,6,5,346.3,0.352
94.34,1,-0.002,0.018,-0.017,-0.016,0.01,-0.003,-1.574,0.009,-1.05,92.9,90.9,40.543003,-3.472597,675.1,6,5,346.3,0.352
94.43,1,-0.006,0.016,-0.026,-0.007,0.011,-0.018,-1.569,0.007,-1.05,92.9,90.9,40.543003,-3.472597,675.1,6,5,346.3,0.352
94.54,1,-0.017,0.012,-0.03,-0.011,0.016,-0.026,-1.565,0.006,-1.05,92.9,90.9,40.543003,-3.472597,675.1,6,5,346.3,0.352
94.63,1,-0.044,0.016,-0.035,-0.026,0.011,-0.032,-1.562,0.006,-1.05,92.9,90.9,40.543003,-3.472597,675.1,6,5,346.3,0.352
94.73,1,-0.04,0.024,-0.067,-0.039,0.015,-0.046,-1.561,0.006,-1.05,93.86,93.3,40.543224,-3.472666,675.5,6,5,346.6,0.703
94.83,1,0.013,0.034,-0.03,-0.015,0.028,-0.046,-1.56,0.003,-1.051,93.86,93.3,40.543224,-3.472666,675.5,6,5,346.6,0.703
94.95,1,0.042,0.014,-0.039,0.015,0.026,-0.034,-1.556,0.001,-1.051,93.86,93.3,40.543224,-3.472666,675.5,6,5,346.6,0.703
95.03,1,0.046,0.015,-0.052,0.033,0.017,-0.047,-1.55,0.004,-1.051,93.86,93.3,40.543224,-3.472666,675.5,6,5,346.6,0.703
95.15,1,0.01,0.023,-0.023,0.029,0.02,-0.034,-1.546,0.005,-1.051,93.86,93.3,40.543224,-3.472666,675.5,6,5,346.6,0.703
95.24,1,-0.014,0.014,-0.016,0.005,0.02,-0.027,-1.544,0.005,-1.051,93.86,93.3,40.543224,-3.472666,675.5,6,5,346.6,0.703
95.34,1,-0.024,0.02,0.006,-0.015,0.019,-0.013,-1.542,0.004,-1.051,93.86,93.3,40.543224,-3.472666,675.5,6,5,346.6,0.703
95.43,1,-0.003,0.001,-0.017,-0.012,0.01,-0.011,-1.543,0.005,-1.052,93.86,93.3,40.543224,-3.472666,675.5,6,5,346.6,0.703
95.54,1,-0.04,0.015,-0.04,-0.02,0.006,-0.023,-1.54,0.005,-1.052,93.86,93.3,40.543224,-3.472666,675.5,6,5,346.6,0.703
95.64,1,-0.04,-0.005,-0.016,-0.033,0.007,-0.021,-1.54,0.005,-1.052,93.86,93.3,40.543224,-3.472666,675.5,6,5,346.6,0.703
95.74,1,-0.014,0.009,-0.007,-0.023,0.005,-0.012,-1.541,0.005,-1.053,94.94,92.0,40.543449,-3.472743,676.4,6,5,345.9,0.703
95.84,1,-0.009,0.017,-0.01,-0.014,0.01,-0.012,-1.54,0.004,-1.053,94.94,92.0,40.543449,-3.472743,676.4,6,5,345.9,0.703
95.94,1,-0.03,0.006,-0.02,-0.023,0.01,-0.018,-1.54,0.003,-1.053,94.94,92.0,40.543449,-3.472743,676.4,6,5,345.9,0.703
96.04,1,-0.017,-0.003,-0.017,-0.021,0.004,-0.016,-1.541,0.004,-1.054,94.94,92.0,40.543449,-3.472743,676.4,6,5,345.9,0.703
96.14,1,-0.015,0.002,-0.006,-0.016,-0.001,-0.015,-1.541,0.004,-1.054,94.94,92.0,40.543449,-3.472743,676.4,6,5,345.9,0.703
96.24,1,-0.04,0.026,-0.016,-0.028,0.011,-0.011,-1.541,0.004,-1.054,94.94,92.0,40.543449,-3.472743,676.4,6,5,345.9,0.703
96.34,1,-0.002,0.002,0.011,-0.02,0.009,-0.001,-1.542,0.006,-1.054,94.94,92.0,40.543449,-3.472743,676.4,6,5,345.9,0.703
96.44,1,0.001,-0.02,-0.005,-0.006,-0.005,-0.001,-1.543,0.008,-1.055,94.94,92.0,40.543449,-3.472743,676.4,6,5,345.9,0.703
96.54,1,-0.029,0.004,-0.015,-0.012,0.0,-0.004,-1.544,0.006,-1.055,94.94,92.0,40.543449,-3.472743,676.4,6,5,345.9,0.703
96.64,1,-0.015,0.027,0.035,-0.02,0.013,0.006,-1.546,0.005,-1.056,94.94,92.0,40.543449,-3.472743,676.4,6,5,345.9,0.703
96.74,1,-0.007,0.015,0.032,-0.013,0.017,0.018,-1.548,0.004,-1.056,95.86,89.1,40.54369,-3.472806,677.4,6,5,345.6,1.055
96.85,1,0.008,-0.018,0.026,-0.005,-0.0,0.03,-1.551,0.006,-1.056,95.86,89.1,40.54369,-3.472806,677.4,6,5,345.6,1.055
96.94,1,-0.009,-0.022,0.022,0.004,-0.01,0.025,-1.552,0.004,-1.057,95.86,89.1,40.54369,-3.472806,677.4,6,5,345.6,1.055
97.04,1,-0.027,0.022,0.03,-0.017,0.0,0.027,-1.556,0.002,-1.057,95.86,89.1,40.54369,-3.472806,677.4,6,5,345.6,1.055
97.14,1,-0.011,0.008,0.026,-0.018,0.004,0.031,-1.558,-0.002,-1.057,95.86,89.1,40.54369,-3.472806,677.4,6,5,345.6,1.055
97.24,1,-0.032,-0.029,0.015,-0.023,-0.004,0.019,-1.559,-0.005,-1.058,95.86,89.1,40.54369,-3.472806,677.4,6,5,345.6,1.055
97.34,1,-0.009,-0.009,0.023,-0.017,-0.011,0.019,-1.561,-0.006,-1.058,95.86,89.1,40.54369,-3.472806,677.4,6,5,345.6,1.055
97.44,1,0.005,0.019,0.017,-0.008,-0.001,0.019,-1.563,-0.008,-1.059,95.86,89.1,40.54369,-3.472806,677.4,6,5,345.6,1.055
97.54,1,-0.008,0.006,0.035,-0.007,0.006,0.027,-1.565,-0.008,-1.059,95.86,89.1,40.54369,-3.472806,677.4,6,5,345.6,1.055
97.65,1,-0.017,0.005,0.02,-0.01,0.008,0.026,-1.567,-0.005,-1.059,95.86,89.1,40.54369,-3.472806,677.4,6,5,345.6,1.055
97.74,1,-0.003,-0.023,0.024,-0.008,-0.005,0.022,-1.57,-0.001,-1.059,96.91,87.2,40.543896,-3.472874,677.9,6,5,345.6,0.352
97.84,1,-0.027,0.005,0.018,-0.014,-0.007,0.022,-1.572,-0.001,-1.06,96.91,87.2,40.543896,-3.472874,677.9,6,5,345.6,0.352
97.94,1,-0.015,0.016,0.023,-0.016,0.003,0.022,-1.572,-0.002,-1.06,96.91,87.2,40.543896,-3.472874,677.9,6,5,345.6,0.352
98.04,1,-0.019,-0.009,0.005,-0.021,0.004,0.015,-1.574,-0.002,-1.06,96.91,87.2,40.543896,-3.472874,677.9,6,5,345.6,0.352
98.14,1,-0.006,0.01,0.011,-0.011,0.004,0.016,-1.575,0.0,-1.061,96.91,87.2,40.543896,-3.472874,677.9,6,5,345.6,0.352
98.25,1,-0.021,0.004,-0.006,-0.016,0.007,0.001,-1.575,-0.0,-1.061,96.91,87.2,40.543896,-3.472874,677.9,6,5,345.6,0.352
98.35,1,-0.0,0.007,0.022,-0.016,0.001,0.004,-1.577,-0.001,-1.062,96.91,87.2,40.543896,-3.472874,677.9,6,5,345.6,0.352
98.45,1,0.008,0.002,0.026,0.001,0.005,0.018,-1.576,-0.003,-1.062,96.91,87.2,40.543896,-3.472874,677.9,6,5,345.6,0.352
98.54,1,0.009,-0.016,0.013,0.002,-0.003,0.018,-1.576,-0.002,-1.062,96.91,87.2,40.543896,-3.472874,677.9,6,5,345.6,0.352
98.64,1,0.002,0.018,0.025,0.014,0.004,0.027,-1.576,-0.002,-1.063,96.91,87.2,40.543896,-3.472874,677.9,6,5,345.6,0.352
98.74,1,-0.01,0.002,0.026,0.002,0.003,0.023,-1.577,-0.001,-1.063,97.86,85.9,40.544094,-3.47295,678.6,6,5,345.9,0.352
98.85,1,-0.042,0.022,0.021,-0.023,0.011,0.022,-1.58,-0.002,-1.064,97.86,85.9,40.544094,-3.47295,678.6,6,5,345.9,0.352
98.94,1,-0.022,-0.015,0.026,-0.031,0.002,0.025,-1.583,0.0,-1.064,97.86,85.9,40.544094,-3.47295,678.6,6,5,345.9,0.352
99.04,1,0.02,0.005,0.018,-0.003,-0.0,0.021,-1.584,0.001,-1.064,97.86,85.9,40.544094,-3.47295,678.6,6,5,345.9,0.352
99.14,1,-0.02,0.011,0.026,-0.003,0.006,0.019,-1.584,0.002,-1.065,97.86,85.9,40.544094,-3.47295,678.6,6,5,345.9,0.352
99.24,1,-0.031,0.018,0.021,-0.019,0.012,0.02,-1.584,0.002,-1.065,97.86,85.9,40.544094,-3.47295,678.6,6,5,345.9,0.352
99.35,1,0.018,0.011,0.018,-0.006,0.012,0.025,-1.584,0.001,-1.065,97.86,85.9,40.544094,-3.47295,678.6,6,5,345.9,0.352
99.45,1,-0.015,-0.024,0.03,-0.006,-0.002,0.025,-1.581,-0.001,-1.066,97.86,85.9,40.544094,-3.47295,678.6,6,5,345.9,0.352
99.55,1,-0.015,-0.017,0.029,-0.014,-0.012,0.029,-1.581,-0.004,-1.066,97.86,85.9,40.544094,-3.47295,678.6,6,5,345.9,0.352
99.65,1,-0.019,0.002,0.027,-0.011,-0.01,0.024,-1.581,-0.009,-1.066,97.86,85.9,40.544094,-3.47295,678.6,6,5,345.9,0.352
99.75,1,-0.025,-0.019,0.022,-0.02,-0.011,0.023,-1.582,-0.012,-1.067,98.89,85.8,40.5443,-3.473019,679.3,6,5,346.3,0.703
99.85,1,-0.037,-0.007,0.024,-0.029,-0.013,0.027,-1.582,-0.012,-1.068,98.89,85.8,40.5443,-3.473019,679.3,6,5,346.3,0.703
99.95,1,-0.004,-0.021,0.013,-0.023,-0.011,0.017,-1.583,-0.015,-1.068,98.89,85.8,40.5443,-3.473019,679.3,6,5,346.3,0.703
100.06,1,0.017,-0.01,0.021,0.001,-0.01,0.022,-1.585,-0.013,-1.068,98.89,85.8,40.5443,-3.473019,679.3,6,5,346.3,0.703
100.15,1,-0.022,-0.005,0.006,-0.005,-0.011,0.011,-1.585,-0.012,-1.068,98.89,85.8,40.5443,-3.473019,679.3,6,5,346.3,0.703
100.25,1,-0.012,-0.026,0.031,-0.013,-0.017,0.02,-1.588,-0.011,-1.068,98.89,85.8,40.5443,-3.473019,679.3,6,5,346.3,0.703
100.35,1,-0.001,-0.013,-0.011,-0.008,-0.019,0.011,-1.589,-0.01,-1.069,98.89,85.8,40.5443,-3.473019,679.3,6,5,346.3,0.703
100.45,1,-0.02,-0.017,0.002,-0.008,-0.012,-0.001,-1.59,-0.009,-1.069,98.89,85.8,40.5443,-3.473019,679.3,6,5,346.3,0.703
100.55,1,-0.013,-0.003,0.004,-0.015,-0.011,0.003,-1.593,-0.008,-1.068,98.89,85.8,40.5443,-3.473019,679.3,6,5,346.3,0.703
100.65,1,0.018,-0.005,0.017,-0.002,-0.009,0.01,-1.594,-0.005,-1.068,98.89,85.8,40.5443,-3.473019,679.3,6,5,346.3,0.703
100.77,1,0.019,-0.021,0.019,0.013,-0.014,0.018,-1.593,-0.002,-1.067,99.87,85.3,40.544495,-3.473082,680.0,6,5,346.6,0.703
100.85,1,-0.035,-0.015,-0.005,-0.0,-0.011,0.007,-1.592,0.001,-1.067,99.87,85.3,40.544495,-3.473082,680.0,6,5,346.6,0.703
100.95,1,-0.059,-0.015,0.021,-0.041,-0.018,0.005,-1.593,0.001,-1.066,99.87,85.3,40.544495,-3.473082,680.0,6,5,346.6,0.703
101.05,1,0.039,-0.02,0.048,-0.012,-0.019,0.035,-1.596,-0.0,-1.066,99.87,85.3,40.544495,-3.473082,680.0,6,5,346.6,0.703
101.15,1,-0.006,0.001,-0.018,0.009,-0.009,0.012,-1.595,-0.001,-1.066,99.87,85.3,40.544495,-3.473082,680.0,6,5,346.6,0.703
101.25,1,-0.049,-0.001,0.008,-0.018,-0.005,-0.001,-1.596,-0.003,-1.065,99.87,85.3,40.544495,-3.473082,680.0,6,5,346.6,0.703
101.36,1,-0.034,0.003,-0.004,-0.034,-0.002,0.007,-1.599,-0.005,-1.065,99.87,85.3,40.544495,-3.473082,680.0,6,5,346.6,0.703
101.46,1,-0.01,-0.011,-0.006,-0.024,-0.004,-0.005,-1.602,-0.006,-1.064,99.87,85.3,40.544495,-3.473082,680.0,6,5,346.6,0.703
101.55,1,0.012,0.0,0.014,-0.008,-0.0,0.003,-1.603,-0.009,-1.064,99.87,85.3,40.544495,-3.473082,680.0,6,5,346.6,0.703
101.65,1,0.01,0.013,0.004,0.002,0.004,0.007,-1.603,-0.01,-1.064,99.87,85.3,40.544495,-3.473082,680.0,6,5,346.6,0.703
101.75,1,0.029,-0.007,-0.012,0.021,0.001,-0.001,-1.601,-0.011,-1.065,100.89,86.3,40.544704,-3.473154,681.2,4,5,345.9,0.703
101.85,1,-0.018,0.033,0.002,0.006,0.012,-0.0,-1.6,-0.01,-1.065,100.89,86.3,40.544704,-3.473154,681.2,4,5,345.9,0.703
101.96,1,-0.015,0.032,-0.002,-0.009,0.025,-0.0,-1.601,-0.01,-1.066,100.89,86.3,40.544704,-3.473154,681.2,4,5,345.9,0.703
102.05,1,-0.043,0.017,-0.001,-0.025,0.029,-0.001,-1.601,-0.01,-1.067,100.89,86.3,40.544704,-3.473154,681.2,4,5,345.9,0.703
102.15,1,-0.018,0.009,-0.01,-0.028,0.018,-0.004,-1.601,-0.01,-1.068,100.89,86.3,40.544704,-3.473154,681.2,4,5,345.9,0.703
102.26,1,0.01,0.037,0.008,-0.011,0.019,-0.002,-1.601,-0.012,-1.069,100.89,86.3,40.544704,-3.473154,681.2,4,5,345.9,0.703
102.35,1,0.011,0.039,-0.006,0.005,0.03,-0.0,-1.6,-0.013,-1.07,100.89,86.3,40.544704,-3.473154,681.2,4,5,345.9,0.703
102.46,1,-0.028,0.025,-0.026,-0.006,0.035,-0.014,-1.598,-0.014,-1.07,100.89,86.3,40.544704,-3.473154,681.2,4,5,345.9,0.703
102.57,1,-0.034,0.009,0.009,-0.022,0.024,-0.008,-1.598,-0.014,-1.071,100.89,86.3,40.544704,-3.473154,681.2,4,5,345.9,0.703
102.67,1,-0.014,0.009,-0.014,-0.023,0.009,-0.006,-1.597,-0.014,-1.072,100.89,86.3,40.544704,-3.473154,681.2,4,5,345.9,0.703
102.75,1,-0.025,0.012,-0.03,-0.023,0.007,-0.018,-1.594,-0.013,-1.072,101.85,87.8,40.544922,-3.473215,681.9,4,5,345.9,0.703
102.86,1,0.018,0.006,0.008,-0.007,0.01,-0.011,-1.593,-0.014,-1.072,101.85,87.8,40.544922,-3.473215,681.9,4,5,345.9,0.703
102.95,1,-0.019,-0.016,-0.015,-0.001,0.002,-0.006,-1.591,-0.012,-1.072,101.85,87.8,40.544922,-3.473215,681.9,4,5,345.9,0.703
103.07,1,-0.018,-0.017,-0.013,-0.015,-0.01,-0.013,-1.589,-0.009,-1.072,101.85,87.8,40.544922,-3.473215,681.9,4,5,345.9,0.703
103.16,1,-0.021,-0.003,0.002,-0.022,-0.011,-0.007,-1.588,-0.007,-1.072,101.85,87.8,40.544922,-3.473215,681.9,4,5,345.9,0.703
103.26,1,0.004,-0.012,0.004,-0.011,-0.009,-0.001,-1.586,-0.008,-1.071,101.85,87.8,40.544922,-3.473215,681.9,4,5,345.9,0.703
103.36,1,-0.001,0.006,-0.011,0.001,-0.006,-0.002,-1.584,-0.01,-1.071,101.85,87.8,40.544922,-3.473215,681.9,4,5,345.9,0.703
103.46,1,-0.001,0.006,0.03,-0.001,0.006,0.007,-1.584,-0.011,-1.071,101.85,87.8,40.544922,-3.473215,681.9,4,5,345.9,0.703
103.56,1,0.007,-0.009,0.018,0.005,-0.005,0.021,-1.583,-0.011,-1.07,101.85,87.8,40.544922,-3.473215,681.9,4,5,345.9,0.703
103.66,1,-0.04,0.005,-0.001,-0.014,-0.001,0.006,-1.582,-0.014,-1.07,101.85,87.8,40.544922,-3.473215,681.9,4,5,345.9,0.703
103.76,1,-0.029,-0.014,0.027,-0.031,-0.002,0.012,-1.583,-0.017,-1.069,102.9,86.8,40.545128,-3.473288,682.6,4,5,345.6,0.352
103.86,1,0.002,-0.011,0.013,-0.013,-0.011,0.021,-1.585,-0.016,-1.069,102.9,86.8,40.545128,-3.473288,682.6,4,5,345.6,0.352
103.96,1,-0.001,-0.025,0.016,-0.007,-0.017,0.016,-1.584,-0.018,-1.069,102.9,86.8,40.545128,-3.473288,682.6,4,5,345.6,0.352
104.06,1,0.012,-0.017,0.04,0.002,-0.018,0.022,-1.586,-0.02,-1.069,102.9,86.8,40.545128,-3.473288,682.6,4,5,345.6,0.352
104.16,1,0.001,0.005,0.019,0.005,-0.006,0.031,-1.585,-0.02,-1.068,102.9,86.8,40.545128,-3.473288,682.6,4,5,345.6,0.352
104.27,1,-0.015,-0.005,0.03,-0.002,-0.005,0.025,-1.585,-0.02,-1.068,102.9,86.8,40.545128,-3.473288,682.6,4,5,345.6,0.352
104.36,1,-0.031,0.015,0.0,-0.022,0.005,0.014,-1.584,-0.018,-1.068,102.9,86.8,40.545128,-3.473288,682.6,4,5,345.6,0.352
104.46,1,-0.01,-0.016,0.023,-0.019,-0.0,0.014,-1.584,-0.019,-1.067,102.9,86.8,40.545128,-3.473288,682.6,4,5,345.6,0.352
104.57,1,0.0,-0.029,0.011,-0.005,-0.019,0.015,-1.586,-0.021,-1.067,102.9,86.8,40.545128,-3.473288,682.6,4,5,345.6,0.352
104.66,1,-0.008,0.032,0.001,-0.002,0.003,0.012,-1.587,-0.02,-1.067,102.9,86.8,40.545128,-3.473288,682.6,4,5,345.6,0.352
104.76,1,0.013,-0.01,0.029,0.0,-0.0,0.017,-1.586,-0.02,-1.066,103.86,87.2,40.54533,-3.473362,683.4,4,5,345.9,0.352
104.86,1,-0.015,-0.014,0.008,-0.005,-0.01,0.014,-1.586,-0.02,-1.066,103.86,87.2,40.54533,-3.473362,683.4,4,5,345.9,0.352
104.97,1,-0.061,0.009,0.022,-0.028,0.002,0.016,-1.588,-0.022,-1.066,103.86,87.2,40.54533,-3.473362,683.4,4,5,345.9,0.352
105.07,1,-0.014,0.003,0.018,-0.032,0.003,0.018,-1.59,-0.023,-1.066,103.86,87.2,40.54533,-3.473362,683.4,4,5,345.9,0.352
105.16,1,0.007,-0.022,0.023,-0.014,-0.008,0.02,-1.593,-0.021,-1.066,103.86,87.2,40.54533,-3.473362,683.4,4,5,345.9,0.352
105.26,1,-0.002,-0.008,-0.006,-0.002,-0.011,0.011,-1.593,-0.022,-1.066,103.86,87.2,40.54533,-3.473362,683.4,4,5,345.9,0.352
105.36,1,-0.029,-0.0,0.007,-0.012,-0.009,0.002,-1.592,-0.023,-1.066,103.86,87.2,40.54533,-3.473362,683.4,4,5,345.9,0.352
105.46,1,0.014,-0.01,0.017,-0.012,-0.003,0.008,-1.594,-0.024,-1.065,103.86,87.2,40.54533,-3.473362,683.4,4,5,345.9,0.352
105.56,1,-0.006,-0.012,-0.026,0.005,-0.01,0.008,-1.594,-0.025,-1.065,103.86,87.2,40.54533,-3.473362,683.4,4,5,345.9,0.352
105.67,1,-0.045,-0.027,-0.007,-0.018,-0.016,-0.015,-1.595,-0.026,-1.064,103.86,87.2,40.54533,-3.473362,683.4,4,5,345.9,0.352
105.77,1,-0.049,0.007,0.017,-0.039,-0.01,0.0,-1.598,-0.026,-1.064,104.9,87.1,40.545536,-3.47344,684.2,6,5,345.9,0.352
105.86,1,0.003,-0.006,0.025,-0.027,-0.005,0.013,-1.6,-0.026,-1.064,104.9,87.1,40.545536,-3.47344,684.2,6,5,345.9,0.352
105.96,1,0.036,-0.006,-0.023,0.009,-0.008,0.005,-1.598,-0.026,-1.063,104.9,87.1,40.545536,-3.47344,684.2,6,5,345.9,0.352
106.06,1,0.01,0.004,0.011,0.012,-0.004,-0.002,-1.595,-0.026,-1.063,104.9,87.1,40.545536,-3.47344,684.2,6,5,345.9,0.352
106.17,1,-0.002,-0.016,0.009,0.009,-0.004,0.006,-1.596,-0.025,-1.063,104.9,87.1,40.545536,-3.47344,684.2,6,5,345.9,0.352
106.26,1,-0.004,-0.017,-0.005,0.0,-0.012,0.002,-1.595,-0.025,-1.062,104.9,87.1,40.545536,-3.47344,684.2,6,5,345.9,0.352
106.36,1,-0.017,0.024,-0.014,-0.004,-0.001,-0.005,-1.593,-0.027,-1.063,104.9,87.1,40.545536,-3.47344,684.2,6,5,345.9,0.352
106.46,1,-0.022,0.01,0.016,-0.021,0.009,-0.004,-1.596,-0.028,-1.062,104.9,87.1,40.545536,-3.47344,684.2,6,5,345.9,0.352
106.56,1,-0.019,-0.01,0.008,-0.018,0.001,0.012,-1.599,-0.025,-1.061,104.9,87.1,40.545536,-3.47344,684.2,6,5,345.9,0.352
106.66,1,-0.065,-0.006,-0.014,-0.033,-0.002,-0.004,-1.598,-0.024,-1.061,104.9,87.1,40.545536,-3.47344,684.2,6,5,345.9,0.352
106.77,1,-0.009,-0.017,0.035,-0.035,-0.01,0.014,-1.602,-0.025,-1.061,105.97,87.3,40.54575,-3.473509,684.9,4,5,345.6,0.352
106.87,1,0.031,-0.011,0.028,-0.004,-0.012,0.022,-1.603,-0.025,-1.061,105.97,87.3,40.54575,-3.473509,684.9,4,5,345.6,0.352
106.97,1,0.014,0.013,-0.011,0.015,0.001,0.014,-1.603,-0.026,-1.061,105.97,87.3,40.54575,-3.473509,684.9,4,5,345.6,0.352
107.07,1,0.015,0.006,-0.016,0.014,0.005,-0.01,-1.6,-0.027,-1.061,105.97,87.3,40.54575,-3.473509,684.9,4,5,345.6,0.352
107.17,1,-0.047,0.007,-0.025,-0.01,0.003,-0.009,-1.596,-0.03,-1.061,105.97,87.3,40.54575,-3.473509,684.9,4,5,345.6,0.352
107.27,1,-0.053,-0.03,-0.04,-0.038,-0.008,-0.03,-1.593,-0.031,-1.06,105.97,87.3,40.54575,-3.473509,684.9,4,5,345.6,0.352
107.37,1,-0.012,-0.014,-0.024,-0.039,-0.012,-0.035,-1.59,-0.032,-1.06,105.97,87.3,40.54575,-3.473509,684.9,4,5,345.6,0.352
107.47,1,0.008,0.003,-0.065,-0.008,-0.003,-0.033,-1.587,-0.033,-1.059,105.97,87.3,40.54575,-3.473509,684.9,4,5,345.6,0.352
107.57,1,-0.001,-0.018,-0.092,-0.001,-0.009,-0.074,-1.585,-0.033,-1.059,105.97,87.3,40.54575,-3.473509,684.9,4,5,345.6,0.352
107.67,1,0.012,-0.014,-0.066,0.007,-0.018,-0.067,-1.584,-0.034,-1.059,105.97,87.3,40.54575,-3.473509,684.9,4,5,345.6,0.352
107.77,1,0.018,-0.014,-0.07,0.013,-0.013,-0.073,-1.579,-0.034,-1.058,106.86,87.5,40.545956,-3.473596,685.9,6,5,345.2,0.703
107.87,1,0.009,-0.008,-0.058,0.01,-0.009,-0.068,-1.572,-0.037,-1.058,106.86,87.5,40.545956,-3.473596,685.9,6,5,345.2,0.703
107.97,1,0.012,-0.012,-0.023,0.016,-0.015,-0.043,-1.565,-0.037,-1.057,106.86,87.5,40.545956,-3.473596,685.9,6,5,345.2,0.703
108.07,1,-0.006,-0.019,-0.073,0.003,-0.013,-0.053,-1.558,-0.034,-1.056,106.86,87.5,40.545956,-3.473596,685.9,6,5,345.2,0.703
108.17,1,-0.04,0.026,-0.023,-0.017,-0.002,-0.045,-1.557,-0.029,-1.055,106.86,87.5,40.545956,-3.473596,685.9,6,5,345.2,0.703
108.27,1,-0.037,-0.009,-0.022,-0.031,0.003,-0.034,-1.558,-0.027,-1.055,106.86,87.5,40.545956,-3.473596,685.9,6,5,345.2,0.703
108.37,1,0.018,-0.014,0.004,-0.011,-0.007,-0.013,-1.559,-0.024,-1.055,106.86,87.5,40.545956,-3.473596,685.9,6,5,345.2,0.703
108.47,1,0.01,-0.011,-0.061,0.009,-0.011,-0.026,-1.557,-0.023,-1.054,106.86,87.5,40.545956,-3.473596,685.9,6,5,345.2,0.703
108.57,1,-0.037,-0.004,-0.021,-0.015,-0.005,-0.035,-1.554,-0.022,-1.053,106.86,87.5,40.545956,-3.473596,685.9,6,5,345.2,0.703
108.68,1,-0.043,0.014,-0.007,-0.031,0.001,-0.019,-1.554,-0.022,-1.053,106.86,87.5,40.545956,-3.473596,685.9,6,5,345.2,0.703
108.78,1,0.0,0.001,-0.01,-0.022,0.005,-0.016,-1.555,-0.022,-1.052,107.87,86.7,40.546173,-3.47367,686.7,6,5,345.2,0.352
108.88,1,0.024,0.01,0.029,0.002,0.002,0.004,-1.559,-0.022,-1.052,107.87,86.7,40.546173,-3.47367,686.7,6,5,345.2,0.352
108.97,1,0.01,0.026,0.017,0.012,0.016,0.015,-1.564,-0.022,-1.052,107.87,86.7,40.546173,-3.47367,686.7,6,5,345.2,0.352
109.07,1,-0.04,0.038,0.033,-0.009,0.025,0.026,-1.567,-0.023,-1.051,107.87,86.7,40.546173,-3.47367,686.7,6,5,345.2,0.352
109.17,1,-0.064,-0.018,0.043,-0.039,0.025,0.03,-1.573,-0.024,-1.051,107.87,86.7,40.546173,-3.47367,686.7,6,5,345.2,0.352
109.28,1,0.035,0.019,0.067,-0.014,0.005,0.053,-1.574,-0.025,-1.051,107.87,86.7,40.546173,-3.47367,686.7,6,5,345.2,0.352
109.37,1,0.017,-0.003,0.035,0.009,-0.001,0.045,-1.572,-0.027,-1.051,107.87,86.7,40.546173,-3.47367,686.7,6,5,345.2,0.352
109.47,1,-0.047,0.026,0.002,-0.011,0.011,0.025,-1.571,-0.028,-1.05,107.87,86.7,40.546173,-3.47367,686.7,6,5,345.2,0.352
109.57,1,-0.022,0.001,0.043,-0.026,0.016,0.026,-1.574,-0.028,-1.049,107.87,86.7,40.546173,-3.47367,686.7,6,5,345.2,0.352
109.67,1,-0.005,-0.012,0.035,-0.015,0.002,0.041,-1.579,-0.027,-1.047,107.87,86.7,40.546173,-3.47367,686.7,6,5,345.2,0.352
109.77,1,0.036,-0.007,0.043,0.009,-0.01,0.034,-1.58,-0.026,-1.046,108.86,85.3,40.546375,-3.47374,687.6,6,5,344.5,0.703
109.88,1,0.007,-0.031,0.013,0.014,-0.019,0.031,-1.581,-0.021,-1.045,108.86,85.3,40.546375,-3.47374,687.6,6,5,344.5,0.703
109.97,1,-0.044,0.007,0.023,-0.008,-0.012,0.019,-1.582,-0.019,-1.044,108.86,85.3,40.546375,-3.47374,687.6,6,5,344.5,0.703
110.08,1,-0.035,0.005,0.025,-0.03,0.003,0.027,-1.587,-0.019,-1.042,108.86,85.3,40.546375,-3.47374,687.6,6,5,344.5,0.703
110.18,1,-0.007,0.0,0.039,-0.02,0.004,0.031,-1.589,-0.018,-1.041,108.86,85.3,40.546375,-3.47374,687.6,6,5,344.5,0.703
110.27,1,-0.028,0.002,0.015,-0.022,-0.003,0.029,-1.589,-0.016,-1.04,108.86,85.3,40.546375,-3.47374,687.6,6,5,344.5,0.703
110.37,1,0.012,0.0,0.012,-0.012,-0.003,0.014,-1.586,-0.015,-1.039,108.86,85.3,40.546375,-3.47374,687.6,6,5,344.5,0.703
110.48,1,-0.004,0.018,0.006,0.004,0.008,0.013,-1.587,-0.016,-1.038,108.86,85.3,40.546375,-3.47374,687.6,6,5,344.5,0.703
110.58,1,-0.03,0.015,0.018,-0.013,0.014,0.008,-1.588,-0.017,-1.038,108.86,85.3,40.546375,-3.47374,687.6,6,5,344.5,0.703
110.68,1,-0.004,0.016,0.032,-0.019,0.017,0.023,-1.589,-0.017,-1.036,108.86,85.3,40.546375,-3.47374,687.6,6,5,344.5,0.703
110.78,1,-0.003,-0.006,0.038,-0.008,0.006,0.031,-1.59,-0.016,-1.035,109.87,84.9,40.546581,-3.47381,688.1,6,5,344.2,1.055
110.88,1,0.011,0.013,-0.001,0.006,0.009,0.019,-1.59,-0.017,-1.034,109.87,84.9,40.546581,-3.47381,688.1,6,5,344.2,1.055
110.98,1,0.02,-0.017,0.043,0.011,-0.005,0.028,-1.589,-0.014,-1.033,109.87,84.9,40.546581,-3.47381,688.1,6,5,344.2,1.055
111.08,1,-0.019,0.005,-0.001,-0.005,0.001,0.018,-1.59,-0.014,-1.032,109.87,84.9,40.546581,-3.47381,688.1,6,5,344.2,1.055
111.18,1,-0.019,-0.001,0.029,-0.012,0.003,0.015,-1.591,-0.015,-1.031,109.87,84.9,40.546581,-3.47381,688.1,6,5,344.2,1.055
111.29,1,-0.016,-0.005,0.002,-0.016,-0.004,0.014,-1.592,-0.017,-1.03,109.87,84.9,40.546581,-3.47381,688.1,6,5,344.2,1.055
111.38,1,0.017,-0.001,0.038,-0.001,-0.005,0.026,-1.595,-0.016,-1.029,109.87,84.9,40.546581,-3.47381,688.1,6,5,344.2,1.055
111.48,1,-0.021,0.022,-0.018,0.002,0.009,0.009,-1.595,-0.016,-1.027,109.87,84.9,40.546581,-3.47381,688.1,6,5,344.2,1.055
111.58,1,-0.037,0.009,0.009,-0.025,0.013,0.005,-1.594,-0.016,-1.026,109.87,84.9,40.546581,-3.47381,688.1,6,5,344.2,1.055
111.69,1,-0.05,-0.027,0.022,-0.036,-0.009,0.015,-1.594,-0.016,-1.025,109.87,84.9,40.546581,-3.47381,688.1,6,5,344.2,1.055
111.79,1,-0.001,-0.007,0.031,-0.03,-0.01,0.013,-1.593,-0.016,-1.023,110.86,85.1,40.546799,-3.473889,688.6,6,5,343.8,0.703
111.88,1,-0.005,0.003,-0.004,-0.01,-0.001,0.017,-1.592,-0.021,-1.022,110.86,85.1,40.546799,-3.473889,688.6,6,5,343.8,0.703
111.98,1,-0.007,-0.011,0.028,-0.007,-0.007,0.014,-1.591,-0.023,-1.021,110.86,85.1,40.546799,-3.473889,688.6,6,5,343.8,0.703
112.08,1,-0.036,0.006,0.016,-0.019,-0.008,0.018,-1.591,-0.02,-1.019,110.86,85.1,40.546799,-3.473889,688.6,6,5,343.8,0.703
112.18,1,0.002,-0.01,0.022,-0.016,-0.003,0.021,-1.593,-0.02,-1.018,110.86,85.1,40.546799,-3.473889,688.6,6,5,343.8,0.703
112.28,1,0.009,-0.004,0.017,-0.002,-0.001,0.021,-1.596,-0.018,-1.017,110.86,85.1,40.546799,-3.473889,688.6,6,5,343.8,0.703
112.39,1,0.001,-0.005,0.014,0.005,-0.003,0.016,-1.597,-0.018,-1.016,110.86,85.1,40.546799,-3.473889,688.6,6,5,343.8,0.703
112.48,1,-0.027,0.019,0.01,-0.012,0.003,0.011,-1.598,-0.019,-1.014,110.86,85.1,40.546799,-3.473889,688.6,6,5,343.8,0.703
112.58,1,-0.036,0.009,0.003,-0.023,0.011,0.009,-1.598,-0.02,-1.013,110.86,85.1,40.546799,-3.473889,688.6,6,5,343.8,0.703
112.68,1,-0.028,-0.003,-0.016,-0.028,0.006,-0.002,-1.6,-0.018,-1.011,110.86,85.1,40.546799,-3.473889,688.6,6,5,343.8,0.703
112.78,1,-0.0,0.017,0.011,-0.019,0.008,0.001,-1.601,-0.017,-1.01,111.87,85.7,40.547005,-3.473977,689.7,6,5,343.1,1.055
112.88,1,-0.008,-0.001,-0.005,-0.008,0.003,-0.001,-1.602,-0.018,-1.009,111.87,85.7,40.547005,-3.473977,689.7,6,5,343.1,1.055
112.98,1,-0.013,0.006,-0.014,-0.012,0.006,-0.006,-1.601,-0.015,-1.008,111.87,85.7,40.547005,-3.473977,689.7,6,5,343.1,1.055
113.08,1,0.019,0.015,-0.041,0.004,0.012,-0.02,-1.597,-0.013,-1.007,111.87,85.7,40.547005,-3.473977,689.7,6,5,343.1,1.055
113.19,1,0.001,0.026,-0.046,0.005,0.016,-0.042,-1.594,-0.015,-1.006,111.87,85.7,40.547005,-3.473977,689.7,6,5,343.1,1.055
113.29,1,-0.028,0.019,-0.01,-0.015,0.018,-0.03,-1.59,-0.016,-1.005,111.87,85.7,40.547005,-3.473977,689.7,6,5,343.1,1.055
113.38,1,-0.021,0.01,-0.024,-0.013,0.016,-0.018,-1.591,-0.018,-1.004,111.87,85.7,40.547005,-3.473977,689.7,6,5,343.1,1.055
113.48,1,0.005,0.012,-0.03,-0.011,0.012,-0.028,-1.59,-0.019,-1.003,111.87,85.7,40.547005,-3.473977,689.7,6,5,343.1,1.055
113.59,1,0.078,0.037,0.003,0.033,0.028,-0.005,-1.589,-0.019,-1.003,111.87,85.7,40.547005,-3.473977,689.7,6,5,343.1,1.055
113.68,1,-0.011,0.007,-0.058,0.026,0.014,-0.032,-1.588,-0.019,-1.002,111.87,85.7,40.547005,-3.473977,689.7,6,5,343.1,1.055
113.79,1,-0.059,0.012,-0.01,-0.02,0.014,-0.033,-1.59,-0.021,-1.001,112.89,86.4,40.547215,-3.474041,691.0,6,5,342.4,1.406
113.89,1,-0.042,0.013,-0.005,-0.044,0.014,-0.014,-1.591,-0.024,-1.0,112.89,86.4,40.547215,-3.474041,691.0,6,5,342.4,1.406
114.08,1,0.05,0.016,-0.01,0.018,0.012,-0.012,-1.584,-0.023,-0.999,112.89,86.4,40.547215,-3.474041,691.0,6,5,342.4,1.406
114.18,1,0.009,0.026,-0.027,0.026,0.014,-0.017,-1.583,-0.022,-0.998,112.89,86.4,40.547215,-3.474041,691.0,6,5,342.4,1.406
114.28,1,-0.035,0.016,-0.019,-0.002,0.024,-0.028,-1.584,-0.023,-0.997,112.89,86.4,40.547215,-3.474041,691.0,6,5,342.4,1.406
114.39,1,-0.001,-0.011,-0.016,-0.01,0.006,-0.014,-1.586,-0.027,-0.997,112.89,86.4,40.547215,-3.474041,691.0,6,5,342.4,1.406
114.48,1,-0.037,0.003,-0.016,-0.027,0.004,-0.024,-1.582,-0.027,-0.995,112.89,86.4,40.547215,-3.474041,691.0,6,5,342.4,1.406
114.58,1,-0.027,0.004,0.006,-0.027,0.0,-0.001,-1.583,-0.025,-0.995,112.89,86.4,40.547215,-3.474041,691.0,6,5,342.4,1.406
114.69,1,0.02,0.004,-0.011,-0.004,0.008,-0.008,-1.579,-0.024,-0.993,112.89,86.4,40.547215,-3.474041,691.0,6,5,342.4,1.406
114.79,1,0.007,0.004,-0.038,0.005,0.008,-0.022,-1.578,-0.022,-0.993,112.89,86.4,40.547215,-3.474041,691.0,6,5,342.4,1.406
114.89,1,-0.018,0.019,-0.009,-0.0,0.005,-0.015,-1.577,-0.023,-0.992,113.96,86.7,40.547432,-3.474125,691.8,6,5,341.0,2.109
114.99,1,-0.009,0.031,0.012,-0.014,0.014,-0.006,-1.574,-0.025,-0.991,113.96,86.7,40.547432,-3.474125,691.8,6,5,341.0,2.109
115.1,1,-0.03,-0.004,-0.001,-0.018,0.014,0.004,-1.574,-0.022,-0.99,113.96,86.7,40.547432,-3.474125,691.8,6,5,341.0,2.109
115.19,1,-0.019,-0.015,-0.02,-0.02,0.002,-0.012,-1.574,-0.019,-0.989,113.96,86.7,40.547432,-3.474125,691.8,6,5,341.0,2.109
115.29,1,-0.009,0.001,0.029,-0.019,0.0,0.007,-1.575,-0.018,-0.989,113.96,86.7,40.547432,-3.474125,691.8,6,5,341.0,2.109
115.39,1,-0.031,0.017,0.018,-0.017,0.003,0.011,-1.575,-0.019,-0.988,113.96,86.7,40.547432,-3.474125,691.8,6,5,341.0,2.109
115.49,1,0.001,0.007,0.005,-0.01,0.003,0.012,-1.575,-0.02,-0.987,113.96,86.7,40.547432,-3.474125,691.8,6,5,341.0,2.109
115.59,1,-0.018,-0.003,0.003,-0.016,0.009,0.007,-1.575,-0.023,-0.986,113.96,86.7,40.547432,-3.474125,691.8,6,5,341.0,2.109
115.69,1,-0.022,-0.012,0.001,-0.018,-0.003,0.004,-1.575,-0.023,-0.985,113.96,86.7,40.547432,-3.474125,691.8,6,5,341.0,2.109
115.79,1,-0.037,-0.009,0.01,-0.028,-0.012,0.005,-1.576,-0.024,-0.984,113.96,86.7,40.547432,-3.474125,691.8,6,5,341.0,2.109
115.89,1,-0.046,0.035,0.022,-0.04,0.009,0.013,-1.576,-0.024,-0.983,114.91,86.1,40.547634,-3.474225,692.7,6,5,340.0,2.461
