Timestamp_Accel,SystemActivated,accelerometerXAxis,accelerometerYAxis,accelerometerZAxis,AccelX_KF,AccelY_KF,AccelZ_KF,gyroscopeXAxis,gyroscopeYAxis,gyroscopeZAxis,Timestamp_GPS,Speed,latitude,longitude,Altitude,VerticalAccuracy,HorizontalAccuracy,Course,Difcourse
8.7,0,-0.029,-0.005,-0.017,-0.025,-0.005,-0.019,-1.591,0.01,0.241,8.72,0.0,40.50597,-3.360048,601.8,11,67,-1.0,-1.0
8.81,0,0.005,0.007,-0.0,-0.011,-0.003,-0.008,-1.592,0.013,0.242,8.72,0.0,40.50597,-3.360048,601.8,11,67,-1.0,-1.0
8.91,0,-0.009,0.023,0.022,-0.005,0.014,0.01,-1.596,0.008,0.244,8.72,0.0,40.50597,-3.360048,601.8,11,67,-1.0,-1.0
9.01,0,-0.014,-0.006,0.016,-0.01,0.008,0.01,-1.591,0.01,0.245,8.72,0.0,40.50597,-3.360048,601.8,11,67,-1.0,-1.0
9.11,1,-0.053,0.008,0.014,-0.026,0.003,0.019,-1.589,0.007,0.247,8.72,0.0,40.50597,-3.360048,601.8,11,67,-1.0,-1.0
9.21,1,0.031,0.035,0.008,-0.02,0.017,0.002,-1.588,0.008,0.248,8.72,0.0,40.50597,-3.360048,601.8,11,67,-1.0,-1.0
9.31,1,0.043,0.031,0.008,0.023,0.027,0.014,-1.587,0.01,0.249,8.72,0.0,40.50597,-3.360048,601.8,11,67,-1.0,-1.0
9.42,1,-0.019,0.037,-0.001,0.014,0.032,0.004,-1.586,0.01,0.25,8.72,0.0,40.50597,-3.360048,601.8,11,67,-1.0,-1.0
9.51,1,0.016,-0.009,0.014,0.007,0.019,0.01,-1.588,0.01,0.252,8.72,0.0,40.50597,-3.360048,601.8,11,67,-1.0,-1.0
9.61,1,-0.035,-0.013,0.028,-0.009,-0.009,0.016,-1.594,0.016,0.254,8.72,0.0,40.50597,-3.360048,601.8,11,67,-1.0,-1.0
9.71,1,0.006,0.041,-0.002,-0.013,0.018,0.014,-1.594,0.018,0.255,9.69,81.3,40.505756,-3.362612,590.8,12,10,257.0,103.008
9.81,1,0.004,0.035,-0.037,-0.002,0.028,-0.013,-1.591,0.015,0.256,9.69,81.3,40.505756,-3.362612,590.8,12,10,257.0,103.008
9.91,1,0.021,0.003,-0.001,0.018,0.018,-0.013,-1.594,0.014,0.257,9.69,81.3,40.505756,-3.362612,590.8,12,10,257.0,103.008
10.01,1,-0.023,0.025,-0.058,-0.004,0.015,-0.03,-1.588,0.012,0.258,9.69,81.3,40.505756,-3.362612,590.8,12,10,257.0,103.008
10.11,1,-0.01,0.021,-0.053,-0.019,0.024,-0.044,-1.583,0.009,0.26,9.69,81.3,40.505756,-3.362612,590.8,12,10,257.0,103.008
10.21,1,0.024,0.021,-0.016,0.02,0.021,-0.035,-1.581,0.009,0.261,9.69,81.3,40.505756,-3.362612,590.8,12,10,257.0,103.008
10.32,1,-0.059,0.028,-0.075,-0.021,0.032,-0.046,-1.576,0.008,0.262,9.69,81.3,40.505756,-3.362612,590.8,12,10,257.0,103.008
10.41,1,-0.005,-0.0,-0.038,-0.022,0.013,-0.054,-1.574,0.005,0.263,9.69,81.3,40.505756,-3.362612,590.8,12,10,257.0,103.008
10.52,1,-0.001,-0.021,0.003,-0.015,-0.008,-0.024,-1.575,0.002,0.265,9.69,81.3,40.505756,-3.362612,590.8,12,10,257.0,103.008
10.61,1,-0.072,0.008,-0.055,-0.02,-0.006,-0.024,-1.573,0.001,0.266,9.69,81.3,40.505756,-3.362612,590.8,12,10,257.0,103.008
10.71,1,0.017,0.068,-0.025,-0.036,0.031,-0.043,-1.575,0.001,0.267,10.72,82.9,40.505692,-3.362982,596.3,8,5,255.9,104.062
10.81,1,-0.053,0.007,0.031,-0.021,0.024,0.002,-1.576,0.004,0.268,10.72,82.9,40.505692,-3.362982,596.3,8,5,255.9,104.062
10.91,1,-0.037,-0.0,-0.022,-0.044,0.014,-0.01,-1.575,0.007,0.27,10.72,82.9,40.505692,-3.362982,596.3,8,5,255.9,104.062
11.01,1,0.047,-0.024,-0.025,-0.002,-0.004,-0.014,-1.576,0.009,0.271,10.72,82.9,40.505692,-3.362982,596.3,8,5,255.9,104.062
11.12,1,0.019,0.039,0.002,0.024,0.002,-0.016,-1.576,0.006,0.272,10.72,82.9,40.505692,-3.362982,596.3,8,5,255.9,104.062
11.21,1,-0.046,0.025,-0.022,-0.01,0.019,-0.012,-1.579,0.005,0.273,10.72,82.9,40.505692,-3.362982,596.3,8,5,255.9,104.062
11.31,1,-0.016,0.025,0.02,-0.016,0.029,-0.005,-1.58,0.007,0.273,10.72,82.9,40.505692,-3.362982,596.3,8,5,255.9,104.062
11.41,1,-0.063,0.024,-0.025,-0.047,0.03,-0.002,-1.577,0.003,0.273,10.72,82.9,40.505692,-3.362982,596.3,8,5,255.9,104.062
11.53,1,0.033,-0.01,0.019,-0.009,0.009,0.001,-1.572,-0.002,0.274,10.72,82.9,40.505692,-3.362982,596.3,8,5,255.9,104.062
11.62,1,0.011,0.02,0.014,0.011,0.015,0.012,-1.573,-0.005,0.275,10.72,82.9,40.505692,-3.362982,596.3,8,5,255.9,104.062
11.72,1,0.016,0.007,0.037,0.004,0.01,0.018,-1.572,-0.005,0.275,11.71,82.3,40.50563,-3.363254,602.4,6,5,254.9,2.109
11.83,1,-0.015,0.019,0.029,0.004,0.015,0.028,-1.573,-0.006,0.276,11.71,82.3,40.50563,-3.363254,602.4,6,5,254.9,2.109
11.92,1,-0.016,-0.021,0.016,-0.011,-0.001,0.022,-1.575,-0.004,0.277,11.71,82.3,40.50563,-3.363254,602.4,6,5,254.9,2.109
12.02,1,0.069,-0.052,0.0,0.022,-0.029,0.013,-1.577,-0.007,0.279,11.71,82.3,40.50563,-3.363254,602.4,6,5,254.9,2.109
12.12,1,-0.003,-0.012,-0.015,0.019,-0.025,-0.005,-1.578,-0.002,0.282,11.71,82.3,40.50563,-3.363254,602.4,6,5,254.9,2.109
12.22,1,-0.049,-0.021,0.03,-0.001,-0.023,0.012,-1.583,0.006,0.285,11.71,82.3,40.50563,-3.363254,602.4,6,5,254.9,2.109
12.32,1,-0.051,-0.07,-0.001,-0.044,-0.037,0.007,-1.589,0.007,0.288,11.71,82.3,40.50563,-3.363254,602.4,6,5,254.9,2.109
12.42,1,-0.019,-0.062,-0.011,-0.021,-0.06,0.003,-1.593,0.008,0.29,11.71,82.3,40.50563,-3.363254,602.4,6,5,254.9,2.109
12.52,1,0.017,-0.019,-0.014,-0.027,-0.044,-0.01,-1.592,0.008,0.291,11.71,82.3,40.50563,-3.363254,602.4,6,5,254.9,2.109
12.62,1,-0.006,0.022,-0.035,0.009,-0.01,-0.021,-1.595,0.008,0.292,11.71,82.3,40.50563,-3.363254,602.4,6,5,254.9,2.109
12.72,1,0.016,0.036,0.021,-0.003,0.016,-0.008,-1.596,0.004,0.293,12.81,82.4,40.505573,-3.363524,602.3,6,5,253.5,2.461
12.82,1,-0.068,-0.019,0.017,-0.022,0.013,0.01,-1.593,-0.001,0.293,12.81,82.4,40.505573,-3.363524,602.3,6,5,253.5,2.461
12.93,1,-0.039,-0.027,-0.011,-0.029,-0.01,0.008,-1.589,-0.002,0.295,12.81,82.4,40.505573,-3.363524,602.3,6,5,253.5,2.461
13.03,1,-0.045,-0.013,0.003,-0.051,-0.02,-0.006,-1.589,0.002,0.296,12.81,82.4,40.505573,-3.363524,602.3,6,5,253.5,2.461
13.12,1,-0.022,0.059,0.043,-0.028,0.016,0.021,-1.591,0.003,0.297,12.81,82.4,40.505573,-3.363524,602.3,6,5,253.5,2.461
13.23,1,-0.079,-0.046,0.019,-0.058,-0.004,0.024,-1.591,0.004,0.298,12.81,82.4,40.505573,-3.363524,602.3,6,5,253.5,2.461
13.32,1,0.015,0.016,0.001,-0.03,-0.005,0.015,-1.589,0.002,0.299,12.81,82.4,40.505573,-3.363524,602.3,6,5,253.5,2.461
13.42,1,0.04,0.026,0.017,0.008,0.014,0.01,-1.588,0.002,0.3,12.81,82.4,40.505573,-3.363524,602.3,6,5,253.5,2.461
13.53,1,-0.009,-0.002,0.008,0.02,0.01,0.011,-1.587,0.002,0.302,12.81,82.4,40.505573,-3.363524,602.3,6,5,253.5,2.461
13.63,1,-0.003,-0.029,0.031,-0.004,-0.001,0.011,-1.587,0.003,0.303,12.81,82.4,40.505573,-3.363524,602.3,6,5,253.5,2.461
13.72,1,-0.068,-0.043,0.008,-0.028,-0.035,0.026,-1.589,0.003,0.305,13.69,83.2,40.505508,-3.363781,601.2,4,5,251.7,3.164
13.82,1,-0.044,-0.032,0.01,-0.052,-0.03,0.005,-1.59,0.004,0.306,13.69,83.2,40.505508,-3.363781,601.2,4,5,251.7,3.164
13.93,1,0.04,-0.03,0.022,-0.008,-0.036,0.021,-1.59,0.005,0.308,13.69,83.2,40.505508,-3.363781,601.2,4,5,251.7,3.164
14.03,1,-0.011,0.025,-0.045,0.007,-0.006,-0.005,-1.59,0.005,0.309,13.69,83.2,40.505508,-3.363781,601.2,4,5,251.7,3.164
14.13,1,0.004,0.029,0.018,-0.008,0.011,-0.01,-1.591,0.004,0.31,13.69,83.2,40.505508,-3.363781,601.2,4,5,251.7,3.164
14.23,1,0.006,0.001,0.018,0.011,0.019,0.014,-1.592,0.002,0.311,13.69,83.2,40.505508,-3.363781,601.2,4,5,251.7,3.164
14.32,1,-0.035,-0.015,-0.032,-0.008,0.0,-0.003,-1.591,0.002,0.312,13.69,83.2,40.505508,-3.363781,601.2,4,5,251.7,3.164
14.43,1,0.016,-0.023,0.046,-0.014,-0.017,0.004,-1.592,0.001,0.313,13.69,83.2,40.505508,-3.363781,601.2,4,5,251.7,3.164
14.53,1,0.035,-0.034,0.002,0.017,-0.029,0.02,-1.59,-0.001,0.314,13.69,83.2,40.505508,-3.363781,601.2,4,5,251.7,3.164
14.62,1,-0.013,0.011,-0.034,0.019,-0.01,-0.009,-1.589,-0.002,0.315,13.69,83.2,40.505508,-3.363781,601.2,4,5,251.7,3.164
14.73,1,-0.029,0.046,-0.025,-0.018,0.018,-0.023,-1.591,-0.002,0.316,14.72,84.3,40.505432,-3.364037,601.0,4,5,250.3,3.164
14.83,1,-0.01,0.027,-0.002,-0.019,0.022,-0.014,-1.593,0.006,0.317,14.72,84.3,40.505432,-3.364037,601.0,4,5,250.3,3.164
14.93,1,-0.034,0.003,-0.009,-0.019,0.022,-0.009,-1.593,0.009,0.319,14.72,84.3,40.505432,-3.364037,601.0,4,5,250.3,3.164
15.03,1,0.0,-0.009,0.031,-0.018,0.009,0.006,-1.592,0.009,0.32,14.72,84.3,40.505432,-3.364037,601.0,4,5,250.3,3.164
15.13,1,0.004,0.034,-0.016,-0.011,0.004,0.001,-1.591,0.009,0.32,14.72,84.3,40.505432,-3.364037,601.0,4,5,250.3,3.164
15.24,1,-0.052,-0.007,-0.029,-0.019,0.002,-0.011,-1.591,0.009,0.321,14.72,84.3,40.505432,-3.364037,601.0,4,5,250.3,3.164
15.34,1,-0.007,0.021,0.012,-0.018,0.015,-0.008,-1.592,0.009,0.322,14.72,84.3,40.505432,-3.364037,601.0,4,5,250.3,3.164
15.44,1,0.039,-0.027,0.03,0.003,0.01,0.013,-1.592,0.009,0.323,14.72,84.3,40.505432,-3.364037,601.0,4,5,250.3,3.164
15.53,1,0.013,0.011,-0.018,0.017,-0.011,0.002,-1.592,0.011,0.325,14.72,84.3,40.505432,-3.364037,601.0,4,5,250.3,3.164
15.63,1,0.035,-0.079,0.023,0.027,-0.025,0.01,-1.593,0.013,0.327,14.72,84.3,40.505432,-3.364037,601.0,4,5,250.3,3.164
15.73,1,0.02,-0.092,0.012,0.025,-0.071,0.01,-1.593,0.014,0.33,15.72,85.1,40.505352,-3.364275,601.8,6,5,249.3,2.461
15.83,1,0.016,-0.054,-0.024,0.019,-0.07,0.004,-1.591,0.014,0.332,15.72,85.1,40.505352,-3.364275,601.8,6,5,249.3,2.461
15.93,1,-0.019,0.004,-0.033,0.003,-0.041,-0.023,-1.59,0.015,0.335,15.72,85.1,40.505352,-3.364275,601.8,6,5,249.3,2.461
16.03,1,0.024,-0.0,-0.017,0.004,-0.018,-0.023,-1.592,0.015,0.338,15.72,85.1,40.505352,-3.364275,601.8,6,5,249.3,2.461
16.13,1,0.025,0.014,-0.005,0.025,0.014,-0.013,-1.593,0.016,0.34,15.72,85.1,40.505352,-3.364275,601.8,6,5,249.3,2.461
16.23,1,0.033,0.078,0.01,0.019,0.04,-0.002,-1.593,0.016,0.342,15.72,85.1,40.505352,-3.364275,601.8,6,5,249.3,2.461
16.34,1,-0.007,-0.033,-0.0,0.01,0.013,-0.001,-1.592,0.014,0.343,15.72,85.1,40.505352,-3.364275,601.8,6,5,249.3,2.461
16.43,1,-0.046,0.042,-0.011,-0.007,0.012,-0.001,-1.592,0.012,0.344,15.72,85.1,40.505352,-3.364275,601.8,6,5,249.3,2.461
16.53,1,-0.057,-0.006,-0.007,-0.042,0.019,-0.011,-1.593,0.012,0.346,15.72,85.1,40.505352,-3.364275,601.8,6,5,249.3,2.461
16.63,1,-0.047,-0.069,0.023,-0.045,-0.025,0.005,-1.593,0.01,0.347,15.72,85.1,40.505352,-3.364275,601.8,6,5,249.3,2.461
16.73,1,-0.024,-0.024,-0.04,-0.036,-0.036,-0.005,-1.592,0.008,0.348,16.71,86.5,40.505272,-3.364545,602.1,4,5,247.5,2.812
16.83,1,-0.06,-0.05,-0.026,-0.05,-0.047,-0.026,-1.592,0.007,0.349,16.71,86.5,40.505272,-3.364545,602.1,4,5,247.5,2.812
16.93,1,-0.058,-0.068,-0.022,-0.05,-0.044,-0.025,-1.594,0.008,0.35,16.71,86.5,40.505272,-3.364545,602.1,4,5,247.5,2.812
17.03,1,0.074,0.05,-0.006,-0.003,-0.019,-0.013,-1.595,0.009,0.352,16.71,86.5,40.505272,-3.364545,602.1,4,5,247.5,2.812
17.14,1,0.058,0.089,-0.027,0.04,0.046,-0.019,-1.593,0.01,0.352,16.71,86.5,40.505272,-3.364545,602.1,4,5,247.5,2.812
17.24,1,0.086,0.073,-0.022,0.061,0.063,-0.019,-1.592,0.01,0.353,16.71,86.5,40.505272,-3.364545,602.1,4,5,247.5,2.812
17.33,1,0.058,0.084,-0.052,0.067,0.07,-0.033,-1.591,0.009,0.353,16.71,86.5,40.505272,-3.364545,602.1,4,5,247.5,2.812
17.43,1,0.006,0.057,-0.04,0.045,0.08,-0.044,-1.593,0.008,0.354,16.71,86.5,40.505272,-3.364545,602.1,4,5,247.5,2.812
17.54,1,0.041,0.102,-0.017,0.039,0.084,-0.029,-1.595,0.008,0.353,16.71,86.5,40.505272,-3.364545,602.1,4,5,247.5,2.812
17.63,1,0.02,0.081,-0.039,0.017,0.075,-0.035,-1.596,0.008,0.353,16.71,86.5,40.505272,-3.364545,602.1,4,5,247.5,2.812
17.85,1,-0.02,-0.01,-0.031,0.01,0.033,-0.022,-1.593,0.008,0.355,17.7,87.4,40.50518,-3.364813,602.6,4,5,245.7,3.516
17.93,1,0.013,0.045,-0.038,0.01,0.051,-0.038,-1.592,0.01,0.355,17.7,87.4,40.50518,-3.364813,602.6,4,5,245.7,3.516
18.04,1,0.017,0.008,-0.02,0.003,0.004,-0.025,-1.593,0.011,0.356,17.7,87.4,40.50518,-3.364813,602.6,4,5,245.7,3.516
18.14,1,0.005,0.075,-0.03,0.011,0.047,-0.027,-1.594,0.011,0.356,17.7,87.4,40.50518,-3.364813,602.6,4,5,245.7,3.516
18.24,1,0.019,0.099,-0.02,0.015,0.069,-0.02,-1.596,0.011,0.356,17.7,87.4,40.50518,-3.364813,602.6,4,5,245.7,3.516
18.34,1,0.102,0.059,0.007,0.045,0.075,-0.015,-1.596,0.009,0.355,17.7,87.4,40.50518,-3.364813,602.6,4,5,245.7,3.516
18.44,1,-0.024,0.061,-0.059,0.033,0.066,-0.027,-1.595,0.006,0.356,17.7,87.4,40.50518,-3.364813,602.6,4,5,245.7,3.516
18.54,1,0.027,0.065,0.0,0.022,0.074,-0.024,-1.596,0.005,0.356,17.7,87.4,40.50518,-3.364813,602.6,4,5,245.7,3.516
18.64,1,0.056,0.109,-0.036,0.035,0.076,-0.024,-1.595,0.005,0.357,17.7,87.4,40.50518,-3.364813,602.6,4,5,245.7,3.516
18.75,1,0.024,0.07,-0.048,0.042,0.085,-0.032,-1.595,0.007,0.357,17.7,87.4,40.50518,-3.364813,602.6,4,5,245.7,3.516
18.84,1,0.004,0.025,-0.016,0.017,0.058,-0.041,-1.595,0.008,0.358,18.72,88.8,40.505081,-3.365079,603.2,4,5,244.3,3.164
18.95,1,-0.052,0.006,-0.059,-0.011,0.026,-0.028,-1.595,0.008,0.358,18.72,88.8,40.505081,-3.365079,603.2,4,5,244.3,3.164
19.05,1,0.015,0.04,-0.032,-0.015,0.026,-0.044,-1.596,0.008,0.358,18.72,88.8,40.505081,-3.365079,603.2,4,5,244.3,3.164
19.14,1,-0.031,0.028,-0.023,-0.011,0.032,-0.029,-1.596,0.007,0.357,18.72,88.8,40.505081,-3.365079,603.2,4,5,244.3,3.164
19.24,1,-0.089,0.013,-0.056,-0.056,0.02,-0.042,-1.595,0.007,0.356,18.72,88.8,40.505081,-3.365079,603.2,4,5,244.3,3.164
19.34,1,0.002,-0.013,-0.006,-0.029,0.002,-0.029,-1.597,0.007,0.355,18.72,88.8,40.505081,-3.365079,603.2,4,5,244.3,3.164
19.44,1,-0.077,-0.041,-0.026,-0.046,-0.013,-0.025,-1.598,0.008,0.355,18.72,88.8,40.505081,-3.365079,603.2,4,5,244.3,3.164
19.57,1,0.052,0.029,0.0,-0.011,-0.005,-0.005,-1.597,0.008,0.355,18.72,88.8,40.505081,-3.365079,603.2,4,5,244.3,3.164
19.64,1,-0.039,0.019,-0.051,-0.012,0.015,-0.033,-1.596,0.007,0.354,18.72,88.8,40.505081,-3.365079,603.2,4,5,244.3,3.164
19.74,1,-0.013,-0.026,0.006,-0.017,-0.003,-0.016,-1.598,0.008,0.353,18.72,88.8,40.505081,-3.365079,603.2,4,5,244.3,3.164
19.84,1,-0.039,-0.002,-0.015,-0.037,-0.014,-0.013,-1.598,0.008,0.353,19.72,88.4,40.504978,-3.365335,603.3,4,5,243.3,2.461
19.95,1,-0.013,0.004,-0.009,-0.022,0.003,-0.011,-1.599,0.009,0.353,19.72,88.4,40.504978,-3.365335,603.3,4,5,243.3,2.461
20.04,1,0.024,-0.014,-0.0,0.016,0.007,-0.002,-1.597,0.01,0.353,19.72,88.4,40.504978,-3.365335,603.3,4,5,243.3,2.461
20.15,1,-0.039,0.022,-0.048,-0.02,-0.001,-0.027,-1.596,0.011,0.352,19.72,88.4,40.504978,-3.365335,603.3,4,5,243.3,2.461
20.24,1,0.052,0.0,0.016,0.005,0.016,-0.017,-1.596,0.013,0.353,19.72,88.4,40.504978,-3.365335,603.3,4,5,243.3,2.461
20.34,1,0.048,0.084,-0.034,0.04,0.025,-0.002,-1.593,0.015,0.353,19.72,88.4,40.504978,-3.365335,603.3,4,5,243.3,2.461
20.44,1,0.026,0.076,-0.049,0.038,0.069,-0.043,-1.593,0.018,0.354,19.72,88.4,40.504978,-3.365335,603.3,4,5,243.3,2.461
20.55,1,-0.013,-0.007,0.032,0.007,0.026,-0.008,-1.596,0.021,0.355,19.72,88.4,40.504978,-3.365335,603.3,4,5,243.3,2.461
20.64,1,-0.049,0.003,-0.041,-0.011,0.023,-0.008,-1.595,0.024,0.356,19.72,88.4,40.504978,-3.365335,603.3,4,5,243.3,2.461
20.75,1,-0.012,-0.009,-0.026,-0.025,0.005,-0.031,-1.594,0.026,0.357,19.72,88.4,40.504978,-3.365335,603.3,4,5,243.3,2.461
20.84,1,-0.026,0.014,-0.066,-0.019,-0.0,-0.04,-1.593,0.026,0.358,20.7,88.5,40.504871,-3.365593,603.6,4,5,242.2,2.109
20.95,1,0.014,0.041,0.003,-0.001,0.034,-0.034,-1.594,0.027,0.358,20.7,88.5,40.504871,-3.365593,603.6,4,5,242.2,2.109
21.05,1,0.04,0.103,-0.005,0.012,0.051,-0.008,-1.594,0.03,0.358,20.7,88.5,40.504871,-3.365593,603.6,4,5,242.2,2.109
21.15,1,-0.032,0.017,-0.037,-0.013,0.035,-0.017,-1.593,0.033,0.358,20.7,88.5,40.504871,-3.365593,603.6,4,5,242.2,2.109
21.25,1,0.003,-0.008,-0.018,0.002,0.034,-0.021,-1.592,0.036,0.358,20.7,88.5,40.504871,-3.365593,603.6,4,5,242.2,2.109
21.36,1,0.015,0.036,-0.05,0.005,0.016,-0.037,-1.593,0.038,0.358,20.7,88.5,40.504871,-3.365593,603.6,4,5,242.2,2.109
21.45,1,0.045,0.062,0.002,0.02,0.041,-0.024,-1.594,0.039,0.358,20.7,88.5,40.504871,-3.365593,603.6,4,5,242.2,2.109
21.55,1,0.012,0.077,-0.002,0.028,0.062,-0.004,-1.593,0.041,0.359,20.7,88.5,40.504871,-3.365593,603.6,4,5,242.2,2.109
21.65,1,-0.015,0.095,-0.063,0.011,0.08,-0.032,-1.591,0.043,0.359,20.7,88.5,40.504871,-3.365593,603.6,4,5,242.2,2.109
21.75,1,0.026,0.081,-0.036,-0.004,0.078,-0.045,-1.594,0.046,0.36,20.7,88.5,40.504871,-3.365593,603.6,4,5,242.2,2.109
21.85,1,0.05,0.075,-0.005,0.031,0.074,-0.02,-1.594,0.049,0.36,21.71,89.7,40.504761,-3.365853,603.6,4,5,241.5,1.758
21.96,1,0.03,0.071,-0.038,0.031,0.075,-0.026,-1.593,0.051,0.361,21.71,89.7,40.504761,-3.365853,603.6,4,5,241.5,1.758
22.05,1,0.004,0.054,-0.076,0.022,0.067,-0.047,-1.591,0.053,0.361,21.71,89.7,40.504761,-3.365853,603.6,4,5,241.5,1.758
22.15,1,0.133,0.06,0.04,0.074,0.059,-0.02,-1.591,0.055,0.363,21.71,89.7,40.504761,-3.365853,603.6,4,5,241.5,1.758
22.25,1,-0.017,0.104,-0.079,0.042,0.079,-0.031,-1.589,0.056,0.363,21.71,89.7,40.504761,-3.365853,603.6,4,5,241.5,1.758
22.35,1,-0.011,0.035,-0.018,0.007,0.076,-0.039,-1.591,0.058,0.364,21.71,89.7,40.504761,-3.365853,603.6,4,5,241.5,1.758
22.45,1,0.012,0.076,-0.013,0.006,0.062,-0.022,-1.593,0.061,0.364,21.71,89.7,40.504761,-3.365853,603.6,4,5,241.5,1.758
22.56,1,-0.058,-0.034,-0.034,-0.022,0.026,-0.023,-1.593,0.062,0.365,21.71,89.7,40.504761,-3.365853,603.6,4,5,241.5,1.758
22.66,1,0.029,0.089,-0.018,-0.001,0.041,-0.023,-1.592,0.063,0.365,21.71,89.7,40.504761,-3.365853,603.6,4,5,241.5,1.758
22.75,1,0.065,0.06,-0.041,0.031,0.052,-0.028,-1.591,0.064,0.366,21.71,89.7,40.504761,-3.365853,603.6,4,5,241.5,1.758
22.85,1,-0.025,-0.015,-0.065,0.014,0.035,-0.048,-1.59,0.067,0.367,22.72,90.3,40.50465,-3.366107,603.8,4,5,240.1,2.109
22.96,1,-0.034,-0.019,-0.04,-0.017,-0.011,-0.049,-1.591,0.07,0.368,22.72,90.3,40.50465,-3.366107,603.8,4,5,240.1,2.109
23.05,1,-0.068,0.006,-0.046,-0.037,0.002,-0.044,-1.591,0.072,0.368,22.72,90.3,40.50465,-3.366107,603.8,4,5,240.1,2.109
23.16,1,0.016,0.025,-0.021,-0.018,0.016,-0.033,-1.59,0.073,0.368,22.72,90.3,40.50465,-3.366107,603.8,4,5,240.1,2.109
23.25,1,-0.045,0.05,-0.066,-0.028,0.025,-0.045,-1.589,0.075,0.367,22.72,90.3,40.50465,-3.366107,603.8,4,5,240.1,2.109
23.35,1,-0.015,0.069,-0.05,-0.025,0.055,-0.054,-1.591,0.076,0.366,22.72,90.3,40.50465,-3.366107,603.8,4,5,240.1,2.109
23.45,1,0.022,0.095,-0.017,-0.011,0.067,-0.035,-1.591,0.077,0.364,22.72,90.3,40.50465,-3.366107,603.8,4,5,240.1,2.109
23.56,1,0.016,0.108,-0.023,0.011,0.097,-0.028,-1.575,0.066,0.361,22.72,90.3,40.50465,-3.366107,603.8,4,5,240.1,2.109
23.66,1,0.007,0.101,-0.062,0.01,0.097,-0.036,-1.57,0.043,0.359,22.72,90.3,40.50465,-3.366107,603.8,4,5,240.1,2.109
23.76,1,0.003,0.093,-0.033,0.003,0.089,-0.048,-1.572,0.042,0.357,22.72,90.3,40.50465,-3.366107,603.8,4,5,240.1,2.109
23.87,1,0.035,0.045,0.001,0.027,0.083,-0.019,-1.574,0.045,0.356,23.73,90.3,40.504532,-3.366361,604.1,4,5,239.1,2.461
23.96,1,0.047,0.071,-0.018,0.027,0.068,-0.019,-1.572,0.048,0.354,23.73,90.3,40.504532,-3.366361,604.1,4,5,239.1,2.461
24.06,1,0.065,0.056,-0.045,0.058,0.064,-0.02,-1.565,0.044,0.354,23.73,90.3,40.504532,-3.366361,604.1,4,5,239.1,2.461
24.16,1,0.035,0.037,-0.043,0.05,0.053,-0.043,-1.561,0.038,0.353,23.73,90.3,40.504532,-3.366361,604.1,4,5,239.1,2.461
24.26,1,-0.003,0.048,-0.012,0.02,0.043,-0.028,-1.561,0.053,0.353,23.73,90.3,40.504532,-3.366361,604.1,4,5,239.1,2.461
24.37,1,0.034,0.006,0.028,0.018,0.031,-0.001,-1.56,0.06,0.353,23.73,90.3,40.504532,-3.366361,604.1,4,5,239.1,2.461
24.46,1,0.036,0.057,-0.038,0.03,0.041,-0.008,-1.558,0.061,0.351,23.73,90.3,40.504532,-3.366361,604.1,4,5,239.1,2.461
24.56,1,0.06,0.036,0.008,0.039,0.033,-0.017,-1.557,0.061,0.35,23.73,90.3,40.504532,-3.366361,604.1,4,5,239.1,2.461
24.66,1,-0.014,0.012,-0.021,0.029,0.025,-0.003,-1.546,0.053,0.349,23.73,90.3,40.504532,-3.366361,604.1,4,5,239.1,2.461
24.77,1,-0.0,-0.024,-0.016,0.001,0.002,-0.018,-1.536,0.047,0.348,23.73,90.3,40.504532,-3.366361,604.1,4,5,239.1,2.461
24.87,1,-0.076,-0.061,-0.03,-0.028,-0.028,-0.021,-1.535,0.048,0.348,24.77,91.1,40.504414,-3.366614,603.8,4,5,238.0,2.109
24.96,1,-0.056,-0.03,0.026,-0.053,-0.032,-0.008,-1.536,0.047,0.347,24.77,91.1,40.504414,-3.366614,603.8,4,5,238.0,2.109
25.06,1,-0.058,-0.014,0.002,-0.054,-0.022,0.005,-1.536,0.047,0.346,24.77,91.1,40.504414,-3.366614,603.8,4,5,238.0,2.109
25.16,1,0.014,0.049,-0.001,-0.036,0.011,-0.001,-1.536,0.047,0.344,24.77,91.1,40.504414,-3.366614,603.8,4,5,238.0,2.109
25.26,1,0.109,0.071,0.023,0.047,0.042,0.02,-1.535,0.046,0.341,24.77,91.1,40.504414,-3.366614,603.8,4,5,238.0,2.109
25.37,1,0.018,0.072,-0.014,0.045,0.056,0.002,-1.531,0.042,0.338,24.77,91.1,40.504414,-3.366614,603.8,4,5,238.0,2.109
25.46,1,0.021,0.055,0.026,0.025,0.055,0.003,-1.53,0.044,0.335,24.77,91.1,40.504414,-3.366614,603.8,4,5,238.0,2.109
25.57,1,0.022,0.09,-0.003,0.029,0.069,0.013,-1.532,0.047,0.333,24.77,91.1,40.504414,-3.366614,603.8,4,5,238.0,2.109
25.67,1,-0.004,0.084,0.018,0.007,0.078,0.005,-1.534,0.047,0.33,24.77,91.1,40.504414,-3.366614,603.8,4,5,238.0,2.109
25.76,1,0.015,0.083,0.015,0.014,0.091,0.014,-1.535,0.046,0.329,24.77,91.1,40.504414,-3.366614,603.8,4,5,238.0,2.109
25.87,1,0.01,-0.0,0.032,0.001,0.043,0.022,-1.533,0.046,0.328,25.77,91.5,40.504292,-3.366869,604.0,3,5,237.7,1.406
25.96,1,0.011,0.026,-0.041,0.022,0.038,0.006,-1.531,0.047,0.328,25.77,91.5,40.504292,-3.366869,604.0,3,5,237.7,1.406
26.06,1,0.042,0.054,0.01,0.015,0.035,-0.02,-1.532,0.048,0.328,25.77,91.5,40.504292,-3.366869,604.0,3,5,237.7,1.406
26.17,1,-0.019,-0.018,0.009,0.016,0.018,0.009,-1.535,0.048,0.327,25.77,91.5,40.504292,-3.366869,604.0,3,5,237.7,1.406
26.27,1,-0.019,0.032,0.015,-0.008,0.008,0.015,-1.536,0.043,0.325,25.77,91.5,40.504292,-3.366869,604.0,3,5,237.7,1.406
26.36,1,0.028,-0.057,-0.001,0.01,-0.014,0.006,-1.537,0.04,0.323,25.77,91.5,40.504292,-3.366869,604.0,3,5,237.7,1.406
26.47,1,0.047,-0.042,0.007,0.023,-0.03,0.001,-1.536,0.038,0.322,25.77,91.5,40.504292,-3.366869,604.0,3,5,237.7,1.406
26.56,1,-0.033,-0.038,-0.024,0.007,-0.031,-0.008,-1.536,0.035,0.32,25.77,91.5,40.504292,-3.366869,604.0,3,5,237.7,1.406
26.66,1,0.069,0.031,0.045,0.027,-0.004,0.014,-1.537,0.033,0.318,25.77,91.5,40.504292,-3.366869,604.0,3,5,237.7,1.406
26.77,1,-0.041,0.012,-0.023,0.011,0.009,0.009,-1.536,0.033,0.315,25.77,91.5,40.504292,-3.366869,604.0,3,5,237.7,1.406
26.86,1,-0.037,-0.034,-0.008,-0.026,-0.003,-0.012,-1.536,0.035,0.314,26.71,90.9,40.504169,-3.367118,603.5,3,5,237.3,0.703
26.96,1,-0.048,-0.05,0.01,-0.037,-0.039,0.0,-1.538,0.036,0.311,26.71,90.9,40.504169,-3.367118,603.5,3,5,237.3,0.703
27.07,1,-0.022,-0.012,0.025,-0.034,-0.03,0.014,-1.538,0.035,0.309,26.71,90.9,40.504169,-3.367118,603.5,3,5,237.3,0.703
27.17,1,-0.041,-0.026,0.008,-0.037,-0.023,0.014,-1.536,0.037,0.307,26.71,90.9,40.504169,-3.367118,603.5,3,5,237.3,0.703
27.27,1,-0.045,0.001,0.009,-0.028,-0.013,0.01,-1.535,0.042,0.305,26.71,90.9,40.504169,-3.367118,603.5,3,5,237.3,0.703
27.37,1,-0.036,-0.008,0.022,-0.052,-0.009,0.007,-1.535,0.042,0.304,26.71,90.9,40.504169,-3.367118,603.5,3,5,237.3,0.703
27.47,1,0.003,-0.013,0.048,-0.028,-0.014,0.031,-1.543,0.042,0.302,26.71,90.9,40.504169,-3.367118,603.5,3,5,237.3,0.703
27.57,1,-0.013,-0.065,-0.026,-0.003,-0.036,0.016,-1.544,0.04,0.301,26.71,90.9,40.504169,-3.367118,603.5,3,5,237.3,0.703
27.67,1,0.065,0.011,0.021,0.014,-0.024,0.003,-1.546,0.039,0.298,26.71,90.9,40.504169,-3.367118,603.5,3,5,237.3,0.703
27.77,1,0.07,0.051,0.039,0.063,0.023,0.028,-1.547,0.036,0.297,26.71,90.9,40.504169,-3.367118,603.5,3,5,237.3,0.703
27.87,1,0.004,0.057,-0.036,0.023,0.037,0.001,-1.545,0.03,0.295,27.69,91.6,40.50404,-3.36737,602.8,3,5,237.3,0.352
27.98,1,0.054,0.016,0.002,0.03,0.035,-0.011,-1.545,0.03,0.293,27.69,91.6,40.50404,-3.36737,602.8,3,5,237.3,0.352
28.07,1,-0.011,0.009,0.025,0.032,0.03,0.011,-1.542,0.027,0.292,27.69,91.6,40.50404,-3.36737,602.8,3,5,237.3,0.352
28.17,1,-0.004,-0.001,-0.008,0.003,0.005,0.003,-1.537,0.023,0.29,27.69,91.6,40.50404,-3.36737,602.8,3,5,237.3,0.352
28.27,1,0.002,-0.025,-0.011,0.004,-0.006,-0.001,-1.536,0.021,0.288,27.69,91.6,40.50404,-3.36737,602.8,3,5,237.3,0.352
28.38,1,-0.027,0.0,-0.015,-0.017,-0.007,-0.016,-1.537,0.021,0.286,27.69,91.6,40.50404,-3.36737,602.8,3,5,237.3,0.352
28.47,1,-0.09,-0.047,-0.001,-0.043,-0.021,-0.004,-1.538,0.02,0.285,27.69,91.6,40.50404,-3.36737,602.8,3,5,237.3,0.352
28.58,1,0.014,-0.015,0.045,-0.032,-0.028,0.013,-1.544,0.022,0.283,27.69,91.6,40.50404,-3.36737,602.8,3,5,237.3,0.352
28.68,1,0.016,-0.026,-0.032,-0.003,-0.024,0.009,-1.543,0.014,0.282,27.69,91.6,40.50404,-3.36737,602.8,3,5,237.3,0.352
28.77,1,-0.066,-0.04,-0.063,-0.024,-0.033,-0.036,-1.542,0.014,0.28,27.69,91.6,40.50404,-3.36737,602.8,3,5,237.3,0.352
28.87,1,-0.067,-0.043,-0.01,-0.055,-0.042,-0.033,-1.545,0.015,0.279,28.69,91.0,40.503918,-3.367625,602.7,3,5,237.0,0.352
28.97,1,0.006,-0.059,0.042,-0.019,-0.051,0.012,-1.546,0.015,0.277,28.69,91.0,40.503918,-3.367625,602.7,3,5,237.0,0.352
29.07,1,-0.081,-0.008,-0.026,-0.047,-0.034,-0.005,-1.543,0.013,0.275,28.69,91.0,40.503918,-3.367625,602.7,3,5,237.0,0.352
29.18,1,-0.013,-0.034,0.018,-0.042,-0.024,0.001,-1.542,0.012,0.273,28.69,91.0,40.503918,-3.367625,602.7,3,5,237.0,0.352
29.27,1,-0.068,-0.061,-0.005,-0.043,-0.044,0.003,-1.544,0.012,0.271,28.69,91.0,40.503918,-3.367625,602.7,3,5,237.0,0.352
29.38,1,0.007,0.003,0.035,-0.032,-0.022,0.009,-1.546,0.011,0.269,28.69,91.0,40.503918,-3.367625,602.7,3,5,237.0,0.352
29.47,1,-0.089,-0.029,-0.044,-0.038,-0.024,0.005,-1.545,0.01,0.267,28.69,91.0,40.503918,-3.367625,602.7,3,5,237.0,0.352
29.58,1,-0.006,0.019,0.016,-0.05,-0.008,-0.019,-1.546,0.007,0.266,28.69,91.0,40.503918,-3.367625,602.7,3,5,237.0,0.352
29.68,1,-0.001,0.061,0.024,-0.005,0.032,0.027,-1.546,0.006,0.265,28.69,91.0,40.503918,-3.367625,602.7,3,5,237.0,0.352
29.78,1,-0.01,-0.032,-0.007,-0.014,0.012,-0.004,-1.545,0.008,0.263,28.69,91.0,40.503918,-3.367625,602.7,3,5,237.0,0.352
29.88,1,0.062,-0.031,0.014,0.014,-0.022,0.008,-1.546,0.007,0.262,29.75,91.2,40.503784,-3.367871,602.1,3,5,237.0,0.352
29.98,1,-0.15,0.028,-0.004,-0.048,0.003,0.005,-1.546,0.006,0.26,29.75,91.2,40.503784,-3.367871,602.1,3,5,237.0,0.352
30.08,1,-0.095,-0.01,-0.004,-0.083,0.001,-0.002,-1.548,0.006,0.258,29.75,91.2,40.503784,-3.367871,602.1,3,5,237.0,0.352
30.18,1,-0.021,-0.014,0.033,-0.055,-0.014,0.014,-1.557,0.01,0.256,29.75,91.2,40.503784,-3.367871,602.1,3,5,237.0,0.352
30.28,1,-0.041,0.012,0.025,-0.05,0.0,0.019,-1.556,0.007,0.253,29.75,91.2,40.503784,-3.367871,602.1,3,5,237.0,0.352
30.39,1,-0.064,0.019,-0.031,-0.059,0.018,0.004,-1.553,0.002,0.251,29.75,91.2,40.503784,-3.367871,602.1,3,5,237.0,0.352
30.48,1,0.013,0.039,0.036,-0.002,0.022,0.017,-1.552,0.004,0.249,29.75,91.2,40.503784,-3.367871,602.1,3,5,237.0,0.352
30.58,1,0.015,0.035,0.017,0.002,0.024,0.019,-1.548,0.006,0.247,29.75,91.2,40.503784,-3.367871,602.1,3,5,237.0,0.352
30.68,1,0.128,-0.082,-0.082,0.058,-0.013,-0.025,-1.545,0.008,0.245,29.75,91.2,40.503784,-3.367871,602.1,3,5,237.0,0.352
30.79,1,0.055,-0.027,0.044,0.064,-0.038,-0.014,-1.546,0.007,0.243,29.75,91.2,40.503784,-3.367871,602.1,3,5,237.0,0.352
30.88,1,-0.089,0.058,-0.009,-0.005,-0.001,0.003,-1.549,0.005,0.24,30.71,91.2,40.503658,-3.368122,602.1,4,5,237.0,0.0
30.99,1,-0.021,0.044,0.023,-0.034,0.039,0.01,-1.549,0.002,0.237,30.71,91.2,40.503658,-3.368122,602.1,4,5,237.0,0.0
31.09,1,-0.015,0.026,0.019,-0.031,0.033,0.013,-1.55,0.001,0.235,30.71,91.2,40.503658,-3.368122,602.1,4,5,237.0,0.0
31.18,1,0.0,0.051,-0.02,0.009,0.049,0.004,-1.549,-0.0,0.233,30.71,91.2,40.503658,-3.368122,602.1,4,5,237.0,0.0
31.28,1,0.005,-0.007,-0.023,-0.008,0.02,-0.015,-1.55,-0.0,0.231,30.71,91.2,40.503658,-3.368122,602.1,4,5,237.0,0.0
31.38,1,-0.022,-0.041,-0.023,-0.01,-0.014,-0.018,-1.551,-0.0,0.229,30.71,91.2,40.503658,-3.368122,602.1,4,5,237.0,0.0
31.48,1,-0.046,-0.048,-0.032,-0.018,-0.026,-0.026,-1.551,-0.001,0.228,30.71,91.2,40.503658,-3.368122,602.1,4,5,237.0,0.0
31.59,1,-0.037,-0.007,-0.016,-0.033,-0.02,-0.025,-1.552,-0.001,0.226,30.71,91.2,40.503658,-3.368122,602.1,4,5,237.0,0.0
31.68,1,-0.051,-0.064,0.011,-0.05,-0.041,-0.009,-1.553,-0.001,0.225,30.71,91.2,40.503658,-3.368122,602.1,4,5,237.0,0.0
31.78,1,-0.014,-0.059,0.013,-0.028,-0.052,0.012,-1.553,-0.001,0.224,30.71,91.2,40.503658,-3.368122,602.1,4,5,237.0,0.0
31.88,1,0.007,-0.078,-0.009,-0.017,-0.059,-0.007,-1.551,0.0,0.222,31.7,91.3,40.503544,-3.368366,601.4,6,5,237.3,0.352
31.99,1,0.027,0.024,-0.002,0.017,-0.038,0.005,-1.551,0.001,0.221,31.7,91.3,40.503544,-3.368366,601.4,6,5,237.3,0.352
32.09,1,-0.067,0.015,-0.057,-0.027,0.002,-0.031,-1.551,0.002,0.22,31.7,91.3,40.503544,-3.368366,601.4,6,5,237.3,0.352
32.19,1,-0.025,0.001,-0.007,-0.034,0.001,-0.019,-1.554,0.002,0.219,31.7,91.3,40.503544,-3.368366,601.4,6,5,237.3,0.352
32.29,1,-0.044,-0.014,-0.012,-0.037,-0.004,-0.019,-1.556,0.001,0.217,31.7,91.3,40.503544,-3.368366,601.4,6,5,237.3,0.352
32.38,1,-0.072,0.015,-0.033,-0.056,-0.013,-0.02,-1.557,0.0,0.215,31.7,91.3,40.503544,-3.368366,601.4,6,5,237.3,0.352
32.48,1,-0.134,-0.026,-0.028,-0.076,-0.002,-0.021,-1.557,-0.0,0.214,31.7,91.3,40.503544,-3.368366,601.4,6,5,237.3,0.352
32.59,1,-0.058,-0.033,-0.016,-0.09,-0.02,-0.027,-1.557,-0.0,0.213,31.7,91.3,40.503544,-3.368366,601.4,6,5,237.3,0.352
32.68,1,-0.033,-0.067,-0.009,-0.063,-0.036,-0.019,-1.554,-0.001,0.211,31.7,91.3,40.503544,-3.368366,601.4,6,5,237.3,0.352
32.79,1,-0.049,-0.051,-0.048,-0.051,-0.049,-0.026,-1.557,-0.012,0.21,31.7,91.3,40.503544,-3.368366,601.4,6,5,237.3,0.352
32.88,1,-0.019,-0.006,-0.015,-0.033,-0.036,-0.021,-1.558,-0.012,0.208,32.7,91.9,40.503422,-3.368617,601.7,4,5,237.7,0.703
32.99,1,-0.027,-0.033,-0.05,-0.029,-0.019,-0.04,-1.557,-0.012,0.207,32.7,91.9,40.503422,-3.368617,601.7,4,5,237.7,0.703
33.09,1,0.007,0.015,-0.017,-0.016,-0.014,-0.029,-1.558,-0.011,0.206,32.7,91.9,40.503422,-3.368617,601.7,4,5,237.7,0.703
33.19,1,0.017,-0.007,-0.013,0.001,-0.007,-0.022,-1.558,-0.011,0.205,32.7,91.9,40.503422,-3.368617,601.7,4,5,237.7,0.703
33.29,1,-0.007,0.01,-0.014,0.004,-0.008,-0.013,-1.56,-0.009,0.205,32.7,91.9,40.503422,-3.368617,601.7,4,5,237.7,0.703
33.39,1,-0.012,-0.108,-0.02,-0.008,-0.04,-0.019,-1.56,-0.009,0.205,32.7,91.9,40.503422,-3.368617,601.7,4,5,237.7,0.703
33.5,1,0.03,-0.049,-0.035,0.007,-0.056,-0.019,-1.558,-0.008,0.206,32.7,91.9,40.503422,-3.368617,601.7,4,5,237.7,0.703
33.59,1,0.019,-0.061,-0.079,0.019,-0.052,-0.056,-1.558,-0.008,0.206,32.7,91.9,40.503422,-3.368617,601.7,4,5,237.7,0.703
33.69,1,-0.001,-0.113,-0.051,0.015,-0.086,-0.053,-1.557,-0.001,0.207,32.7,91.9,40.503422,-3.368617,601.7,4,5,237.7,0.703
33.79,1,-0.012,-0.099,-0.05,-0.006,-0.096,-0.053,-1.548,0.027,0.207,32.7,91.9,40.503422,-3.368617,601.7,4,5,237.7,0.703
33.89,1,0.001,-0.111,-0.032,0.003,-0.098,-0.048,-1.549,0.027,0.207,33.7,91.4,40.503304,-3.368873,601.0,4,5,237.7,0.352
33.99,1,-0.033,-0.092,-0.033,-0.008,-0.099,-0.034,-1.549,0.026,0.207,33.7,91.4,40.503304,-3.368873,601.0,4,5,237.7,0.352
34.09,1,-0.043,-0.092,-0.048,-0.032,-0.098,-0.046,-1.548,0.027,0.208,33.7,91.4,40.503304,-3.368873,601.0,4,5,237.7,0.352
34.19,1,-0.004,-0.067,-0.018,-0.032,-0.082,-0.029,-1.547,0.037,0.209,33.7,91.4,40.503304,-3.368873,601.0,4,5,237.7,0.352
34.29,1,-0.065,-0.03,-0.015,-0.034,-0.058,-0.021,-1.547,0.047,0.209,33.7,91.4,40.503304,-3.368873,601.0,4,5,237.7,0.352
34.39,1,-0.039,-0.019,-0.016,-0.053,-0.043,-0.021,-1.548,0.053,0.209,33.7,91.4,40.503304,-3.368873,601.0,4,5,237.7,0.352
34.49,1,-0.032,-0.028,-0.025,-0.032,-0.026,-0.014,-1.545,0.055,0.21,33.7,91.4,40.503304,-3.368873,601.0,4,5,237.7,0.352
34.6,1,-0.025,-0.019,-0.027,-0.038,-0.031,-0.03,-1.54,0.055,0.21,33.7,91.4,40.503304,-3.368873,601.0,4,5,237.7,0.352
34.69,1,-0.036,-0.025,-0.02,-0.021,-0.018,-0.018,-1.538,0.056,0.21,33.7,91.4,40.503304,-3.368873,601.0,4,5,237.7,0.352
34.79,1,-0.063,-0.048,-0.01,-0.041,-0.031,-0.019,-1.536,0.06,0.211,33.7,91.4,40.503304,-3.368873,601.0,4,5,237.7,0.352
34.89,1,-0.06,-0.017,-0.031,-0.057,-0.027,-0.026,-1.531,0.058,0.21,34.71,91.5,40.503174,-3.369116,601.1,4,5,236.2,1.406
34.99,1,0.015,0.106,-0.002,-0.029,0.027,-0.012,-1.53,0.05,0.209,34.71,91.5,40.503174,-3.369116,601.1,4,5,236.2,1.406
35.09,1,-0.005,0.049,-0.027,-0.011,0.052,-0.016,-1.53,0.045,0.208,34.71,91.5,40.503174,-3.369116,601.1,4,5,236.2,1.406
35.2,1,0.051,0.046,-0.014,0.012,0.047,-0.021,-1.53,0.042,0.206,34.71,91.5,40.503174,-3.369116,601.1,4,5,236.2,1.406
35.3,1,0.01,0.034,-0.01,0.019,0.043,-0.014,-1.53,0.04,0.205,34.71,91.5,40.503174,-3.369116,601.1,4,5,236.2,1.406
35.39,1,0.036,0.062,-0.011,0.029,0.047,-0.012,-1.53,0.038,0.203,34.71,91.5,40.503174,-3.369116,601.1,4,5,236.2,1.406
35.49,1,-0.017,0.069,0.004,0.021,0.065,-0.004,-1.53,0.035,0.202,34.71,91.5,40.503174,-3.369116,601.1,4,5,236.2,1.406
35.59,1,0.022,0.106,0.024,0.009,0.081,0.007,-1.531,0.033,0.2,34.71,91.5,40.503174,-3.369116,601.1,4,5,236.2,1.406
35.69,1,0.038,0.097,0.013,0.012,0.087,0.013,-1.532,0.031,0.197,34.71,91.5,40.503174,-3.369116,601.1,4,5,236.2,1.406
35.8,1,0.011,0.156,0.012,0.024,0.119,0.015,-1.532,0.028,0.194,34.71,91.5,40.503174,-3.369116,601.1,4,5,236.2,1.406
35.9,1,0.024,0.104,0.046,0.015,0.119,0.025,-1.531,0.027,0.19,35.7,89.7,40.503048,-3.369362,600.9,4,5,236.2,1.406
35.99,1,0.002,0.104,-0.008,0.017,0.111,0.02,-1.53,0.026,0.188,35.7,89.7,40.503048,-3.369362,600.9,4,5,236.2,1.406
36.1,1,-0.004,0.111,0.027,0.007,0.112,0.013,-1.53,0.026,0.185,35.7,89.7,40.503048,-3.369362,600.9,4,5,236.2,1.406
36.2,1,0.063,0.099,0.015,0.024,0.115,0.019,-1.53,0.026,0.183,35.7,89.7,40.503048,-3.369362,600.9,4,5,236.2,1.406
36.3,1,0.005,0.062,0.011,0.025,0.08,0.013,-1.53,0.026,0.18,35.7,89.7,40.503048,-3.369362,600.9,4,5,236.2,1.406
36.41,1,-0.034,0.064,0.048,0.006,0.076,0.034,-1.53,0.027,0.178,35.7,89.7,40.503048,-3.369362,600.9,4,5,236.2,1.406
36.5,1,-0.077,0.09,-0.017,-0.043,0.068,0.009,-1.53,0.026,0.175,35.7,89.7,40.503048,-3.369362,600.9,4,5,236.2,1.406
36.6,1,-0.043,0.1,0.025,-0.055,0.089,0.009,-1.532,0.025,0.172,35.7,89.7,40.503048,-3.369362,600.9,4,5,236.2,1.406
36.7,1,-0.004,0.103,0.032,-0.026,0.086,0.026,-1.533,0.023,0.168,35.7,89.7,40.503048,-3.369362,600.9,4,5,236.2,1.406
36.81,1,0.015,0.078,0.022,-0.01,0.091,0.025,-1.532,0.022,0.165,35.7,89.7,40.503048,-3.369362,600.9,4,5,236.2,1.406
36.9,1,0.03,0.093,-0.027,0.005,0.102,0.005,-1.53,0.021,0.162,36.72,90.0,40.502922,-3.369617,600.6,4,5,236.6,0.352
37.01,1,0.006,0.092,0.012,0.018,0.096,0.0,-1.532,0.021,0.159,36.72,90.0,40.502922,-3.369617,600.6,4,5,236.6,0.352
37.11,1,-0.015,0.113,0.023,0.002,0.097,0.012,-1.532,0.02,0.155,36.72,90.0,40.502922,-3.369617,600.6,4,5,236.6,0.352
37.2,1,-0.002,0.101,0.021,0.0,0.102,0.016,-1.532,0.02,0.151,36.72,90.0,40.502922,-3.369617,600.6,4,5,236.6,0.352
37.3,1,-0.037,0.106,0.015,-0.016,0.107,0.013,-1.532,0.019,0.148,36.72,90.0,40.502922,-3.369617,600.6,4,5,236.6,0.352
37.4,1,-0.038,0.043,0.0,-0.03,0.081,0.019,-1.531,0.018,0.144,36.72,90.0,40.502922,-3.369617,600.6,4,5,236.6,0.352
37.5,1,-0.06,0.036,-0.034,-0.044,0.049,-0.015,-1.531,0.017,0.141,36.72,90.0,40.502922,-3.369617,600.6,4,5,236.6,0.352
37.62,1,0.018,0.02,0.026,-0.02,0.034,0.001,-1.532,0.017,0.138,36.72,90.0,40.502922,-3.369617,600.6,4,5,236.6,0.352
37.7,1,-0.001,0.01,-0.016,-0.011,0.022,-0.006,-1.532,0.017,0.135,36.72,90.0,40.502922,-3.369617,600.6,4,5,236.6,0.352
37.8,1,0.009,0.037,-0.005,0.011,0.023,-0.0,-1.532,0.017,0.133,36.72,90.0,40.502922,-3.369617,600.6,4,5,236.6,0.352
37.91,1,0.061,0.03,0.01,0.025,0.033,-0.003,-1.535,0.024,0.131,37.7,89.6,40.502808,-3.369866,600.9,4,5,237.3,1.055
38.01,1,-0.003,0.037,-0.021,0.024,0.033,-0.005,-1.538,0.026,0.13,37.7,89.6,40.502808,-3.369866,600.9,4,5,237.3,1.055
38.1,1,0.075,0.041,0.011,0.027,0.033,-0.001,-1.538,0.031,0.129,37.7,89.6,40.502808,-3.369866,600.9,4,5,237.3,1.055
38.21,1,0.029,0.047,-0.016,0.047,0.041,-0.006,-1.535,0.026,0.128,37.7,89.6,40.502808,-3.369866,600.9,4,5,237.3,1.055
38.31,1,0.035,0.05,0.003,0.031,0.047,-0.008,-1.535,0.03,0.127,37.7,89.6,40.502808,-3.369866,600.9,4,5,237.3,1.055
38.41,1,0.024,0.044,-0.009,0.04,0.049,0.003,-1.535,0.032,0.126,37.7,89.6,40.502808,-3.369866,600.9,4,5,237.3,1.055
38.51,1,0.023,0.037,0.012,0.023,0.043,-0.004,-1.534,0.034,0.126,37.7,89.6,40.502808,-3.369866,600.9,4,5,237.3,1.055
38.6,1,0.008,0.069,-0.014,0.019,0.05,0.001,-1.534,0.035,0.126,37.7,89.6,40.502808,-3.369866,600.9,4,5,237.3,1.055
38.71,1,-0.05,-0.029,-0.01,-0.011,0.025,-0.01,-1.535,0.037,0.126,37.7,89.6,40.502808,-3.369866,600.9,4,5,237.3,1.055
38.81,1,0.002,-0.059,0.017,-0.019,-0.029,0.0,-1.535,0.039,0.126,37.7,89.6,40.502808,-3.369866,600.9,4,5,237.3,1.055
38.9,1,-0.042,-0.035,-0.033,-0.021,-0.04,-0.007,-1.533,0.04,0.126,38.7,87.4,40.502686,-3.370118,600.4,6,5,237.7,1.055
39.0,1,-0.034,-0.073,0.003,-0.03,-0.042,-0.012,-1.534,0.04,0.126,38.7,87.4,40.502686,-3.370118,600.4,6,5,237.7,1.055
39.11,1,-0.015,-0.093,0.003,-0.025,-0.07,-0.001,-1.535,0.042,0.127,38.7,87.4,40.502686,-3.370118,600.4,6,5,237.7,1.055
39.21,1,-0.063,-0.045,-0.004,-0.033,-0.077,0.001,-1.536,0.043,0.127,38.7,87.4,40.502686,-3.370118,600.4,6,5,237.7,1.055
39.31,1,-0.054,-0.094,0.023,-0.052,-0.071,0.005,-1.537,0.043,0.129,38.7,87.4,40.502686,-3.370118,600.4,6,5,237.7,1.055
39.42,1,-0.011,-0.055,0.03,-0.029,-0.066,0.024,-1.537,0.043,0.129,38.7,87.4,40.502686,-3.370118,600.4,6,5,237.7,1.055
39.51,1,0.018,-0.073,0.031,-0.019,-0.065,0.02,-1.536,0.043,0.13,38.7,87.4,40.502686,-3.370118,600.4,6,5,237.7,1.055
39.61,1,-0.003,-0.09,-0.017,0.002,-0.076,0.017,-1.534,0.043,0.131,38.7,87.4,40.502686,-3.370118,600.4,6,5,237.7,1.055
39.71,1,0.062,-0.067,0.038,0.021,-0.08,0.01,-1.533,0.044,0.131,38.7,87.4,40.502686,-3.370118,600.4,6,5,237.7,1.055
39.81,1,-0.021,-0.017,-0.027,0.024,-0.052,0.001,-1.532,0.044,0.132,38.7,87.4,40.502686,-3.370118,600.4,6,5,237.7,1.055
39.91,1,-0.037,-0.015,0.039,-0.014,-0.026,0.009,-1.535,0.044,0.133,39.7,88.2,40.502567,-3.370368,600.9,6,5,238.7,1.406
40.02,1,-0.043,-0.058,0.059,-0.03,-0.033,0.038,-1.537,0.043,0.132,39.7,88.2,40.502567,-3.370368,600.9,6,5,238.7,1.406
40.11,1,-0.047,0.006,0.049,-0.042,-0.029,0.051,-1.536,0.041,0.132,39.7,88.2,40.502567,-3.370368,600.9,6,5,238.7,1.406
40.21,1,-0.079,0.004,0.006,-0.061,-0.006,0.031,-1.535,0.04,0.132,39.7,88.2,40.502567,-3.370368,600.9,6,5,238.7,1.406
40.31,1,0.057,-0.001,0.084,-0.015,-0.001,0.045,-1.535,0.04,0.132,39.7,88.2,40.502567,-3.370368,600.9,6,5,238.7,1.406
40.42,1,-0.062,-0.031,-0.004,-0.018,-0.013,0.037,-1.533,0.04,0.132,39.7,88.2,40.502567,-3.370368,600.9,6,5,238.7,1.406
40.51,1,-0.062,-0.039,0.038,-0.039,-0.019,0.029,-1.535,0.039,0.133,39.7,88.2,40.502567,-3.370368,600.9,6,5,238.7,1.406
40.62,1,-0.059,-0.055,0.075,-0.053,-0.046,0.051,-1.537,0.039,0.134,39.7,88.2,40.502567,-3.370368,600.9,6,5,238.7,1.406
40.72,1,-0.08,-0.084,-0.0,-0.075,-0.065,0.029,-1.537,0.038,0.135,39.7,88.2,40.502567,-3.370368,600.9,6,5,238.7,1.406
40.81,1,-0.021,-0.048,0.073,-0.051,-0.061,0.044,-1.538,0.037,0.137,39.7,88.2,40.502567,-3.370368,600.9,6,5,238.7,1.406
40.91,1,-0.076,-0.071,-0.001,-0.056,-0.063,0.032,-1.537,0.037,0.138,40.7,87.1,40.502441,-3.370601,599.7,6,5,237.3,1.406
41.01,1,-0.007,-0.039,0.074,-0.037,-0.059,0.04,-1.538,0.036,0.139,40.7,87.1,40.502441,-3.370601,599.7,6,5,237.3,1.406
41.11,1,-0.048,-0.04,0.029,-0.029,-0.049,0.05,-1.537,0.035,0.14,40.7,87.1,40.502441,-3.370601,599.7,6,5,237.3,1.406
41.22,1,-0.033,-0.03,0.04,-0.041,-0.038,0.034,-1.539,0.035,0.141,40.7,87.1,40.502441,-3.370601,599.7,6,5,237.3,1.406
41.31,1,-0.034,-0.002,0.037,-0.038,-0.019,0.041,-1.55,0.04,0.142,40.7,87.1,40.502441,-3.370601,599.7,6,5,237.3,1.406
41.41,1,-0.004,-0.004,0.033,-0.026,-0.01,0.037,-1.556,0.044,0.143,40.7,87.1,40.502441,-3.370601,599.7,6,5,237.3,1.406
41.51,1,-0.028,-0.006,0.009,-0.021,-0.004,0.026,-1.557,0.046,0.143,40.7,87.1,40.502441,-3.370601,599.7,6,5,237.3,1.406
41.62,1,0.003,-0.007,0.023,-0.009,-0.009,0.02,-1.555,0.045,0.144,40.7,87.1,40.502441,-3.370601,599.7,6,5,237.3,1.406
41.71,1,-0.051,0.017,0.018,-0.029,0.003,0.011,-1.555,0.049,0.144,40.7,87.1,40.502441,-3.370601,599.7,6,5,237.3,1.406
41.82,1,-0.039,0.032,0.008,-0.032,0.018,0.023,-1.559,0.047,0.143,40.7,87.1,40.502441,-3.370601,599.7,6,5,237.3,1.406
41.92,1,-0.008,0.03,0.046,-0.02,0.022,0.024,-1.56,0.04,0.141,41.71,89.9,40.502319,-3.370851,600.6,6,5,237.7,1.055
42.02,1,-0.01,0.034,0.006,-0.016,0.033,0.025,-1.562,0.038,0.14,41.71,89.9,40.502319,-3.370851,600.6,6,5,237.7,1.055
42.12,1,0.015,0.006,-0.008,-0.008,0.025,0.003,-1.561,0.035,0.138,41.71,89.9,40.502319,-3.370851,600.6,6,5,237.7,1.055
42.22,1,0.093,0.019,0.029,0.035,0.016,0.011,-1.563,0.031,0.136,41.71,89.9,40.502319,-3.370851,600.6,6,5,237.7,1.055
42.32,1,-0.002,0.037,-0.007,0.036,0.022,0.008,-1.563,0.03,0.135,41.71,89.9,40.502319,-3.370851,600.6,6,5,237.7,1.055
42.42,1,0.01,0.06,0.009,0.023,0.04,0.011,-1.567,0.031,0.134,41.71,89.9,40.502319,-3.370851,600.6,6,5,237.7,1.055
42.52,1,0.018,0.074,0.002,0.012,0.058,-0.003,-1.565,0.025,0.132,41.71,89.9,40.502319,-3.370851,600.6,6,5,237.7,1.055
42.62,1,-0.03,0.086,-0.039,0.002,0.079,-0.009,-1.565,0.025,0.131,41.71,89.9,40.502319,-3.370851,600.6,6,5,237.7,1.055
42.72,1,0.026,0.031,0.033,-0.0,0.063,-0.006,-1.567,0.025,0.129,41.71,89.9,40.502319,-3.370851,600.6,6,5,237.7,1.055
42.83,1,0.027,0.069,0.008,0.02,0.058,0.015,-1.566,0.025,0.127,41.71,89.9,40.502319,-3.370851,600.6,6,5,237.7,1.055
42.92,1,0.037,0.078,-0.007,0.025,0.061,0.005,-1.565,0.024,0.125,42.7,90.4,40.502197,-3.371103,600.2,6,5,237.0,0.703
43.02,1,-0.052,0.047,-0.03,0.001,0.065,-0.011,-1.564,0.024,0.123,42.7,90.4,40.502197,-3.371103,600.2,6,5,237.0,0.703
43.12,1,0.095,0.042,0.051,0.003,0.054,-0.009,-1.566,0.026,0.122,42.7,90.4,40.502197,-3.371103,600.2,6,5,237.0,0.703
43.22,1,0.053,0.004,0.011,0.054,0.031,0.032,-1.564,0.028,0.12,42.7,90.4,40.502197,-3.371103,600.2,6,5,237.0,0.703
43.32,1,-0.012,-0.024,-0.064,0.046,-0.002,-0.008,-1.56,0.028,0.119,42.7,90.4,40.502197,-3.371103,600.2,6,5,237.0,0.703
43.42,1,0.076,-0.026,0.032,0.035,-0.017,-0.017,-1.562,0.031,0.118,42.7,90.4,40.502197,-3.371103,600.2,6,5,237.0,0.703
43.52,1,-0.007,-0.04,-0.024,0.031,-0.03,-0.003,-1.563,0.032,0.116,42.7,90.4,40.502197,-3.371103,600.2,6,5,237.0,0.703
43.63,1,-0.007,-0.033,0.006,0.0,-0.036,-0.012,-1.563,0.032,0.114,42.7,90.4,40.502197,-3.371103,600.2,6,5,237.0,0.703
43.73,1,-0.065,-0.065,-0.015,-0.015,-0.05,0.003,-1.563,0.032,0.113,42.7,90.4,40.502197,-3.371103,600.2,6,5,237.0,0.703
43.82,1,-0.038,-0.045,0.032,-0.046,-0.044,-0.0,-1.564,0.032,0.112,42.7,90.4,40.502197,-3.371103,600.2,6,5,237.0,0.703
43.92,1,-0.042,-0.026,0.034,-0.032,-0.045,0.029,-1.565,0.031,0.111,43.72,91.0,40.502075,-3.371348,599.6,6,5,237.0,0.703
44.02,1,-0.039,0.035,-0.008,-0.058,0.003,0.013,-1.563,0.031,0.111,43.72,91.0,40.502075,-3.371348,599.6,6,5,237.0,0.703
44.12,1,0.04,-0.009,0.017,-0.001,-0.0,0.007,-1.561,0.034,0.112,43.72,91.0,40.502075,-3.371348,599.6,6,5,237.0,0.703
44.23,1,-0.035,0.007,-0.001,-0.006,0.004,0.007,-1.557,0.044,0.112,43.72,91.0,40.502075,-3.371348,599.6,6,5,237.0,0.703
44.33,1,0.017,0.011,0.061,-0.004,0.009,0.033,-1.557,0.043,0.112,43.72,91.0,40.502075,-3.371348,599.6,6,5,237.0,0.703
44.42,1,-0.046,-0.056,-0.01,-0.017,-0.009,0.018,-1.557,0.042,0.113,43.72,91.0,40.502075,-3.371348,599.6,6,5,237.0,0.703
44.52,1,0.024,-0.026,0.018,-0.01,-0.041,0.008,-1.558,0.042,0.116,43.72,91.0,40.502075,-3.371348,599.6,6,5,237.0,0.703
44.62,1,-0.025,-0.054,0.041,0.003,-0.038,0.024,-1.556,0.042,0.12,43.72,91.0,40.502075,-3.371348,599.6,6,5,237.0,0.703
44.72,1,-0.031,-0.041,-0.032,-0.025,-0.044,0.008,-1.553,0.044,0.123,43.72,91.0,40.502075,-3.371348,599.6,6,5,237.0,0.703
44.83,1,0.062,-0.044,0.036,0.015,-0.045,0.012,-1.55,0.054,0.126,43.72,91.0,40.502075,-3.371348,599.6,6,5,237.0,0.703
44.93,1,-0.011,-0.032,0.006,0.009,-0.041,0.009,-1.547,0.065,0.129,44.71,91.5,40.501949,-3.371616,599.9,6,5,238.0,1.055
45.03,1,-0.052,-0.029,0.003,-0.018,-0.029,0.007,-1.547,0.074,0.131,44.71,91.5,40.501949,-3.371616,599.9,6,5,238.0,1.055
45.13,1,0.003,-0.06,0.006,-0.015,-0.048,0.008,-1.55,0.072,0.133,44.71,91.5,40.501949,-3.371616,599.9,6,5,238.0,1.055
45.23,1,0.058,-0.06,0.037,0.013,-0.054,0.015,-1.554,0.07,0.134,44.71,91.5,40.501949,-3.371616,599.9,6,5,238.0,1.055
45.33,1,0.022,-0.066,-0.035,0.035,-0.056,0.013,-1.557,0.07,0.136,44.71,91.5,40.501949,-3.371616,599.9,6,5,238.0,1.055
45.44,1,-0.025,-0.015,-0.005,0.01,-0.047,-0.014,-1.556,0.069,0.138,44.71,91.5,40.501949,-3.371616,599.9,6,5,238.0,1.055
45.53,1,-0.057,-0.013,0.008,-0.028,-0.021,-0.004,-1.557,0.066,0.14,44.71,91.5,40.501949,-3.371616,599.9,6,5,238.0,1.055
45.63,1,-0.005,-0.012,0.017,-0.034,-0.017,0.004,-1.563,0.064,0.141,44.71,91.5,40.501949,-3.371616,599.9,6,5,238.0,1.055
45.73,1,-0.047,-0.005,0.037,-0.029,-0.013,0.028,-1.566,0.063,0.141,44.71,91.5,40.501949,-3.371616,599.9,6,5,238.0,1.055
45.83,1,0.015,-0.023,-0.004,-0.017,-0.014,0.016,-1.564,0.06,0.141,44.71,91.5,40.501949,-3.371616,599.9,6,5,238.0,1.055
45.93,1,0.063,-0.03,0.011,0.016,-0.022,0.004,-1.564,0.06,0.141,45.71,92.4,40.501827,-3.371873,599.8,6,5,237.3,0.703
46.04,1,-0.0,0.002,0.008,0.036,-0.018,0.02,-1.566,0.067,0.141,45.71,92.4,40.501827,-3.371873,599.8,6,5,237.3,0.703
46.13,1,0.008,0.016,-0.022,0.004,0.005,-0.014,-1.564,0.066,0.141,45.71,92.4,40.501827,-3.371873,599.8,6,5,237.3,0.703
46.23,1,-0.046,0.04,-0.028,-0.004,0.019,-0.014,-1.563,0.067,0.139,45.71,92.4,40.501827,-3.371873,599.8,6,5,237.3,0.703
46.33,1,0.011,0.078,0.02,-0.023,0.05,-0.013,-1.563,0.061,0.138,45.71,92.4,40.501827,-3.371873,599.8,6,5,237.3,0.703
46.43,1,-0.051,0.057,0.008,-0.016,0.061,0.012,-1.563,0.06,0.137,45.71,92.4,40.501827,-3.371873,599.8,6,5,237.3,0.703
46.53,1,-0.005,0.024,0.051,-0.017,0.046,0.024,-1.561,0.053,0.135,45.71,92.4,40.501827,-3.371873,599.8,6,5,237.3,0.703
46.64,1,0.01,0.037,0.014,-0.015,0.028,0.027,-1.558,0.044,0.135,45.71,92.4,40.501827,-3.371873,599.8,6,5,237.3,0.703
46.75,1,0.003,-0.005,0.024,0.008,0.026,0.019,-1.556,0.041,0.134,45.71,92.4,40.501827,-3.371873,599.8,6,5,237.3,0.703
46.83,1,-0.018,0.035,0.01,-0.004,0.023,0.021,-1.557,0.04,0.133,45.71,92.4,40.501827,-3.371873,599.8,6,5,237.3,0.703
46.93,1,-0.018,0.012,0.032,-0.011,0.019,0.018,-1.558,0.039,0.133,46.71,93.2,40.501698,-3.372141,599.6,6,5,236.2,1.758
47.03,1,-0.138,0.042,-0.029,-0.066,0.025,0.007,-1.556,0.038,0.132,46.71,93.2,40.501698,-3.372141,599.6,6,5,236.2,1.758
47.13,1,-0.075,0.043,0.02,-0.088,0.036,0.006,-1.555,0.039,0.132,46.71,93.2,40.501698,-3.372141,599.6,6,5,236.2,1.758
47.24,1,0.03,0.035,0.021,-0.038,0.034,0.008,-1.557,0.036,0.131,46.71,93.2,40.501698,-3.372141,599.6,6,5,236.2,1.758
47.34,1,0.064,0.046,0.004,0.021,0.039,0.017,-1.559,0.027,0.131,46.71,93.2,40.501698,-3.372141,599.6,6,5,236.2,1.758
47.43,1,0.044,0.018,-0.016,0.043,0.035,-0.005,-1.558,0.026,0.13,46.71,93.2,40.501698,-3.372141,599.6,6,5,236.2,1.758
47.53,1,-0.017,-0.014,0.005,0.007,0.011,-0.005,-1.56,0.024,0.129,46.71,93.2,40.501698,-3.372141,599.6,6,5,236.2,1.758
47.64,1,-0.0,-0.001,0.007,0.004,0.003,0.003,-1.564,0.019,0.128,46.71,93.2,40.501698,-3.372141,599.6,6,5,236.2,1.758
47.74,1,-0.036,0.018,0.024,-0.004,-0.001,0.017,-1.563,0.02,0.128,46.71,93.2,40.501698,-3.372141,599.6,6,5,236.2,1.758
47.84,1,-0.018,0.038,-0.032,-0.033,0.024,-0.006,-1.562,0.019,0.127,46.71,93.2,40.501698,-3.372141,599.6,6,5,236.2,1.758
47.94,1,0.01,0.013,-0.003,-0.003,0.026,-0.002,-1.561,0.018,0.127,47.71,94.0,40.501568,-3.372407,599.6,6,5,236.6,0.703
48.04,1,0.017,-0.018,-0.0,0.007,0.005,-0.012,-1.561,0.018,0.127,47.71,94.0,40.501568,-3.372407,599.6,6,5,236.6,0.703
48.14,1,0.035,-0.056,0.001,0.021,-0.025,0.001,-1.564,0.019,0.127,47.71,94.0,40.501568,-3.372407,599.6,6,5,236.6,0.703
48.24,1,-0.018,-0.022,-0.012,0.008,-0.031,-0.003,-1.561,0.019,0.127,47.71,94.0,40.501568,-3.372407,599.6,6,5,236.6,0.703
48.34,1,0.019,-0.021,0.025,0.013,-0.033,0.007,-1.56,0.015,0.126,47.71,94.0,40.501568,-3.372407,599.6,6,5,236.6,0.703
48.45,1,-0.019,0.041,-0.021,-0.005,0.004,-0.007,-1.56,0.014,0.126,47.71,94.0,40.501568,-3.372407,599.6,6,5,236.6,0.703
48.54,1,-0.026,0.068,0.009,-0.018,0.039,-0.0,-1.561,0.013,0.125,47.71,94.0,40.501568,-3.372407,599.6,6,5,236.6,0.703
48.64,1,-0.014,0.042,-0.02,-0.011,0.053,-0.001,-1.56,0.013,0.123,47.71,94.0,40.501568,-3.372407,599.6,6,5,236.6,0.703
48.74,1,0.028,-0.026,-0.017,-0.005,0.013,-0.024,-1.557,0.008,0.12,47.71,94.0,40.501568,-3.372407,599.6,6,5,236.6,0.703
48.84,1,-0.026,0.034,0.001,0.023,-0.0,0.002,-1.557,0.006,0.117,47.71,94.0,40.501568,-3.372407,599.6,6,5,236.6,0.703
48.94,1,-0.13,0.119,0.024,-0.068,0.067,0.005,-1.558,0.006,0.114,48.7,95.2,40.501438,-3.372663,599.8,4,5,236.6,0.352
49.05,1,-0.036,0.083,-0.003,-0.074,0.088,0.004,-1.557,0.007,0.112,48.7,95.2,40.501438,-3.372663,599.8,4,5,236.6,0.352
49.15,1,-0.009,0.09,0.013,-0.035,0.088,0.01,-1.555,-0.002,0.108,48.7,95.2,40.501438,-3.372663,599.8,4,5,236.6,0.352
49.25,1,-0.02,0.032,-0.008,-0.028,0.063,0.003,-1.555,-0.006,0.106,48.7,95.2,40.501438,-3.372663,599.8,4,5,236.6,0.352
49.34,1,-0.057,0.024,-0.002,-0.05,0.049,-0.006,-1.557,-0.01,0.103,48.7,95.2,40.501438,-3.372663,599.8,4,5,236.6,0.352
49.45,1,-0.052,0.022,-0.005,-0.048,0.031,-0.001,-1.56,-0.014,0.099,48.7,95.2,40.501438,-3.372663,599.8,4,5,236.6,0.352
49.55,1,0.041,0.004,0.01,-0.018,0.012,-0.003,-1.561,-0.023,0.096,48.7,95.2,40.501438,-3.372663,599.8,4,5,236.6,0.352
49.65,1,0.026,0.045,-0.024,0.034,0.03,0.002,-1.558,-0.023,0.093,48.7,95.2,40.501438,-3.372663,599.8,4,5,236.6,0.352
49.74,1,-0.03,-0.026,-0.064,-0.003,0.009,-0.041,-1.557,-0.021,0.09,48.7,95.2,40.501438,-3.372663,599.8,4,5,236.6,0.352
49.84,1,0.081,-0.033,0.045,0.021,-0.018,-0.008,-1.56,-0.02,0.089,48.7,95.2,40.501438,-3.372663,599.8,4,5,236.6,0.352
49.94,1,-0.052,-0.012,-0.034,0.014,-0.025,-0.002,-1.558,-0.02,0.087,49.73,94.6,40.501308,-3.372926,599.6,4,5,237.0,0.352
50.05,1,-0.021,0.002,-0.029,-0.013,-0.003,-0.02,-1.558,-0.021,0.086,49.73,94.6,40.501308,-3.372926,599.6,4,5,237.0,0.352
50.15,1,-0.025,0.001,-0.017,-0.032,-0.003,-0.024,-1.556,-0.022,0.086,49.73,94.6,40.501308,-3.372926,599.6,4,5,237.0,0.352
50.25,1,0.044,-0.0,0.007,0.001,-0.005,-0.011,-1.553,-0.017,0.085,49.73,94.6,40.501308,-3.372926,599.6,4,5,237.0,0.352
50.36,1,0.009,-0.002,-0.031,0.019,0.003,-0.013,-1.548,-0.012,0.084,49.73,94.6,40.501308,-3.372926,599.6,4,5,237.0,0.352
50.44,1,0.007,-0.017,-0.018,0.013,-0.003,-0.022,-1.55,-0.006,0.083,49.73,94.6,40.501308,-3.372926,599.6,4,5,237.0,0.352
50.54,1,-0.039,-0.05,-0.014,-0.007,-0.033,-0.014,-1.55,0.001,0.083,49.73,94.6,40.501308,-3.372926,599.6,4,5,237.0,0.352
50.65,1,-0.042,-0.048,-0.004,-0.042,-0.04,-0.02,-1.548,0.003,0.083,49.73,94.6,40.501308,-3.372926,599.6,4,5,237.0,0.352
50.74,1,-0.073,-0.033,-0.005,-0.032,-0.04,0.005,-1.549,0.006,0.084,49.73,94.6,40.501308,-3.372926,599.6,4,5,237.0,0.352
50.87,1,-0.074,-0.021,0.005,-0.065,-0.032,-0.004,-1.548,0.009,0.085,49.73,94.6,40.501308,-3.372926,599.6,4,5,237.0,0.352
50.95,1,-0.001,-0.031,-0.024,-0.062,-0.024,-0.013,-1.548,0.012,0.086,50.79,94.1,40.501175,-3.373184,599.3,4,5,238.4,1.758
51.05,1,0.01,-0.048,-0.001,-0.003,-0.042,-0.001,-1.549,0.019,0.087,50.79,94.1,40.501175,-3.373184,599.3,4,5,238.4,1.758
51.15,1,-0.012,-0.013,-0.057,-0.01,-0.03,-0.031,-1.544,0.025,0.088,50.79,94.1,40.501175,-3.373184,599.3,4,5,238.4,1.758
51.25,1,0.016,-0.05,0.008,0.012,-0.038,-0.019,-1.543,0.029,0.088,50.79,94.1,40.501175,-3.373184,599.3,4,5,238.4,1.758
51.35,1,-0.046,-0.04,0.008,-0.011,-0.043,-0.0,-1.542,0.031,0.088,50.79,94.1,40.501175,-3.373184,599.3,4,5,238.4,1.758
51.45,1,-0.021,-0.018,-0.002,-0.032,-0.025,-0.008,-1.543,0.03,0.089,50.79,94.1,40.501175,-3.373184,599.3,4,5,238.4,1.758
51.55,1,0.036,-0.013,0.043,-0.013,-0.016,0.02,-1.544,0.03,0.09,50.79,94.1,40.501175,-3.373184,599.3,4,5,238.4,1.758
51.65,1,0.011,-0.072,-0.042,0.026,-0.045,-0.001,-1.541,0.031,0.092,50.79,94.1,40.501175,-3.373184,599.3,4,5,238.4,1.758
51.75,1,-0.095,-0.022,-0.048,-0.034,-0.032,-0.032,-1.541,0.03,0.094,50.79,94.1,40.501175,-3.373184,599.3,4,5,238.4,1.758
51.85,1,-0.019,-0.025,0.026,-0.037,-0.033,-0.007,-1.545,0.028,0.096,50.79,94.1,40.501175,-3.373184,599.3,4,5,238.4,1.758
51.95,1,-0.0,-0.007,0.02,-0.022,-0.027,0.006,-1.545,0.027,0.097,51.72,90.5,40.50106,-3.373429,600.7,6,5,237.0,1.406
52.05,1,-0.058,-0.01,-0.049,-0.038,-0.011,-0.013,-1.544,0.027,0.099,51.72,90.5,40.50106,-3.373429,600.7,6,5,237.0,1.406
52.15,1,0.052,-0.086,-0.002,0.006,-0.044,-0.011,-1.544,0.027,0.101,51.72,90.5,40.50106,-3.373429,600.7,6,5,237.0,1.406
52.25,1,0.025,-0.068,0.004,0.02,-0.057,-0.007,-1.544,0.028,0.103,51.72,90.5,40.50106,-3.373429,600.7,6,5,237.0,1.406
52.35,1,-0.041,-0.006,-0.016,-0.003,-0.039,-0.005,-1.542,0.039,0.105,51.72,90.5,40.50106,-3.373429,600.7,6,5,237.0,1.406
52.45,1,0.019,-0.03,0.017,-0.001,-0.031,-0.001,-1.541,0.04,0.107,51.72,90.5,40.50106,-3.373429,600.7,6,5,237.0,1.406
52.55,1,-0.071,-0.008,-0.04,-0.021,-0.021,-0.01,-1.541,0.043,0.109,51.72,90.5,40.50106,-3.373429,600.7,6,5,237.0,1.406
52.65,1,0.037,-0.072,0.043,-0.02,-0.033,-0.0,-1.542,0.045,0.112,51.72,90.5,40.50106,-3.373429,600.7,6,5,237.0,1.406
52.75,1,0.01,-0.095,-0.022,0.012,-0.071,0.008,-1.54,0.045,0.113,51.72,90.5,40.50106,-3.373429,600.7,6,5,237.0,1.406
52.85,1,-0.004,-0.046,0.01,0.004,-0.065,-0.004,-1.539,0.045,0.115,51.72,90.5,40.50106,-3.373429,600.7,6,5,237.0,1.406
52.95,1,-0.034,-0.029,-0.013,-0.015,-0.047,-0.002,-1.542,0.045,0.118,52.75,94.3,40.500938,-3.373684,599.1,6,5,238.0,1.055
53.06,1,-0.002,-0.08,-0.01,-0.012,-0.055,-0.004,-1.542,0.045,0.12,52.75,94.3,40.500938,-3.373684,599.1,6,5,238.0,1.055
53.16,1,-0.003,-0.083,0.006,-0.009,-0.07,-0.012,-1.54,0.043,0.122,52.75,94.3,40.500938,-3.373684,599.1,6,5,238.0,1.055
53.26,1,-0.025,-0.04,0.0,-0.006,-0.064,0.006,-1.54,0.041,0.124,52.75,94.3,40.500938,-3.373684,599.1,6,5,238.0,1.055
53.35,1,-0.001,-0.055,0.036,-0.028,-0.055,0.007,-1.541,0.041,0.125,52.75,94.3,40.500938,-3.373684,599.1,6,5,238.0,1.055
53.45,1,-0.026,-0.035,-0.019,-0.004,-0.049,0.016,-1.541,0.046,0.126,52.75,94.3,40.500938,-3.373684,599.1,6,5,238.0,1.055
53.55,1,-0.005,-0.044,0.005,-0.01,-0.035,-0.003,-1.538,0.045,0.127,52.75,94.3,40.500938,-3.373684,599.1,6,5,238.0,1.055
53.66,1,0.025,0.012,-0.002,0.006,-0.023,0.002,-1.536,0.047,0.127,52.75,94.3,40.500938,-3.373684,599.1,6,5,238.0,1.055
53.76,1,0.012,0.029,-0.019,0.007,0.009,-0.011,-1.531,0.04,0.128,52.75,94.3,40.500938,-3.373684,599.1,6,5,238.0,1.055
53.86,1,0.031,-0.019,0.024,0.021,-0.007,0.005,-1.528,0.035,0.127,52.75,94.3,40.500938,-3.373684,599.1,6,5,238.0,1.055
53.97,1,0.027,0.0,0.003,0.04,-0.003,0.011,-1.528,0.036,0.127,53.78,94.0,40.500813,-3.373949,599.1,6,5,237.0,1.055
54.06,1,-0.067,-0.025,0.018,-0.032,-0.011,-0.001,-1.529,0.039,0.127,53.78,94.0,40.500813,-3.373949,599.1,6,5,237.0,1.055
54.16,1,-0.009,-0.002,0.011,-0.014,-0.012,0.024,-1.533,0.037,0.128,53.78,94.0,40.500813,-3.373949,599.1,6,5,237.0,1.055
54.26,1,-0.008,0.032,-0.025,-0.015,0.013,-0.006,-1.53,0.033,0.127,53.78,94.0,40.500813,-3.373949,599.1,6,5,237.0,1.055
54.36,1,-0.023,-0.015,-0.004,-0.024,0.007,-0.013,-1.529,0.032,0.127,53.78,94.0,40.500813,-3.373949,599.1,6,5,237.0,1.055
54.47,1,-0.012,-0.025,0.056,-0.016,-0.013,0.023,-1.534,0.037,0.126,53.78,94.0,40.500813,-3.373949,599.1,6,5,237.0,1.055
54.56,1,-0.065,0.017,-0.0,-0.029,-0.007,0.025,-1.533,0.04,0.126,53.78,94.0,40.500813,-3.373949,599.1,6,5,237.0,1.055
54.66,1,-0.016,0.043,0.033,-0.035,0.02,0.017,-1.532,0.038,0.126,53.78,94.0,40.500813,-3.373949,599.1,6,5,237.0,1.055
54.76,1,-0.007,0.06,-0.03,-0.03,0.046,0.002,-1.531,0.036,0.126,53.78,94.0,40.500813,-3.373949,599.1,6,5,237.0,1.055
54.87,1,0.027,0.018,-0.001,0.007,0.031,-0.01,-1.536,0.035,0.126,53.78,94.0,40.500813,-3.373949,599.1,6,5,237.0,1.055
54.96,1,0.011,0.033,0.01,0.018,0.033,0.01,-1.541,0.034,0.126,54.72,94.0,40.500687,-3.374212,598.9,6,5,235.9,2.109
55.07,1,0.077,-0.009,0.013,0.03,0.015,-0.003,-1.543,0.035,0.126,54.72,94.0,40.500687,-3.374212,598.9,6,5,235.9,2.109
55.18,1,0.007,0.018,0.021,0.039,0.007,0.019,-1.541,0.04,0.126,54.72,94.0,40.500687,-3.374212,598.9,6,5,235.9,2.109
55.26,1,-0.019,0.007,0.03,0.008,0.013,0.022,-1.542,0.045,0.126,54.72,94.0,40.500687,-3.374212,598.9,6,5,235.9,2.109
55.36,1,-0.057,0.087,0.001,-0.023,0.049,0.024,-1.542,0.047,0.126,54.72,94.0,40.500687,-3.374212,598.9,6,5,235.9,2.109
55.46,1,-0.021,0.035,-0.002,-0.028,0.048,0.001,-1.541,0.046,0.125,54.72,94.0,40.500687,-3.374212,598.9,6,5,235.9,2.109
55.56,1,-0.038,0.049,0.008,-0.035,0.039,0.001,-1.543,0.045,0.125,54.72,94.0,40.500687,-3.374212,598.9,6,5,235.9,2.109
55.67,1,-0.069,0.026,-0.031,-0.061,0.045,-0.01,-1.543,0.039,0.124,54.72,94.0,40.500687,-3.374212,598.9,6,5,235.9,2.109
55.76,1,0.072,-0.033,0.026,0.005,0.003,0.004,-1.544,0.037,0.124,54.72,94.0,40.500687,-3.374212,598.9,6,5,235.9,2.109
55.86,1,0.007,0.027,0.008,0.022,0.002,0.003,-1.542,0.035,0.123,54.72,94.0,40.500687,-3.374212,598.9,6,5,235.9,2.109
55.96,1,0.034,0.073,0.042,0.017,0.047,0.028,-1.538,0.033,0.122,55.78,93.4,40.500553,-3.374466,598.8,4,5,235.9,1.055
56.06,1,0.021,0.055,0.017,0.032,0.052,0.025,-1.536,0.032,0.121,55.78,93.4,40.500553,-3.374466,598.8,4,5,235.9,1.055
56.16,1,-0.024,0.105,-0.011,0.005,0.068,0.006,-1.535,0.03,0.12,55.78,93.4,40.500553,-3.374466,598.8,4,5,235.9,1.055
56.27,1,-0.033,0.055,-0.004,-0.024,0.075,-0.003,-1.535,0.029,0.119,55.78,93.4,40.500553,-3.374466,598.8,4,5,235.9,1.055
56.37,1,-0.057,0.049,-0.005,-0.041,0.067,-0.002,-1.536,0.03,0.118,55.78,93.4,40.500553,-3.374466,598.8,4,5,235.9,1.055
56.46,1,-0.036,0.01,0.025,-0.046,0.037,0.005,-1.538,0.031,0.117,55.78,93.4,40.500553,-3.374466,598.8,4,5,235.9,1.055
56.56,1,-0.065,0.024,0.048,-0.045,0.021,0.032,-1.539,0.032,0.116,55.78,93.4,40.500553,-3.374466,598.8,4,5,235.9,1.055
56.67,1,-0.05,0.041,0.015,-0.051,0.024,0.026,-1.538,0.032,0.115,55.78,93.4,40.500553,-3.374466,598.8,4,5,235.9,1.055
56.77,1,-0.087,0.024,-0.029,-0.061,0.036,0.005,-1.535,0.028,0.114,55.78,93.4,40.500553,-3.374466,598.8,4,5,235.9,1.055
56.87,1,-0.034,-0.01,0.037,-0.058,0.016,0.006,-1.541,0.026,0.113,55.78,93.4,40.500553,-3.374466,598.8,4,5,235.9,1.055
56.97,1,-0.0,0.022,0.039,-0.028,0.012,0.028,-1.545,0.017,0.112,56.72,93.4,40.500423,-3.374719,598.2,4,5,235.9,0.0
57.07,1,-0.044,0.013,-0.007,-0.032,0.011,0.015,-1.545,0.016,0.11,56.72,93.4,40.500423,-3.374719,598.2,4,5,235.9,0.0
57.17,1,0.049,0.065,0.025,0.002,0.036,0.018,-1.546,0.017,0.11,56.72,93.4,40.500423,-3.374719,598.2,4,5,235.9,0.0
57.27,1,0.047,0.025,0.016,0.021,0.041,0.016,-1.545,0.017,0.108,56.72,93.4,40.500423,-3.374719,598.2,4,5,235.9,0.0
57.37,1,-0.008,-0.003,-0.022,0.025,0.013,-0.001,-1.544,0.017,0.107,56.72,93.4,40.500423,-3.374719,598.2,4,5,235.9,0.0
57.48,1,0.0,0.018,0.014,0.002,0.008,0.001,-1.546,0.02,0.105,56.72,93.4,40.500423,-3.374719,598.2,4,5,235.9,0.0
57.58,1,-0.001,-0.005,0.026,0.003,0.01,0.015,-1.548,0.013,0.103,56.72,93.4,40.500423,-3.374719,598.2,4,5,235.9,0.0
57.67,1,-0.017,0.017,0.064,-0.013,0.006,0.036,-1.548,0.012,0.102,56.72,93.4,40.500423,-3.374719,598.2,4,5,235.9,0.0
57.87,1,0.006,0.044,-0.012,0.006,0.047,0.006,-1.554,0.006,0.099,56.72,93.4,40.500423,-3.374719,598.2,4,5,235.9,0.0
57.97,1,0.042,0.032,0.002,0.012,0.042,-0.009,-1.555,0.006,0.098,56.72,93.4,40.500423,-3.374719,598.2,4,5,235.9,0.0
58.08,1,0.061,-0.016,-0.008,0.044,0.018,0.001,-1.554,0.007,0.097,57.71,93.5,40.500298,-3.374975,598.1,4,5,236.6,0.703
58.17,1,0.068,-0.058,0.018,0.071,-0.027,0.001,-1.554,0.007,0.096,57.71,93.5,40.500298,-3.374975,598.1,4,5,236.6,0.703
58.27,1,-0.079,0.015,0.03,-0.001,-0.02,0.016,-1.555,0.006,0.095,57.71,93.5,40.500298,-3.374975,598.1,4,5,236.6,0.703
58.37,1,-0.016,0.029,-0.0,-0.025,0.011,0.02,-1.556,0.001,0.094,57.71,93.5,40.500298,-3.374975,598.1,4,5,236.6,0.703
58.49,1,-0.004,0.022,-0.028,-0.006,0.018,-0.004,-1.562,-0.0,0.093,57.71,93.5,40.500298,-3.374975,598.1,4,5,236.6,0.703
58.57,1,-0.014,0.016,-0.015,-0.021,0.023,-0.018,-1.564,0.003,0.093,57.71,93.5,40.500298,-3.374975,598.1,4,5,236.6,0.703
58.68,1,0.007,-0.016,-0.001,0.001,0.001,-0.012,-1.565,0.006,0.091,57.71,93.5,40.500298,-3.374975,598.1,4,5,236.6,0.703
58.77,1,-0.033,0.033,0.015,-0.006,0.004,-0.003,-1.567,0.007,0.089,57.71,93.5,40.500298,-3.374975,598.1,4,5,236.6,0.703
58.87,1,-0.019,0.016,0.026,-0.013,0.018,0.022,-1.57,0.007,0.089,57.71,93.5,40.500298,-3.374975,598.1,4,5,236.6,0.703
58.97,1,-0.048,0.009,-0.018,-0.039,0.021,0.001,-1.572,0.007,0.088,57.71,93.5,40.500298,-3.374975,598.1,4,5,236.6,0.703
59.07,1,-0.021,-0.016,-0.004,-0.043,0.003,-0.004,-1.573,0.007,0.088,58.7,94.0,40.500164,-3.375235,598.1,4,5,237.3,1.406
59.17,1,-0.003,-0.02,0.018,-0.011,-0.013,0.006,-1.572,0.005,0.09,58.7,94.0,40.500164,-3.375235,598.1,4,5,237.3,1.406
59.28,1,-0.051,0.009,-0.013,-0.027,-0.002,0.001,-1.567,0.008,0.091,58.7,94.0,40.500164,-3.375235,598.1,4,5,237.3,1.406
59.37,1,0.006,-0.064,-0.007,-0.021,-0.023,-0.006,-1.567,0.013,0.092,58.7,94.0,40.500164,-3.375235,598.1,4,5,237.3,1.406
59.47,1,-0.001,-0.057,-0.007,-0.004,-0.05,-0.005,-1.57,0.02,0.093,58.7,94.0,40.500164,-3.375235,598.1,4,5,237.3,1.406
59.57,1,0.017,-0.04,0.018,0.002,-0.049,0.0,-1.57,0.023,0.094,58.7,94.0,40.500164,-3.375235,598.1,4,5,237.3,1.406
59.68,1,-0.022,-0.029,-0.025,-0.001,-0.04,0.001,-1.57,0.024,0.095,58.7,94.0,40.500164,-3.375235,598.1,4,5,237.3,1.406
59.77,1,0.075,0.004,0.044,0.016,-0.019,0.003,-1.568,0.026,0.095,58.7,94.0,40.500164,-3.375235,598.1,4,5,237.3,1.406
59.89,1,-0.005,0.002,-0.004,0.036,-0.007,0.015,-1.566,0.023,0.096,58.7,94.0,40.500164,-3.375235,598.1,4,5,237.3,1.406
59.99,1,-0.038,-0.018,0.002,-0.016,-0.006,0.004,-1.572,0.024,0.097,58.7,94.0,40.500164,-3.375235,598.1,4,5,237.3,1.406
60.08,1,0.032,-0.078,-0.01,0.01,-0.042,0.003,-1.574,0.024,0.097,59.69,90.9,40.500042,-3.375489,598.3,4,5,236.2,1.055
60.18,1,0.056,-0.052,-0.011,0.029,-0.053,-0.014,-1.578,0.031,0.098,59.69,90.9,40.500042,-3.375489,598.3,4,5,236.2,1.055
60.28,1,0.08,0.017,0.007,0.054,-0.025,-0.002,-1.578,0.031,0.1,59.69,90.9,40.500042,-3.375489,598.3,4,5,236.2,1.055
60.38,1,-0.011,-0.007,-0.04,0.036,-0.004,-0.011,-1.576,0.031,0.101,59.69,90.9,40.500042,-3.375489,598.3,4,5,236.2,1.055
60.48,1,-0.046,-0.048,-0.011,-0.008,-0.02,-0.019,-1.577,0.029,0.102,59.69,90.9,40.500042,-3.375489,598.3,4,5,236.2,1.055
60.58,1,-0.057,-0.061,-0.021,-0.044,-0.042,-0.019,-1.581,0.036,0.103,59.69,90.9,40.500042,-3.375489,598.3,4,5,236.2,1.055
60.68,1,-0.055,-0.045,-0.006,-0.048,-0.054,-0.015,-1.583,0.039,0.104,59.69,90.9,40.500042,-3.375489,598.3,4,5,236.2,1.055
60.78,1,-0.039,0.021,-0.025,-0.045,-0.025,-0.011,-1.582,0.041,0.106,59.69,90.9,40.500042,-3.375489,598.3,4,5,236.2,1.055
60.88,1,-0.012,-0.075,-0.003,-0.02,-0.03,-0.016,-1.581,0.045,0.107,59.69,90.9,40.500042,-3.375489,598.3,4,5,236.2,1.055
60.98,1,-0.035,-0.024,-0.026,-0.032,-0.043,-0.013,-1.58,0.047,0.108,59.69,90.9,40.500042,-3.375489,598.3,4,5,236.2,1.055
61.08,1,-0.021,-0.026,-0.042,-0.034,-0.025,-0.034,-1.578,0.048,0.11,60.71,96.9,40.499912,-3.37576,597.8,4,5,238.4,2.109
61.18,1,0.0,-0.008,-0.022,-0.022,-0.019,-0.033,-1.576,0.05,0.111,60.71,96.9,40.499912,-3.37576,597.8,4,5,238.4,2.109
61.29,1,-0.01,0.04,-0.033,-0.0,0.005,-0.022,-1.576,0.043,0.112,60.71,96.9,40.499912,-3.37576,597.8,4,5,238.4,2.109
61.38,1,-0.016,0.004,-0.048,-0.016,0.017,-0.042,-1.574,0.043,0.113,60.71,96.9,40.499912,-3.37576,597.8,4,5,238.4,2.109
61.48,1,0.126,-0.053,0.032,0.033,-0.012,-0.014,-1.575,0.044,0.115,60.71,96.9,40.499912,-3.37576,597.8,4,5,238.4,2.109
61.58,1,0.012,-0.07,-0.032,0.042,-0.045,-0.005,-1.574,0.046,0.116,60.71,96.9,40.499912,-3.37576,597.8,4,5,238.4,2.109
61.69,1,0.034,-0.044,-0.011,0.045,-0.055,-0.014,-1.572,0.049,0.118,60.71,96.9,40.499912,-3.37576,597.8,4,5,238.4,2.109
61.78,1,-0.073,-0.002,-0.011,-0.004,-0.033,-0.014,-1.573,0.049,0.12,60.71,96.9,40.499912,-3.37576,597.8,4,5,238.4,2.109
61.89,1,-0.054,-0.003,-0.015,-0.043,-0.01,-0.014,-1.573,0.049,0.121,60.71,96.9,40.499912,-3.37576,597.8,4,5,238.4,2.109
61.98,1,0.049,-0.021,0.009,-0.017,-0.01,-0.004,-1.577,0.05,0.123,60.71,96.9,40.499912,-3.37576,597.8,4,5,238.4,2.109
62.09,1,-0.018,-0.041,-0.054,-0.001,-0.023,-0.022,-1.575,0.051,0.124,61.71,95.7,40.49979,-3.376021,597.6,4,5,236.6,1.758
62.18,1,-0.035,-0.009,0.038,-0.024,-0.028,-0.013,-1.572,0.053,0.124,61.71,95.7,40.49979,-3.376021,597.6,4,5,236.6,1.758
62.28,1,-0.052,0.03,-0.054,-0.018,-0.003,-0.003,-1.573,0.05,0.126,61.71,95.7,40.49979,-3.376021,597.6,4,5,236.6,1.758
62.39,1,-0.054,0.027,-0.057,-0.035,0.014,-0.048,-1.567,0.05,0.126,61.71,95.7,40.49979,-3.376021,597.6,4,5,236.6,1.758
62.48,1,0.027,-0.011,0.013,-0.023,0.016,-0.023,-1.568,0.052,0.128,61.71,95.7,40.49979,-3.376021,597.6,4,5,236.6,1.758
62.59,1,0.005,-0.004,-0.03,-0.005,-0.003,-0.019,-1.567,0.051,0.128,61.71,95.7,40.49979,-3.376021,597.6,4,5,236.6,1.758
62.68,1,0.007,0.036,0.003,0.016,0.013,-0.004,-1.571,0.05,0.129,61.71,95.7,40.49979,-3.376021,597.6,4,5,236.6,1.758
62.79,1,-0.033,0.056,-0.033,-0.008,0.037,-0.017,-1.568,0.043,0.128,61.71,95.7,40.49979,-3.376021,597.6,4,5,236.6,1.758
62.9,1,0.006,0.024,-0.05,-0.03,0.039,-0.045,-1.566,0.04,0.127,61.71,95.7,40.49979,-3.376021,597.6,4,5,236.6,1.758
62.99,1,0.048,0.017,-0.022,0.01,0.021,-0.031,-1.567,0.039,0.126,61.71,95.7,40.49979,-3.376021,597.6,4,5,236.6,1.758
63.09,1,0.077,0.083,0.009,0.063,0.043,-0.009,-1.571,0.041,0.124,62.71,96.5,40.499653,-3.376287,598.6,4,5,235.9,2.461
63.19,1,-0.099,0.101,-0.054,-0.003,0.079,-0.026,-1.57,0.04,0.122,62.71,96.5,40.499653,-3.376287,598.6,4,5,235.9,2.461
63.3,1,0.026,0.029,0.005,-0.004,0.064,-0.017,-1.571,0.037,0.121,62.71,96.5,40.499653,-3.376287,598.6,4,5,235.9,2.461
63.39,1,-0.026,0.039,-0.058,-0.022,0.047,-0.034,-1.572,0.036,0.119,62.71,96.5,40.499653,-3.376287,598.6,4,5,235.9,2.461
63.49,1,0.053,0.031,0.019,0.018,0.034,-0.013,-1.575,0.035,0.117,62.71,96.5,40.499653,-3.376287,598.6,4,5,235.9,2.461
63.59,1,-0.061,0.06,-0.023,0.001,0.045,-0.008,-1.574,0.036,0.117,62.71,96.5,40.499653,-3.376287,598.6,4,5,235.9,2.461
63.69,1,-0.067,0.036,-0.027,-0.055,0.05,-0.025,-1.574,0.03,0.117,62.71,96.5,40.499653,-3.376287,598.6,4,5,235.9,2.461
63.79,1,0.06,-0.015,-0.018,-0.005,0.015,-0.019,-1.568,0.024,0.116,62.71,96.5,40.499653,-3.376287,598.6,4,5,235.9,2.461
63.89,1,-0.025,0.008,-0.062,0.006,0.018,-0.034,-1.562,0.021,0.116,62.71,96.5,40.499653,-3.376287,598.6,4,5,235.9,2.461
63.99,1,-0.024,0.023,0.004,-0.022,0.012,-0.029,-1.563,0.02,0.115,62.71,96.5,40.499653,-3.376287,598.6,4,5,235.9,2.461
64.09,1,-0.066,0.016,-0.013,-0.043,0.013,-0.012,-1.564,0.02,0.114,63.72,96.8,40.499516,-3.376555,597.9,4,5,235.2,1.406
64.19,1,0.097,0.019,0.016,0.013,0.013,0.006,-1.562,0.017,0.113,63.72,96.8,40.499516,-3.376555,597.9,4,5,235.2,1.406
64.29,1,0.007,0.054,-0.052,0.029,0.034,-0.025,-1.557,0.013,0.112,63.72,96.8,40.499516,-3.376555,597.9,4,5,235.2,1.406
64.39,1,-0.13,0.016,-0.008,-0.053,0.037,-0.027,-1.554,0.012,0.111,63.72,96.8,40.499516,-3.376555,597.9,4,5,235.2,1.406
64.5,1,-0.027,0.024,0.01,-0.056,0.015,-0.004,-1.556,0.004,0.111,63.72,96.8,40.499516,-3.376555,597.9,4,5,235.2,1.406
64.59,1,-0.018,0.026,-0.029,-0.029,0.034,-0.004,-1.554,0.002,0.11,63.72,96.8,40.499516,-3.376555,597.9,4,5,235.2,1.406
64.7,1,0.097,-0.012,-0.017,0.024,0.007,-0.024,-1.553,0.004,0.11,63.72,96.8,40.499516,-3.376555,597.9,4,5,235.2,1.406
64.79,1,0.067,-0.015,0.018,0.064,-0.007,0.001,-1.554,0.005,0.109,63.72,96.8,40.499516,-3.376555,597.9,4,5,235.2,1.406
64.9,1,-0.063,-0.014,-0.024,0.011,-0.008,-0.005,-1.551,0.006,0.109,63.72,96.8,40.499516,-3.376555,597.9,4,5,235.2,1.406
65.0,1,-0.061,0.009,-0.006,-0.035,-0.005,-0.01,-1.549,0.005,0.108,63.72,96.8,40.499516,-3.376555,597.9,4,5,235.2,1.406
65.1,1,0.033,0.008,-0.007,-0.015,0.012,-0.013,-1.548,0.007,0.109,64.72,96.9,40.499371,-3.376814,597.0,4,5,235.9,0.703
65.2,1,0.016,-0.046,-0.018,0.016,-0.017,-0.013,-1.55,0.01,0.109,64.72,96.9,40.499371,-3.376814,597.0,4,5,235.9,0.703
65.3,1,-0.05,-0.039,0.013,-0.018,-0.037,-0.008,-1.55,0.011,0.11,64.72,96.9,40.499371,-3.376814,597.0,4,5,235.9,0.703
65.39,1,-0.057,-0.056,-0.025,-0.043,-0.047,-0.0,-1.547,0.011,0.111,64.72,96.9,40.499371,-3.376814,597.0,4,5,235.9,0.703
65.49,1,-0.064,-0.027,-0.031,-0.049,-0.04,-0.023,-1.545,0.017,0.112,64.72,96.9,40.499371,-3.376814,597.0,4,5,235.9,0.703
65.59,1,0.022,-0.014,-0.019,-0.031,-0.026,-0.026,-1.548,0.021,0.113,64.72,96.9,40.499371,-3.376814,597.0,4,5,235.9,0.703
65.7,1,-0.06,-0.006,-0.004,-0.027,-0.011,-0.011,-1.55,0.022,0.113,64.72,96.9,40.499371,-3.376814,597.0,4,5,235.9,0.703
65.8,1,-0.03,-0.017,0.004,-0.033,-0.018,-0.003,-1.55,0.028,0.114,64.72,96.9,40.499371,-3.376814,597.0,4,5,235.9,0.703
65.9,1,0.048,-0.006,0.028,-0.006,-0.013,0.009,-1.549,0.033,0.115,64.72,96.9,40.499371,-3.376814,597.0,4,5,235.9,0.703
66.0,1,0.007,0.023,-0.055,0.012,0.002,-0.015,-1.545,0.031,0.115,64.72,96.9,40.499371,-3.376814,597.0,4,5,235.9,0.703
66.1,1,0.03,0.033,0.01,0.029,0.025,-0.008,-1.547,0.036,0.115,65.71,97.6,40.499233,-3.377081,597.0,4,5,236.2,1.055
66.2,1,-0.027,0.056,0.004,-0.003,0.039,-0.005,-1.547,0.045,0.115,65.71,97.6,40.499233,-3.377081,597.0,4,5,236.2,1.055
66.3,1,-0.045,0.075,-0.022,-0.024,0.047,-0.005,-1.548,0.039,0.114,65.71,97.6,40.499233,-3.377081,597.0,4,5,236.2,1.055
66.4,1,-0.072,0.109,-0.033,-0.044,0.088,-0.015,-1.548,0.037,0.112,65.71,97.6,40.499233,-3.377081,597.0,4,5,236.2,1.055
66.5,1,-0.059,0.094,-0.035,-0.064,0.099,-0.039,-1.548,0.038,0.11,65.71,97.6,40.499233,-3.377081,597.0,4,5,236.2,1.055
66.6,1,-0.026,0.034,-0.01,-0.043,0.063,-0.021,-1.548,0.038,0.109,65.71,97.6,40.499233,-3.377081,597.0,4,5,236.2,1.055
66.7,1,-0.082,0.042,-0.018,-0.052,0.051,-0.015,-1.546,0.035,0.107,65.71,97.6,40.499233,-3.377081,597.0,4,5,236.2,1.055
66.8,1,0.012,0.037,-0.021,-0.026,0.035,-0.015,-1.545,0.037,0.106,65.71,97.6,40.499233,-3.377081,597.0,4,5,236.2,1.055
66.9,1,-0.002,0.03,0.006,-0.003,0.043,-0.011,-1.548,0.036,0.105,65.71,97.6,40.499233,-3.377081,597.0,4,5,236.2,1.055
67.0,1,-0.059,0.007,-0.029,-0.042,0.024,-0.019,-1.549,0.025,0.104,65.71,97.6,40.499233,-3.377081,597.0,4,5,236.2,1.055
67.11,1,-0.034,0.002,-0.006,-0.037,0.011,-0.009,-1.549,0.024,0.102,66.73,96.6,40.499096,-3.377344,597.0,4,5,235.9,0.352
67.21,1,-0.016,0.038,0.015,-0.033,0.014,-0.003,-1.547,0.022,0.101,66.73,96.6,40.499096,-3.377344,597.0,4,5,235.9,0.352
67.3,1,0.057,0.079,-0.038,0.006,0.049,-0.012,-1.541,0.019,0.1,66.73,96.6,40.499096,-3.377344,597.0,4,5,235.9,0.352
67.4,1,0.033,0.071,-0.018,0.027,0.063,-0.022,-1.537,0.011,0.098,66.73,96.6,40.499096,-3.377344,597.0,4,5,235.9,0.352
67.5,1,-0.087,0.012,-0.034,-0.02,0.05,-0.029,-1.539,0.009,0.096,66.73,96.6,40.499096,-3.377344,597.0,4,5,235.9,0.352
67.6,1,-0.054,0.012,0.046,-0.034,0.024,0.003,-1.544,0.013,0.094,66.73,96.6,40.499096,-3.377344,597.0,4,5,235.9,0.352
67.7,1,-0.109,0.049,-0.019,-0.083,0.029,0.005,-1.544,0.012,0.093,66.73,96.6,40.499096,-3.377344,597.0,4,5,235.9,0.352
67.9,1,0.094,0.044,0.002,0.04,0.03,-0.001,-1.536,0.003,0.092,66.73,96.6,40.499096,-3.377344,597.0,4,5,235.9,0.352
68.0,1,0.002,0.006,-0.019,0.038,0.015,-0.011,-1.537,0.005,0.092,66.73,96.6,40.499096,-3.377344,597.0,4,5,235.9,0.352
68.11,1,-0.005,-0.009,0.005,0.006,0.007,-0.002,-1.539,0.012,0.092,66.73,96.6,40.499096,-3.377344,597.0,4,5,235.9,0.352
68.21,1,-0.097,-0.02,-0.028,-0.015,-0.011,-0.004,-1.538,0.014,0.093,67.72,96.7,40.49897,-3.377607,597.4,4,5,237.3,1.406
68.31,1,-0.01,-0.031,-0.032,-0.049,-0.021,-0.032,-1.538,0.015,0.093,67.72,96.7,40.49897,-3.377607,597.4,4,5,237.3,1.406
68.4,1,0.007,-0.037,-0.007,-0.004,-0.027,-0.017,-1.539,0.016,0.094,67.72,96.7,40.49897,-3.377607,597.4,4,5,237.3,1.406
68.5,1,-0.065,-0.009,-0.026,-0.041,-0.025,-0.023,-1.544,0.019,0.094,67.72,96.7,40.49897,-3.377607,597.4,4,5,237.3,1.406
68.61,1,-0.028,-0.036,0.031,-0.045,-0.025,-0.004,-1.547,0.018,0.094,67.72,96.7,40.49897,-3.377607,597.4,4,5,237.3,1.406
68.7,1,-0.065,0.006,-0.052,-0.041,-0.021,-0.006,-1.545,0.019,0.094,67.72,96.7,40.49897,-3.377607,597.4,4,5,237.3,1.406
68.81,1,-0.025,-0.015,-0.047,-0.037,-0.011,-0.046,-1.545,0.017,0.095,67.72,96.7,40.49897,-3.377607,597.4,4,5,237.3,1.406
68.91,1,-0.007,-0.005,-0.018,-0.025,-0.0,-0.025,-1.547,0.02,0.095,67.72,96.7,40.49897,-3.377607,597.4,4,5,237.3,1.406
69.01,1,-0.018,-0.052,0.0,-0.023,-0.024,-0.014,-1.548,0.023,0.096,67.72,96.7,40.49897,-3.377607,597.4,4,5,237.3,1.406
69.11,1,-0.071,-0.025,-0.049,-0.034,-0.036,-0.022,-1.549,0.026,0.097,67.72,96.7,40.49897,-3.377607,597.4,4,5,237.3,1.406
69.21,1,0.046,-0.064,0.006,-0.014,-0.043,-0.023,-1.549,0.023,0.097,68.73,95.9,40.498852,-3.377865,596.6,4,5,237.3,1.406
69.31,1,0.031,-0.051,-0.015,0.019,-0.054,-0.01,-1.549,0.025,0.097,68.73,95.9,40.498852,-3.377865,596.6,4,5,237.3,1.406
69.41,1,0.003,0.019,-0.012,0.007,-0.025,-0.015,-1.549,0.028,0.098,68.73,95.9,40.498852,-3.377865,596.6,4,5,237.3,1.406
69.52,1,-0.061,0.006,-0.01,-0.015,0.006,-0.01,-1.549,0.037,0.099,68.73,95.9,40.498852,-3.377865,596.6,4,5,237.3,1.406
69.62,1,0.002,0.019,-0.004,-0.017,0.014,-0.002,-1.547,0.041,0.1,68.73,95.9,40.498852,-3.377865,596.6,4,5,237.3,1.406
69.71,1,0.047,-0.053,-0.032,0.016,-0.019,-0.018,-1.546,0.042,0.101,68.73,95.9,40.498852,-3.377865,596.6,4,5,237.3,1.406
69.81,1,-0.034,-0.01,-0.034,0.005,-0.014,-0.03,-1.545,0.042,0.103,68.73,95.9,40.498852,-3.377865,596.6,4,5,237.3,1.406
69.91,1,0.047,0.037,0.003,0.008,-0.003,-0.016,-1.546,0.043,0.104,68.73,95.9,40.498852,-3.377865,596.6,4,5,237.3,1.406
70.01,1,0.022,0.002,-0.004,0.017,0.014,-0.008,-1.546,0.044,0.105,68.73,95.9,40.498852,-3.377865,596.6,4,5,237.3,1.406
70.11,1,-0.009,-0.042,-0.032,0.012,-0.011,-0.013,-1.545,0.045,0.107,68.73,95.9,40.498852,-3.377865,596.6,4,5,237.3,1.406
70.21,1,-0.012,-0.031,-0.018,-0.003,-0.021,-0.024,-1.545,0.045,0.109,69.74,96.6,40.49873,-3.378117,596.7,4,5,236.2,1.055
70.31,1,-0.005,-0.086,0.008,-0.002,-0.051,-0.006,-1.546,0.045,0.111,69.74,96.6,40.49873,-3.378117,596.7,4,5,236.2,1.055
70.41,1,-0.03,-0.068,-0.022,-0.021,-0.073,-0.012,-1.545,0.044,0.113,69.74,96.6,40.49873,-3.378117,596.7,4,5,236.2,1.055
70.51,1,-0.027,0.011,-0.032,-0.021,-0.033,-0.022,-1.544,0.044,0.115,69.74,96.6,40.49873,-3.378117,596.7,4,5,236.2,1.055
70.62,1,0.045,-0.003,-0.02,0.002,-0.013,-0.023,-1.544,0.044,0.118,69.74,96.6,40.49873,-3.378117,596.7,4,5,236.2,1.055
70.72,1,0.029,-0.047,-0.027,0.022,-0.022,-0.03,-1.544,0.045,0.12,69.74,96.6,40.49873,-3.378117,596.7,4,5,236.2,1.055
70.82,1,0.037,-0.049,-0.027,0.041,-0.036,-0.021,-1.544,0.045,0.123,69.74,96.6,40.49873,-3.378117,596.7,4,5,236.2,1.055
70.91,1,0.0,-0.076,-0.005,0.025,-0.064,-0.017,-1.549,0.052,0.124,69.74,96.6,40.49873,-3.378117,596.7,4,5,236.2,1.055
71.01,1,-0.072,-0.045,-0.043,-0.026,-0.056,-0.025,-1.551,0.057,0.126,69.74,96.6,40.49873,-3.378117,596.7,4,5,236.2,1.055
71.11,1,0.052,-0.0,-0.017,-0.007,-0.029,-0.024,-1.552,0.057,0.127,69.74,96.6,40.49873,-3.378117,596.7,4,5,236.2,1.055
71.22,1,-0.005,0.027,-0.027,0.008,-0.004,-0.027,-1.546,0.056,0.128,70.72,95.1,40.4986,-3.378374,596.6,6,5,237.0,0.703
71.31,1,-0.047,0.012,-0.018,-0.021,0.011,-0.026,-1.54,0.045,0.128,70.72,95.1,40.4986,-3.378374,596.6,6,5,237.0,0.703
71.42,1,-0.036,0.027,0.007,-0.039,0.016,-0.011,-1.54,0.041,0.128,70.72,95.1,40.4986,-3.378374,596.6,6,5,237.0,0.703
71.51,1,-0.107,0.035,-0.016,-0.062,0.025,-0.006,-1.538,0.039,0.127,70.72,95.1,40.4986,-3.378374,596.6,6,5,237.0,0.703
71.62,1,0.016,0.005,0.005,-0.039,0.021,-0.004,-1.535,0.036,0.127,70.72,95.1,40.4986,-3.378374,596.6,6,5,237.0,0.703
71.71,1,0.016,0.009,-0.026,-0.017,0.008,-0.02,-1.531,0.034,0.127,70.72,95.1,40.4986,-3.378374,596.6,6,5,237.0,0.703
71.82,1,0.019,0.036,-0.0,0.017,0.021,-0.002,-1.532,0.03,0.127,70.72,95.1,40.4986,-3.378374,596.6,6,5,237.0,0.703
71.93,1,0.05,0.057,0.024,0.031,0.037,0.005,-1.533,0.025,0.126,70.72,95.1,40.4986,-3.378374,596.6,6,5,237.0,0.703
72.03,1,-0.028,0.032,-0.019,0.011,0.047,0.002,-1.535,0.019,0.126,70.72,95.1,40.4986,-3.378374,596.6,6,5,237.0,0.703
72.12,1,-0.002,0.028,0.02,-0.007,0.033,-0.004,-1.537,0.021,0.126,70.72,95.1,40.4986,-3.378374,596.6,6,5,237.0,0.703
72.22,1,-0.028,-0.008,-0.031,-0.004,0.018,0.003,-1.539,0.021,0.125,71.7,94.5,40.498459,-3.378641,596.3,6,5,235.5,1.406
72.32,1,-0.04,-0.01,-0.024,-0.037,-0.002,-0.024,-1.536,0.019,0.125,71.7,94.5,40.498459,-3.378641,596.3,6,5,235.5,1.406
72.42,1,0.004,-0.03,0.014,-0.02,-0.012,-0.007,-1.534,0.023,0.123,71.7,94.5,40.498459,-3.378641,596.3,6,5,235.5,1.406
72.52,1,0.001,0.011,-0.011,-0.003,-0.013,-0.004,-1.533,0.024,0.123,71.7,94.5,40.498459,-3.378641,596.3,6,5,235.5,1.406
72.62,1,-0.012,0.048,0.002,-0.001,0.017,0.001,-1.533,0.023,0.122,71.7,94.5,40.498459,-3.378641,596.3,6,5,235.5,1.406
72.72,1,-0.004,0.039,-0.016,-0.015,0.033,-0.014,-1.534,0.023,0.122,71.7,94.5,40.498459,-3.378641,596.3,6,5,235.5,1.406
72.82,1,0.069,0.063,0.028,0.035,0.05,0.012,-1.535,0.022,0.122,71.7,94.5,40.498459,-3.378641,596.3,6,5,235.5,1.406
72.92,1,0.054,0.083,0.01,0.045,0.066,0.008,-1.531,0.019,0.12,71.7,94.5,40.498459,-3.378641,596.3,6,5,235.5,1.406
73.02,1,-0.04,0.061,-0.02,0.009,0.071,-0.003,-1.528,0.025,0.12,71.7,94.5,40.498459,-3.378641,596.3,6,5,235.5,1.406
73.12,1,0.02,-0.013,0.026,0.01,0.029,0.009,-1.529,0.026,0.119,71.7,94.5,40.498459,-3.378641,596.3,6,5,235.5,1.406
73.22,1,-0.088,-0.038,-0.013,-0.033,-0.011,-0.0,-1.528,0.027,0.118,72.72,93.8,40.498322,-3.378896,596.3,6,5,235.2,1.758
73.32,1,-0.074,-0.029,0.022,-0.053,-0.019,0.014,-1.528,0.027,0.118,72.72,93.8,40.498322,-3.378896,596.3,6,5,235.2,1.758
73.42,1,-0.056,-0.002,-0.031,-0.064,-0.013,-0.01,-1.526,0.022,0.117,72.72,93.8,40.498322,-3.378896,596.3,6,5,235.2,1.758
73.52,1,-0.017,0.008,0.004,-0.04,-0.002,-0.009,-1.527,0.017,0.116,72.72,93.8,40.498322,-3.378896,596.3,6,5,235.2,1.758
73.62,1,0.005,0.049,-0.001,-0.025,0.019,-0.001,-1.529,0.019,0.116,72.72,93.8,40.498322,-3.378896,596.3,6,5,235.2,1.758
73.73,1,0.027,0.056,0.019,0.006,0.044,0.008,-1.532,0.017,0.115,72.72,93.8,40.498322,-3.378896,596.3,6,5,235.2,1.758
73.82,1,-0.003,0.013,-0.009,-0.0,0.029,0.001,-1.531,0.019,0.114,72.72,93.8,40.498322,-3.378896,596.3,6,5,235.2,1.758
73.92,1,0.043,0.003,0.026,0.028,0.025,0.015,-1.529,0.02,0.113,72.72,93.8,40.498322,-3.378896,596.3,6,5,235.2,1.758
74.02,1,-0.01,0.029,-0.026,0.013,0.003,0.0,-1.528,0.024,0.113,72.72,93.8,40.498322,-3.378896,596.3,6,5,235.2,1.758
74.12,1,-0.107,0.037,-0.024,-0.044,0.027,-0.02,-1.529,0.025,0.112,72.72,93.8,40.498322,-3.378896,596.3,6,5,235.2,1.758
74.22,1,-0.007,0.001,0.013,-0.042,0.026,-0.002,-1.531,0.025,0.112,73.72,93.3,40.498192,-3.37915,596.3,4,5,235.9,0.703
74.33,1,0.018,0.049,0.014,-0.013,0.024,0.004,-1.533,0.024,0.111,73.72,93.3,40.498192,-3.37915,596.3,4,5,235.9,0.703
74.43,1,-0.001,0.04,-0.035,0.002,0.039,-0.007,-1.532,0.021,0.11,73.72,93.3,40.498192,-3.37915,596.3,4,5,235.9,0.703
74.52,1,0.037,0.057,-0.018,0.024,0.051,-0.021,-1.528,0.02,0.11,73.72,93.3,40.498192,-3.37915,596.3,4,5,235.9,0.703
74.63,1,0.026,0.048,-0.009,0.019,0.046,-0.019,-1.527,0.025,0.109,73.72,93.3,40.498192,-3.37915,596.3,4,5,235.9,0.703
74.72,1,0.054,0.043,0.003,0.044,0.045,-0.004,-1.526,0.024,0.108,73.72,93.3,40.498192,-3.37915,596.3,4,5,235.9,0.703
74.83,1,0.022,0.045,0.019,0.043,0.047,0.007,-1.524,0.026,0.108,73.72,93.3,40.498192,-3.37915,596.3,4,5,235.9,0.703
74.93,1,0.001,0.017,0.024,0.018,0.042,0.019,-1.523,0.027,0.108,73.72,93.3,40.498192,-3.37915,596.3,4,5,235.9,0.703
75.03,1,-0.002,0.006,0.019,-0.002,0.014,0.015,-1.522,0.032,0.108,73.72,93.3,40.498192,-3.37915,596.3,4,5,235.9,0.703
75.13,1,-0.042,-0.013,-0.003,-0.019,0.002,0.014,-1.522,0.033,0.108,73.72,93.3,40.498192,-3.37915,596.3,4,5,235.9,0.703
75.23,1,-0.03,-0.05,0.025,-0.029,-0.028,0.011,-1.52,0.03,0.108,74.69,92.3,40.498062,-3.379403,596.1,4,5,235.9,0.703
75.33,1,-0.023,-0.021,-0.007,-0.031,-0.026,0.002,-1.521,0.03,0.109,74.69,92.3,40.498062,-3.379403,596.1,4,5,235.9,0.703
75.43,1,-0.057,-0.033,0.003,-0.035,-0.028,0.01,-1.52,0.03,0.111,74.69,92.3,40.498062,-3.379403,596.1,4,5,235.9,0.703
75.54,1,-0.051,-0.044,-0.032,-0.049,-0.031,-0.012,-1.521,0.026,0.112,74.69,92.3,40.498062,-3.379403,596.1,4,5,235.9,0.703
75.64,1,-0.022,-0.095,-0.009,-0.037,-0.061,-0.018,-1.525,0.023,0.112,74.69,92.3,40.498062,-3.379403,596.1,4,5,235.9,0.703
75.73,1,-0.061,-0.031,-0.011,-0.034,-0.058,-0.009,-1.526,0.023,0.113,74.69,92.3,40.498062,-3.379403,596.1,4,5,235.9,0.703
75.83,1,-0.074,-0.015,-0.017,-0.064,-0.035,-0.015,-1.527,0.022,0.114,74.69,92.3,40.498062,-3.379403,596.1,4,5,235.9,0.703
75.93,1,-0.042,-0.059,0.01,-0.057,-0.038,-0.008,-1.526,0.023,0.114,74.69,92.3,40.498062,-3.379403,596.1,4,5,235.9,0.703
76.03,1,-0.018,-0.092,-0.008,-0.036,-0.074,0.001,-1.526,0.022,0.114,74.69,92.3,40.498062,-3.379403,596.1,4,5,235.9,0.703
76.13,1,-0.046,0.003,0.003,-0.035,-0.035,-0.003,-1.527,0.021,0.113,74.69,92.3,40.498062,-3.379403,596.1,4,5,235.9,0.703
76.24,1,-0.021,0.005,0.018,-0.041,-0.021,0.005,-1.527,0.02,0.112,75.71,91.7,40.497932,-3.379646,596.2,4,5,236.6,0.703
76.33,1,-0.033,0.022,-0.003,-0.022,0.011,0.011,-1.527,0.021,0.11,75.71,91.7,40.497932,-3.379646,596.2,4,5,236.6,0.703
76.43,1,-0.047,0.064,-0.02,-0.038,0.026,-0.009,-1.527,0.021,0.109,75.71,91.7,40.497932,-3.379646,596.2,4,5,236.6,0.703
76.53,1,0.062,0.069,0.043,-0.0,0.062,0.008,-1.528,0.021,0.106,75.71,91.7,40.497932,-3.379646,596.2,4,5,236.6,0.703
76.63,1,0.026,0.076,0.013,0.018,0.06,0.019,-1.528,0.02,0.104,75.71,91.7,40.497932,-3.379646,596.2,4,5,236.6,0.703
76.73,1,-0.011,0.08,-0.022,0.016,0.074,0.006,-1.527,0.004,0.102,75.71,91.7,40.497932,-3.379646,596.2,4,5,236.6,0.703
76.84,1,0.036,0.039,0.02,0.014,0.063,0.002,-1.526,-0.001,0.099,75.71,91.7,40.497932,-3.379646,596.2,4,5,236.6,0.703
76.93,1,-0.068,0.019,0.008,-0.023,0.041,0.003,-1.526,-0.001,0.097,75.71,91.7,40.497932,-3.379646,596.2,4,5,236.6,0.703
77.03,1,-0.08,0.024,0.029,-0.038,0.029,0.027,-1.525,-0.004,0.095,75.71,91.7,40.497932,-3.379646,596.2,4,5,236.6,0.703
77.13,1,-0.06,-0.007,0.025,-0.071,0.018,0.018,-1.526,-0.02,0.093,75.71,91.7,40.497932,-3.379646,596.2,4,5,236.6,0.703
77.23,1,-0.035,-0.002,0.065,-0.041,0.005,0.035,-1.53,-0.027,0.091,76.77,91.2,40.497803,-3.379896,595.8,4,5,235.9,0.703
77.33,1,-0.065,0.01,0.012,-0.05,0.0,0.039,-1.529,-0.027,0.09,76.77,91.2,40.497803,-3.379896,595.8,4,5,235.9,0.703
77.43,1,-0.046,-0.054,0.024,-0.062,-0.02,0.018,-1.526,-0.027,0.088,76.77,91.2,40.497803,-3.379896,595.8,4,5,235.9,0.703
77.53,1,-0.048,-0.039,0.054,-0.042,-0.034,0.043,-1.529,-0.027,0.087,76.77,91.2,40.497803,-3.379896,595.8,4,5,235.9,0.703
77.63,1,-0.031,-0.05,0.036,-0.042,-0.042,0.039,-1.529,-0.026,0.086,76.77,91.2,40.497803,-3.379896,595.8,4,5,235.9,0.703
77.73,1,-0.024,-0.076,0.02,-0.036,-0.059,0.032,-1.528,-0.021,0.085,76.77,91.2,40.497803,-3.379896,595.8,4,5,235.9,0.703
77.93,1,-0.028,-0.116,0.039,-0.027,-0.083,0.02,-1.528,-0.013,0.086,76.77,91.2,40.497803,-3.379896,595.8,4,5,235.9,0.703
78.04,1,-0.003,-0.017,0.024,-0.026,-0.071,0.022,-1.528,-0.013,0.085,76.77,91.2,40.497803,-3.379896,595.8,4,5,235.9,0.703
78.13,1,-0.033,-0.045,-0.009,-0.019,-0.042,0.013,-1.526,-0.013,0.085,76.77,91.2,40.497803,-3.379896,595.8,4,5,235.9,0.703
78.24,1,-0.032,-0.088,-0.004,-0.026,-0.062,0.002,-1.526,-0.012,0.084,76.77,91.2,40.497803,-3.379896,595.8,4,5,235.9,0.703
78.34,1,-0.053,-0.128,0.024,-0.04,-0.094,0.007,-1.528,-0.011,0.084,77.74,90.2,40.497673,-3.380141,595.5,4,5,236.2,0.352
78.45,1,-0.039,-0.077,0.032,-0.037,-0.095,0.023,-1.528,-0.011,0.084,77.74,90.2,40.497673,-3.380141,595.5,4,5,236.2,0.352
78.54,1,-0.015,0.01,0.014,-0.041,-0.051,0.016,-1.528,-0.011,0.084,77.74,90.2,40.497673,-3.380141,595.5,4,5,236.2,0.352
78.64,1,0.006,-0.049,0.04,-0.006,-0.033,0.029,-1.528,-0.012,0.085,77.74,90.2,40.497673,-3.380141,595.5,4,5,236.2,0.352
78.74,1,-0.017,-0.102,-0.013,-0.017,-0.069,0.009,-1.528,-0.02,0.086,77.74,90.2,40.497673,-3.380141,595.5,4,5,236.2,0.352
78.84,1,-0.008,-0.098,0.035,-0.011,-0.089,0.017,-1.528,-0.019,0.086,77.74,90.2,40.497673,-3.380141,595.5,4,5,236.2,0.352
78.94,1,0.024,-0.013,0.023,0.015,-0.056,0.03,-1.528,-0.017,0.087,77.74,90.2,40.497673,-3.380141,595.5,4,5,236.2,0.352
79.04,1,-0.021,-0.052,-0.003,-0.012,-0.05,0.005,-1.526,-0.012,0.087,77.74,90.2,40.497673,-3.380141,595.5,4,5,236.2,0.352
79.14,1,0.014,-0.045,0.039,0.003,-0.048,0.026,-1.527,-0.014,0.088,77.74,90.2,40.497673,-3.380141,595.5,4,5,236.2,0.352
79.24,1,0.032,-0.049,0.021,0.019,-0.053,0.027,-1.525,-0.014,0.088,77.74,90.2,40.497673,-3.380141,595.5,4,5,236.2,0.352
79.34,1,0.037,-0.079,0.037,0.014,-0.057,0.022,-1.525,-0.013,0.088,78.69,90.4,40.497551,-3.380389,595.2,4,5,237.3,1.406
79.44,1,0.023,-0.017,0.018,0.044,-0.042,0.03,-1.525,-0.012,0.089,78.69,90.4,40.497551,-3.380389,595.2,4,5,237.3,1.406
79.54,1,-0.022,-0.035,0.035,0.004,-0.031,0.026,-1.527,-0.003,0.09,78.69,90.4,40.497551,-3.380389,595.2,4,5,237.3,1.406
79.65,1,-0.013,-0.063,-0.016,-0.01,-0.049,0.01,-1.526,0.01,0.091,78.69,90.4,40.497551,-3.380389,595.2,4,5,237.3,1.406
79.75,1,0.003,-0.055,0.004,0.014,-0.05,0.006,-1.526,0.012,0.093,78.69,90.4,40.497551,-3.380389,595.2,4,5,237.3,1.406
79.84,1,-0.074,-0.071,-0.009,-0.04,-0.064,-0.002,-1.528,0.013,0.095,78.69,90.4,40.497551,-3.380389,595.2,4,5,237.3,1.406
79.94,1,-0.038,-0.056,-0.009,-0.053,-0.066,-0.01,-1.533,0.019,0.096,78.69,90.4,40.497551,-3.380389,595.2,4,5,237.3,1.406
80.04,1,-0.072,-0.127,0.026,-0.051,-0.088,0.005,-1.537,0.024,0.098,78.69,90.4,40.497551,-3.380389,595.2,4,5,237.3,1.406
80.14,1,-0.06,-0.103,-0.024,-0.069,-0.102,-0.003,-1.537,0.024,0.099,78.69,90.4,40.497551,-3.380389,595.2,4,5,237.3,1.406
80.24,1,-0.031,-0.067,0.018,-0.028,-0.084,0.011,-1.537,0.024,0.101,78.69,90.4,40.497551,-3.380389,595.2,4,5,237.3,1.406
80.34,1,-0.078,-0.077,0.002,-0.061,-0.071,-0.005,-1.537,0.024,0.102,79.74,90.0,40.497425,-3.380639,595.0,4,5,237.3,1.055
80.45,1,-0.031,-0.084,0.032,-0.051,-0.074,0.016,-1.537,0.019,0.103,79.74,90.0,40.497425,-3.380639,595.0,4,5,237.3,1.055
80.54,1,-0.07,-0.059,0.003,-0.05,-0.077,0.016,-1.537,0.016,0.104,79.74,90.0,40.497425,-3.380639,595.0,4,5,237.3,1.055
80.64,1,-0.044,-0.085,0.041,-0.062,-0.078,0.02,-1.538,0.016,0.105,79.74,90.0,40.497425,-3.380639,595.0,4,5,237.3,1.055
80.75,1,-0.055,-0.08,0.029,-0.043,-0.08,0.035,-1.537,0.017,0.106,79.74,90.0,40.497425,-3.380639,595.0,4,5,237.3,1.055
80.85,1,-0.083,-0.083,-0.019,-0.078,-0.083,0.008,-1.535,0.018,0.108,79.74,90.0,40.497425,-3.380639,595.0,4,5,237.3,1.055
80.95,1,0.006,-0.079,0.04,-0.039,-0.081,0.019,-1.536,0.018,0.109,79.74,90.0,40.497425,-3.380639,595.0,4,5,237.3,1.055
81.05,1,-0.023,-0.041,0.024,-0.02,-0.078,0.026,-1.537,0.018,0.111,79.74,90.0,40.497425,-3.380639,595.0,4,5,237.3,1.055
81.15,1,-0.094,-0.107,0.038,-0.058,-0.071,0.025,-1.538,0.018,0.112,79.74,90.0,40.497425,-3.380639,595.0,4,5,237.3,1.055
81.25,1,-0.042,-0.075,0.053,-0.054,-0.077,0.047,-1.538,0.018,0.114,79.74,90.0,40.497425,-3.380639,595.0,4,5,237.3,1.055
81.35,1,0.012,0.024,0.025,-0.028,-0.041,0.034,-1.537,0.018,0.116,80.69,89.9,40.497307,-3.380889,594.8,4,5,237.3,0.0
81.45,1,0.084,0.012,0.038,0.019,-0.001,0.031,-1.536,0.019,0.117,80.69,89.9,40.497307,-3.380889,594.8,4,5,237.3,0.0
81.55,1,0.025,0.002,0.03,0.051,-0.0,0.04,-1.536,0.019,0.118,80.69,89.9,40.497307,-3.380889,594.8,4,5,237.3,0.0
81.66,1,0.002,-0.001,0.035,0.02,0.003,0.033,-1.536,0.019,0.12,80.69,89.9,40.497307,-3.380889,594.8,4,5,237.3,0.0
81.75,1,-0.03,-0.073,0.009,-0.0,-0.033,0.024,-1.537,0.019,0.121,80.69,89.9,40.497307,-3.380889,594.8,4,5,237.3,0.0
81.85,1,-0.001,-0.037,0.046,-0.013,-0.036,0.025,-1.539,0.019,0.122,80.69,89.9,40.497307,-3.380889,594.8,4,5,237.3,0.0
81.95,1,-0.022,-0.067,0.023,-0.011,-0.053,0.037,-1.538,0.019,0.122,80.69,89.9,40.497307,-3.380889,594.8,4,5,237.3,0.0
82.06,1,-0.018,-0.025,0.046,-0.016,-0.041,0.033,-1.538,0.02,0.122,80.69,89.9,40.497307,-3.380889,594.8,4,5,237.3,0.0
82.15,1,0.032,-0.018,0.071,0.001,-0.031,0.053,-1.544,0.019,0.122,80.69,89.9,40.497307,-3.380889,594.8,4,5,237.3,0.0
82.26,1,-0.033,-0.042,-0.001,-0.003,-0.03,0.036,-1.55,0.02,0.122,80.69,89.9,40.497307,-3.380889,594.8,4,5,237.3,0.0
82.36,1,-0.044,-0.019,0.012,-0.022,-0.023,0.017,-1.556,0.018,0.122,81.7,90.8,40.497185,-3.381137,595.1,4,5,236.2,1.055
82.45,1,-0.035,-0.043,0.009,-0.034,-0.037,0.012,-1.561,0.015,0.122,81.7,90.8,40.497185,-3.381137,595.1,4,5,236.2,1.055
82.55,1,-0.084,-0.031,-0.012,-0.059,-0.039,0.003,-1.566,0.019,0.122,81.7,90.8,40.497185,-3.381137,595.1,4,5,236.2,1.055
82.65,1,-0.03,-0.038,0.02,-0.056,-0.039,0.003,-1.563,0.018,0.122,81.7,90.8,40.497185,-3.381137,595.1,4,5,236.2,1.055
82.75,1,-0.029,-0.022,0.017,-0.034,-0.034,0.013,-1.567,0.009,0.122,81.7,90.8,40.497185,-3.381137,595.1,4,5,236.2,1.055
82.85,1,-0.05,-0.007,0.003,-0.048,-0.015,0.004,-1.567,0.008,0.121,81.7,90.8,40.497185,-3.381137,595.1,4,5,236.2,1.055
82.96,1,0.051,0.017,0.039,-0.013,0.0,0.019,-1.567,0.008,0.121,81.7,90.8,40.497185,-3.381137,595.1,4,5,236.2,1.055
83.05,1,0.016,0.019,-0.021,0.02,0.003,0.012,-1.568,0.009,0.121,81.7,90.8,40.497185,-3.381137,595.1,4,5,236.2,1.055
83.16,1,-0.035,0.025,0.008,-0.001,0.02,0.001,-1.566,0.002,0.121,81.7,90.8,40.497185,-3.381137,595.1,4,5,236.2,1.055
83.26,1,0.031,0.005,0.041,0.002,0.023,0.017,-1.568,0.001,0.12,81.7,90.8,40.497185,-3.381137,595.1,4,5,236.2,1.055
83.35,1,-0.008,-0.051,0.008,0.016,-0.014,0.026,-1.568,0.0,0.119,82.69,91.4,40.497063,-3.381379,594.5,4,5,235.5,1.758
83.46,1,0.0,-0.04,0.023,0.002,-0.038,0.017,-1.567,-0.001,0.119,82.69,91.4,40.497063,-3.381379,594.5,4,5,235.5,1.758
83.55,1,-0.111,0.025,0.004,-0.046,-0.009,0.019,-1.566,-0.001,0.118,82.69,91.4,40.497063,-3.381379,594.5,4,5,235.5,1.758
83.65,1,-0.084,-0.01,-0.01,-0.082,-0.003,-0.006,-1.566,0.001,0.118,82.69,91.4,40.497063,-3.381379,594.5,4,5,235.5,1.758
83.75,1,-0.029,-0.071,0.046,-0.047,-0.032,0.024,-1.576,-0.006,0.118,82.69,91.4,40.497063,-3.381379,594.5,4,5,235.5,1.758
83.85,1,0.032,-0.024,-0.045,-0.025,-0.035,-0.006,-1.577,-0.009,0.117,82.69,91.4,40.497063,-3.381379,594.5,4,5,235.5,1.758
83.95,1,-0.033,-0.015,-0.029,-0.012,-0.026,-0.02,-1.573,-0.008,0.116,82.69,91.4,40.497063,-3.381379,594.5,4,5,235.5,1.758
84.05,1,-0.05,-0.06,-0.039,-0.034,-0.036,-0.035,-1.572,-0.012,0.115,82.69,91.4,40.497063,-3.381379,594.5,4,5,235.5,1.758
84.15,1,-0.048,-0.038,-0.01,-0.044,-0.046,-0.023,-1.573,-0.011,0.114,82.69,91.4,40.497063,-3.381379,594.5,4,5,235.5,1.758
84.26,1,-0.014,-0.009,-0.046,-0.038,-0.03,-0.027,-1.573,-0.012,0.114,82.69,91.4,40.497063,-3.381379,594.5,4,5,235.5,1.758
84.36,1,0.041,0.0,-0.006,-0.01,-0.014,-0.028,-1.572,-0.015,0.113,83.71,92.3,40.496933,-3.381613,594.9,4,5,234.8,1.406
84.47,1,0.034,-0.029,-0.08,0.025,-0.02,-0.045,-1.568,-0.019,0.112,83.71,92.3,40.496933,-3.381613,594.9,4,5,234.8,1.406
84.56,1,0.108,0.031,-0.05,0.082,0.002,-0.043,-1.562,-0.021,0.112,83.71,92.3,40.496933,-3.381613,594.9,4,5,234.8,1.406
84.66,1,-0.015,-0.012,-0.098,0.032,0.009,-0.083,-1.557,-0.025,0.114,83.71,92.3,40.496933,-3.381613,594.9,4,5,234.8,1.406
84.77,1,-0.011,-0.078,0.002,-0.0,-0.043,-0.046,-1.561,-0.024,0.115,83.71,92.3,40.496933,-3.381613,594.9,4,5,234.8,1.406
84.86,1,-0.057,-0.01,-0.01,-0.009,-0.023,-0.013,-1.56,-0.024,0.115,83.71,92.3,40.496933,-3.381613,594.9,4,5,234.8,1.406
84.96,1,-0.08,-0.048,-0.088,-0.053,-0.032,-0.047,-1.559,-0.022,0.116,83.71,92.3,40.496933,-3.381613,594.9,4,5,234.8,1.406
85.06,1,0.018,-0.163,-0.033,-0.03,-0.094,-0.049,-1.559,-0.02,0.117,83.71,92.3,40.496933,-3.381613,594.9,4,5,234.8,1.406
85.16,1,-0.047,-0.137,-0.094,-0.025,-0.123,-0.062,-1.558,-0.02,0.118,83.71,92.3,40.496933,-3.381613,594.9,4,5,234.8,1.406
85.26,1,0.016,-0.092,-0.022,-0.016,-0.116,-0.059,-1.558,-0.021,0.119,83.71,92.3,40.496933,-3.381613,594.9,4,5,234.8,1.406
85.36,1,-0.016,-0.101,-0.04,-0.005,-0.102,-0.042,-1.558,-0.022,0.12,84.69,93.2,40.496807,-3.381854,594.9,4,5,236.2,1.406
85.47,1,-0.003,-0.115,-0.083,-0.004,-0.098,-0.055,-1.558,-0.022,0.122,84.69,93.2,40.496807,-3.381854,594.9,4,5,236.2,1.406
85.56,1,-0.02,-0.101,-0.053,-0.012,-0.122,-0.065,-1.559,-0.023,0.123,84.69,93.2,40.496807,-3.381854,594.9,4,5,236.2,1.406
85.66,1,-0.043,-0.035,-0.035,-0.042,-0.073,-0.049,-1.559,-0.023,0.124,84.69,93.2,40.496807,-3.381854,594.9,4,5,236.2,1.406
85.76,1,-0.012,-0.055,-0.011,-0.017,-0.054,-0.028,-1.559,-0.023,0.126,84.69,93.2,40.496807,-3.381854,594.9,4,5,236.2,1.406
85.87,1,0.019,-0.076,-0.047,-0.013,-0.065,-0.036,-1.558,-0.023,0.129,84.69,93.2,40.496807,-3.381854,594.9,4,5,236.2,1.406
85.96,1,0.023,-0.041,-0.026,0.013,-0.061,-0.033,-1.558,-0.022,0.13,84.69,93.2,40.496807,-3.381854,594.9,4,5,236.2,1.406
86.07,1,-0.002,-0.046,-0.075,0.015,-0.056,-0.052,-1.557,-0.019,0.133,84.69,93.2,40.496807,-3.381854,594.9,4,5,236.2,1.406
86.16,1,-0.06,-0.115,-0.067,-0.014,-0.075,-0.06,-1.559,-0.017,0.135,84.69,93.2,40.496807,-3.381854,594.9,4,5,236.2,1.406
86.26,1,0.005,-0.175,0.003,-0.023,-0.113,-0.034,-1.561,-0.016,0.137,84.69,93.2,40.496807,-3.381854,594.9,4,5,236.2,1.406
86.37,1,-0.064,-0.131,-0.087,-0.029,-0.139,-0.046,-1.56,-0.016,0.138,85.72,92.7,40.496677,-3.382107,595.0,4,5,236.2,1.406
86.46,1,-0.02,-0.139,-0.039,-0.037,-0.134,-0.055,-1.56,-0.017,0.14,85.72,92.7,40.496677,-3.382107,595.0,4,5,236.2,1.406
86.57,1,-0.016,-0.116,-0.047,-0.025,-0.13,-0.048,-1.56,-0.018,0.142,85.72,92.7,40.496677,-3.382107,595.0,4,5,236.2,1.406
86.66,1,-0.042,-0.096,-0.039,-0.024,-0.117,-0.042,-1.56,-0.017,0.142,85.72,92.7,40.496677,-3.382107,595.0,4,5,236.2,1.406
86.76,1,-0.025,-0.065,-0.015,-0.038,-0.089,-0.029,-1.561,-0.018,0.142,85.72,92.7,40.496677,-3.382107,595.0,4,5,236.2,1.406
86.86,1,-0.032,-0.109,0.004,-0.018,-0.095,-0.014,-1.561,-0.007,0.141,85.72,92.7,40.496677,-3.382107,595.0,4,5,236.2,1.406
86.96,1,-0.024,-0.052,-0.057,-0.033,-0.072,-0.026,-1.56,-0.001,0.14,85.72,92.7,40.496677,-3.382107,595.0,4,5,236.2,1.406
87.07,1,-0.02,-0.043,-0.008,-0.017,-0.057,-0.027,-1.56,-0.001,0.14,85.72,92.7,40.496677,-3.382107,595.0,4,5,236.2,1.406
87.17,1,-0.052,-0.045,-0.02,-0.034,-0.051,-0.019,-1.561,-0.001,0.14,85.72,92.7,40.496677,-3.382107,595.0,4,5,236.2,1.406
87.27,1,-0.047,-0.039,0.01,-0.053,-0.046,-0.008,-1.562,-0.001,0.14,85.72,92.7,40.496677,-3.382107,595.0,4,5,236.2,1.406
87.37,1,-0.039,-0.035,-0.013,-0.043,-0.041,-0.008,-1.564,-0.004,0.14,86.74,91.2,40.496548,-3.38235,594.5,4,5,235.5,0.703
87.47,1,-0.049,-0.09,-0.012,-0.039,-0.066,-0.01,-1.565,-0.002,0.141,86.74,91.2,40.496548,-3.38235,594.5,4,5,235.5,0.703
87.57,1,-0.044,-0.113,-0.005,-0.058,-0.08,-0.016,-1.564,-0.001,0.142,86.74,91.2,40.496548,-3.38235,594.5,4,5,235.5,0.703
87.67,1,-0.032,-0.111,-0.018,-0.03,-0.101,-0.001,-1.563,-0.001,0.143,86.74,91.2,40.496548,-3.38235,594.5,4,5,235.5,0.703
87.87,1,-0.105,-0.062,-0.041,-0.068,-0.083,-0.026,-1.564,-0.004,0.143,86.74,91.2,40.496548,-3.38235,594.5,4,5,235.5,0.703
87.97,1,-0.011,0.007,0.019,-0.052,-0.039,-0.007,-1.566,-0.005,0.143,86.74,91.2,40.496548,-3.38235,594.5,4,5,235.5,0.703
88.08,1,-0.064,-0.047,-0.038,-0.051,-0.036,-0.015,-1.566,-0.005,0.141,86.74,91.2,40.496548,-3.38235,594.5,4,5,235.5,0.703
88.17,1,-0.039,-0.03,0.005,-0.053,-0.034,-0.016,-1.567,-0.006,0.139,86.74,91.2,40.496548,-3.38235,594.5,4,5,235.5,0.703
88.28,1,-0.018,-0.018,0.009,-0.027,-0.023,0.006,-1.568,-0.008,0.137,86.74,91.2,40.496548,-3.38235,594.5,4,5,235.5,0.703
88.38,1,-0.029,-0.016,-0.012,-0.026,-0.016,-0.004,-1.568,-0.008,0.135,86.74,91.2,40.496548,-3.38235,594.5,4,5,235.5,0.703
88.47,1,-0.047,-0.004,-0.008,-0.042,-0.017,-0.009,-1.568,-0.008,0.133,87.7,88.8,40.496418,-3.382592,594.6,4,5,234.5,1.758
88.57,1,0.001,-0.044,0.02,-0.021,-0.028,0.007,-1.568,-0.008,0.132,87.7,88.8,40.496418,-3.382592,594.6,4,5,234.5,1.758
88.67,1,-0.013,0.018,-0.05,-0.015,-0.017,-0.017,-1.566,-0.008,0.13,87.7,88.8,40.496418,-3.382592,594.6,4,5,234.5,1.758
88.77,1,-0.032,0.034,-0.017,-0.014,0.021,-0.024,-1.567,-0.007,0.129,87.7,88.8,40.496418,-3.382592,594.6,4,5,234.5,1.758
88.87,1,-0.014,0.025,0.006,-0.019,0.024,-0.007,-1.57,-0.007,0.127,87.7,88.8,40.496418,-3.382592,594.6,4,5,234.5,1.758
88.97,1,-0.04,0.039,0.005,-0.034,0.031,-0.003,-1.571,-0.006,0.126,87.7,88.8,40.496418,-3.382592,594.6,4,5,234.5,1.758
89.07,1,-0.041,0.043,-0.01,-0.038,0.036,0.002,-1.57,-0.006,0.124,87.7,88.8,40.496418,-3.382592,594.6,4,5,234.5,1.758
89.17,1,-0.009,0.045,-0.012,-0.03,0.036,-0.011,-1.57,-0.007,0.122,87.7,88.8,40.496418,-3.382592,594.6,4,5,234.5,1.758
89.28,1,-0.008,0.017,-0.03,-0.005,0.034,-0.014,-1.569,-0.007,0.121,87.7,88.8,40.496418,-3.382592,594.6,4,5,234.5,1.758
89.37,1,-0.042,-0.001,-0.022,-0.028,0.022,-0.033,-1.569,-0.007,0.119,87.7,88.8,40.496418,-3.382592,594.6,4,5,234.5,1.758
89.48,1,-0.037,0.033,-0.02,-0.033,0.02,-0.016,-1.57,-0.007,0.118,88.7,89.7,40.496288,-3.382836,594.7,4,5,234.5,1.055
89.58,1,-0.014,0.034,0.012,-0.025,0.019,-0.009,-1.571,-0.007,0.117,88.7,89.7,40.496288,-3.382836,594.7,4,5,234.5,1.055
89.67,1,-0.026,0.025,-0.013,-0.02,0.04,-0.005,-1.571,-0.007,0.116,88.7,89.7,40.496288,-3.382836,594.7,4,5,234.5,1.055
89.77,1,-0.025,-0.015,-0.035,-0.029,0.016,-0.013,-1.57,-0.006,0.115,88.7,89.7,40.496288,-3.382836,594.7,4,5,234.5,1.055
89.87,1,-0.012,0.04,0.001,-0.024,0.013,-0.019,-1.571,-0.006,0.116,88.7,89.7,40.496288,-3.382836,594.7,4,5,234.5,1.055
89.97,1,-0.026,-0.008,-0.001,-0.026,0.005,-0.007,-1.571,-0.004,0.117,88.7,89.7,40.496288,-3.382836,594.7,4,5,234.5,1.055
90.07,1,-0.022,-0.03,-0.027,-0.021,-0.011,-0.011,-1.567,0.002,0.118,88.7,89.7,40.496288,-3.382836,594.7,4,5,234.5,1.055
90.17,1,-0.026,-0.021,-0.012,-0.018,-0.017,-0.016,-1.567,0.01,0.119,88.7,89.7,40.496288,-3.382836,594.7,4,5,234.5,1.055
90.27,1,-0.041,-0.038,-0.002,-0.033,-0.024,-0.013,-1.57,0.011,0.121,88.7,89.7,40.496288,-3.382836,594.7,4,5,234.5,1.055
90.38,1,0.001,0.004,-0.03,-0.012,-0.016,-0.01,-1.568,0.026,0.122,88.7,89.7,40.496288,-3.382836,594.7,4,5,234.5,1.055
90.48,1,-0.031,-0.008,-0.002,-0.034,-0.011,-0.015,-1.566,0.033,0.123,89.69,89.6,40.496159,-3.383081,594.5,4,5,235.5,1.055
90.58,1,-0.057,-0.093,-0.007,-0.036,-0.036,-0.012,-1.566,0.034,0.124,89.69,89.6,40.496159,-3.383081,594.5,4,5,235.5,1.055
90.69,1,0.036,-0.036,0.025,-0.022,-0.061,0.007,-1.566,0.034,0.126,89.69,89.6,40.496159,-3.383081,594.5,4,5,235.5,1.055
90.79,1,0.01,-0.031,-0.015,0.018,-0.036,0.001,-1.564,0.038,0.128,89.69,89.6,40.496159,-3.383081,594.5,4,5,235.5,1.055
90.88,1,0.023,-0.005,0.006,0.022,-0.016,-0.002,-1.562,0.039,0.13,89.69,89.6,40.496159,-3.383081,594.5,4,5,235.5,1.055
90.98,1,-0.051,-0.102,-0.019,-0.008,-0.054,-0.003,-1.56,0.037,0.133,89.69,89.6,40.496159,-3.383081,594.5,4,5,235.5,1.055
91.08,1,-0.016,-0.09,-0.022,-0.03,-0.078,-0.021,-1.56,0.038,0.136,89.69,89.6,40.496159,-3.383081,594.5,4,5,235.5,1.055
91.18,1,-0.002,-0.086,0.003,-0.008,-0.092,-0.001,-1.56,0.038,0.138,89.69,89.6,40.496159,-3.383081,594.5,4,5,235.5,1.055
91.28,1,0.017,0.006,-0.044,-0.002,-0.051,-0.023,-1.559,0.039,0.141,89.69,89.6,40.496159,-3.383081,594.5,4,5,235.5,1.055
91.38,1,0.062,0.01,-0.0,0.028,-0.011,-0.022,-1.559,0.04,0.143,89.69,89.6,40.496159,-3.383081,594.5,4,5,235.5,1.055
91.48,1,0.047,0.015,-0.019,0.05,0.007,-0.009,-1.558,0.039,0.145,90.7,89.5,40.49604,-3.38333,594.7,4,5,236.2,1.758
91.58,1,0.023,0.026,-0.032,0.027,0.018,-0.031,-1.558,0.038,0.147,90.7,89.5,40.49604,-3.38333,594.7,4,5,236.2,1.758
91.69,1,0.046,0.015,-0.019,0.042,0.02,-0.018,-1.558,0.038,0.149,90.7,89.5,40.49604,-3.38333,594.7,4,5,236.2,1.758
91.78,1,0.019,-0.009,-0.003,0.04,0.005,-0.013,-1.559,0.039,0.151,90.7,89.5,40.49604,-3.38333,594.7,4,5,236.2,1.758
91.89,1,0.001,-0.004,-0.008,0.002,-0.007,-0.015,-1.56,0.04,0.154,90.7,89.5,40.49604,-3.38333,594.7,4,5,236.2,1.758
91.99,1,-0.012,-0.043,-0.009,0.004,-0.013,-0.006,-1.56,0.041,0.156,90.7,89.5,40.49604,-3.38333,594.7,4,5,236.2,1.758
92.08,1,0.0,-0.003,-0.01,0.006,-0.024,-0.006,-1.559,0.041,0.158,90.7,89.5,40.49604,-3.38333,594.7,4,5,236.2,1.758
92.19,1,-0.034,-0.006,-0.034,-0.026,-0.011,-0.027,-1.559,0.04,0.16,90.7,89.5,40.49604,-3.38333,594.7,4,5,236.2,1.758
92.28,1,0.073,-0.043,0.001,0.029,-0.027,-0.002,-1.558,0.04,0.162,90.7,89.5,40.49604,-3.38333,594.7,4,5,236.2,1.758
92.38,1,0.003,0.017,-0.035,0.017,-0.01,-0.029,-1.557,0.04,0.164,90.7,89.5,40.49604,-3.38333,594.7,4,5,236.2,1.758
92.49,1,0.006,0.012,0.004,0.011,0.005,-0.013,-1.559,0.04,0.166,91.69,89.6,40.495914,-3.383575,594.5,4,5,235.5,0.703
92.58,1,-0.042,0.006,-0.021,0.0,0.012,-0.005,-1.559,0.041,0.167,91.69,89.6,40.495914,-3.383575,594.5,4,5,235.5,0.703
92.68,1,-0.02,-0.039,-0.023,-0.024,-0.004,-0.023,-1.559,0.04,0.168,91.69,89.6,40.495914,-3.383575,594.5,4,5,235.5,0.703
92.78,1,0.004,0.001,-0.036,-0.011,-0.012,-0.025,-1.558,0.038,0.168,91.69,89.6,40.495914,-3.383575,594.5,4,5,235.5,0.703
92.88,1,-0.012,0.04,-0.021,-0.013,0.004,-0.025,-1.558,0.036,0.168,91.69,89.6,40.495914,-3.383575,594.5,4,5,235.5,0.703
92.99,1,-0.047,-0.018,-0.042,-0.023,0.011,-0.036,-1.559,0.036,0.169,91.69,89.6,40.495914,-3.383575,594.5,4,5,235.5,0.703
93.09,1,-0.041,-0.03,-0.024,-0.038,-0.021,-0.031,-1.56,0.035,0.169,91.69,89.6,40.495914,-3.383575,594.5,4,5,235.5,0.703
93.19,1,-0.033,0.017,-0.001,-0.036,-0.002,-0.017,-1.561,0.035,0.17,91.69,89.6,40.495914,-3.383575,594.5,4,5,235.5,0.703
93.29,1,-0.019,-0.024,-0.007,-0.03,0.001,-0.008,-1.561,0.034,0.171,91.69,89.6,40.495914,-3.383575,594.5,4,5,235.5,0.703
93.39,1,0.005,-0.014,-0.012,-0.015,-0.013,-0.009,-1.559,0.034,0.171,91.69,89.6,40.495914,-3.383575,594.5,4,5,235.5,0.703
93.49,1,-0.03,-0.002,-0.053,-0.008,-0.02,-0.027,-1.554,0.025,0.172,92.74,89.3,40.495792,-3.383824,594.9,4,5,234.5,1.758
93.59,1,0.012,-0.016,0.013,-0.014,-0.01,-0.023,-1.547,0.025,0.172,92.74,89.3,40.495792,-3.383824,594.9,4,5,234.5,1.758
93.69,1,-0.018,0.001,0.011,-0.003,-0.012,-0.001,-1.547,0.027,0.172,92.74,89.3,40.495792,-3.383824,594.9,4,5,234.5,1.758
93.79,1,-0.058,0.05,-0.007,-0.03,0.022,0.006,-1.546,0.028,0.171,92.74,89.3,40.495792,-3.383824,594.9,4,5,234.5,1.758
93.89,1,-0.041,0.056,0.012,-0.045,0.045,0.003,-1.547,0.026,0.169,92.74,89.3,40.495792,-3.383824,594.9,4,5,234.5,1.758
93.99,1,-0.011,0.039,-0.004,-0.025,0.042,0.005,-1.552,0.008,0.167,92.74,89.3,40.495792,-3.383824,594.9,4,5,234.5,1.758
94.09,1,-0.047,0.042,0.012,-0.033,0.039,0.001,-1.552,-0.007,0.166,92.74,89.3,40.495792,-3.383824,594.9,4,5,234.5,1.758
94.19,1,-0.032,-0.026,-0.013,-0.038,0.019,-0.002,-1.555,-0.018,0.164,92.74,89.3,40.495792,-3.383824,594.9,4,5,234.5,1.758
94.29,1,-0.065,-0.016,-0.004,-0.044,-0.004,-0.003,-1.551,-0.021,0.162,92.74,89.3,40.495792,-3.383824,594.9,4,5,234.5,1.758
94.39,1,-0.026,-0.04,-0.009,-0.037,-0.023,-0.003,-1.549,-0.014,0.161,92.74,89.3,40.495792,-3.383824,594.9,4,5,234.5,1.758
94.49,1,-0.009,-0.034,0.025,-0.035,-0.037,-0.004,-1.545,-0.016,0.16,93.7,88.8,40.495659,-3.384058,594.1,4,5,233.4,2.109
94.59,1,0.074,0.016,0.045,0.022,-0.013,0.032,-1.543,-0.016,0.16,93.7,88.8,40.495659,-3.384058,594.1,4,5,233.4,2.109
94.7,1,0.043,-0.04,-0.031,0.038,-0.023,0.003,-1.541,-0.015,0.16,93.7,88.8,40.495659,-3.384058,594.1,4,5,233.4,2.109
94.79,1,0.023,-0.009,-0.011,0.043,-0.016,-0.005,-1.541,-0.015,0.159,93.7,88.8,40.495659,-3.384058,594.1,4,5,233.4,2.109
94.89,1,-0.001,0.015,-0.004,0.014,-0.001,-0.008,-1.542,-0.015,0.159,93.7,88.8,40.495659,-3.384058,594.1,4,5,233.4,2.109
94.99,1,0.028,0.042,0.036,0.021,0.021,0.013,-1.543,-0.016,0.158,93.7,88.8,40.495659,-3.384058,594.1,4,5,233.4,2.109
95.09,1,-0.0,0.03,0.012,0.009,0.029,0.015,-1.542,-0.017,0.156,93.7,88.8,40.495659,-3.384058,594.1,4,5,233.4,2.109
95.19,1,0.03,0.038,-0.022,0.018,0.036,0.001,-1.541,-0.017,0.156,93.7,88.8,40.495659,-3.384058,594.1,4,5,233.4,2.109
95.29,1,0.049,0.053,0.016,0.037,0.037,-0.002,-1.541,-0.016,0.155,93.7,88.8,40.495659,-3.384058,594.1,4,5,233.4,2.109
95.39,1,-0.019,0.027,0.001,0.009,0.036,0.004,-1.542,-0.016,0.154,93.7,88.8,40.495659,-3.384058,594.1,4,5,233.4,2.109
95.5,1,0.0,-0.049,0.033,-0.006,-0.005,0.014,-1.543,-0.016,0.153,94.7,88.3,40.495525,-3.384287,595.6,4,5,233.1,1.406
95.61,1,0.012,-0.076,0.005,0.012,-0.029,0.022,-1.541,-0.017,0.152,94.7,88.3,40.495525,-3.384287,595.6,4,5,233.1,1.406
95.69,1,-0.023,-0.045,-0.023,-0.001,-0.051,-0.006,-1.54,-0.016,0.152,94.7,88.3,40.495525,-3.384287,595.6,4,5,233.1,1.406
95.79,1,0.001,-0.008,0.015,-0.011,-0.031,-0.003,-1.541,-0.015,0.151,94.7,88.3,40.495525,-3.384287,595.6,4,5,233.1,1.406
95.89,1,-0.043,-0.086,-0.001,-0.014,-0.052,0.008,-1.543,-0.014,0.15,94.7,88.3,40.495525,-3.384287,595.6,4,5,233.1,1.406
95.99,1,-0.002,-0.042,0.017,-0.028,-0.069,0.004,-1.544,-0.015,0.15,94.7,88.3,40.495525,-3.384287,595.6,4,5,233.1,1.406
96.09,1,-0.022,-0.004,0.002,-0.021,-0.038,0.004,-1.544,-0.016,0.149,94.7,88.3,40.495525,-3.384287,595.6,4,5,233.1,1.406
96.19,1,0.024,0.003,0.038,0.008,0.007,0.025,-1.543,-0.016,0.148,94.7,88.3,40.495525,-3.384287,595.6,4,5,233.1,1.406
96.29,1,-0.04,-0.077,-0.04,-0.013,-0.03,-0.002,-1.541,-0.015,0.147,94.7,88.3,40.495525,-3.384287,595.6,4,5,233.1,1.406
96.4,1,-0.003,-0.086,-0.003,-0.009,-0.071,-0.009,-1.541,-0.015,0.146,94.7,88.3,40.495525,-3.384287,595.6,4,5,233.1,1.406
96.51,1,-0.006,-0.102,-0.02,-0.01,-0.085,-0.017,-1.542,-0.013,0.146,95.71,88.3,40.495392,-3.384518,594.6,4,5,233.1,0.352
96.6,1,-0.007,-0.118,-0.01,-0.008,-0.089,-0.008,-1.542,-0.012,0.145,95.71,88.3,40.495392,-3.384518,594.6,4,5,233.1,0.352
96.7,1,-0.018,-0.095,-0.016,-0.018,-0.103,-0.018,-1.543,-0.011,0.145,95.71,88.3,40.495392,-3.384518,594.6,4,5,233.1,0.352
96.8,1,0.004,-0.076,0.013,-0.003,-0.091,0.0,-1.543,-0.011,0.145,95.71,88.3,40.495392,-3.384518,594.6,4,5,233.1,0.352
96.9,1,-0.01,-0.1,-0.004,-0.002,-0.096,0.0,-1.542,-0.009,0.146,95.71,88.3,40.495392,-3.384518,594.6,4,5,233.1,0.352
97.0,1,-0.007,-0.101,-0.033,-0.016,-0.103,-0.023,-1.542,-0.008,0.149,95.71,88.3,40.495392,-3.384518,594.6,4,5,233.1,0.352
97.1,1,0.06,-0.11,0.043,0.024,-0.102,0.014,-1.542,-0.006,0.151,95.71,88.3,40.495392,-3.384518,594.6,4,5,233.1,0.352
97.2,1,-0.041,-0.09,-0.025,0.011,-0.101,0.0,-1.54,-0.005,0.154,95.71,88.3,40.495392,-3.384518,594.6,4,5,233.1,0.352
97.3,1,-0.046,-0.079,0.013,-0.035,-0.087,-0.003,-1.542,0.0,0.156,95.71,88.3,40.495392,-3.384518,594.6,4,5,233.1,0.352
97.4,1,-0.003,-0.063,0.034,-0.009,-0.081,0.02,-1.541,0.017,0.158,95.71,88.3,40.495392,-3.384518,594.6,4,5,233.1,0.352
97.5,1,-0.041,-0.039,0.011,-0.034,-0.052,0.015,-1.541,0.031,0.16,96.7,87.2,40.495262,-3.38475,594.2,4,5,233.1,0.0
97.6,1,-0.061,-0.035,-0.018,-0.041,-0.045,0.005,-1.542,0.036,0.162,96.7,87.2,40.495262,-3.38475,594.2,4,5,233.1,0.0
97.7,1,-0.004,-0.051,0.033,-0.033,-0.042,0.005,-1.544,0.045,0.165,96.7,87.2,40.495262,-3.38475,594.2,4,5,233.1,0.0
97.8,1,-0.039,-0.048,-0.034,-0.028,-0.05,0.001,-1.55,0.052,0.167,96.7,87.2,40.495262,-3.38475,594.2,4,5,233.1,0.0
97.9,1,-0.022,-0.044,-0.013,-0.026,-0.044,-0.015,-1.549,0.054,0.169,96.7,87.2,40.495262,-3.38475,594.2,4,5,233.1,0.0
98.0,1,0.137,-0.023,0.076,0.046,-0.039,0.024,-1.55,0.059,0.171,96.7,87.2,40.495262,-3.38475,594.2,4,5,233.1,0.0
98.1,1,0.009,-0.024,-0.086,0.05,-0.025,-0.005,-1.548,0.062,0.173,96.7,87.2,40.495262,-3.38475,594.2,4,5,233.1,0.0
98.2,1,0.001,-0.027,-0.05,0.007,-0.027,-0.055,-1.547,0.062,0.176,96.7,87.2,40.495262,-3.38475,594.2,4,5,233.1,0.0
98.31,1,-0.073,-0.014,-0.012,-0.025,-0.025,-0.032,-1.553,0.064,0.179,96.7,87.2,40.495262,-3.38475,594.2,4,5,233.1,0.0
98.43,1,-0.019,0.047,0.024,-0.023,0.002,0.003,-1.553,0.066,0.181,96.7,87.2,40.495262,-3.38475,594.2,4,5,233.1,0.0
98.51,1,-0.079,-0.011,-0.032,-0.045,0.021,-0.008,-1.551,0.069,0.183,97.73,87.3,40.495132,-3.384986,594.6,3,5,233.8,0.703
98.6,1,-0.027,-0.063,-0.011,-0.052,-0.029,-0.019,-1.551,0.067,0.185,97.73,87.3,40.495132,-3.384986,594.6,3,5,233.8,0.703
98.7,1,0.006,-0.008,-0.005,-0.02,-0.031,-0.013,-1.55,0.067,0.187,97.73,87.3,40.495132,-3.384986,594.6,3,5,233.8,0.703
98.81,1,0.024,0.035,0.002,0.01,0.002,0.003,-1.55,0.072,0.189,97.73,87.3,40.495132,-3.384986,594.6,3,5,233.8,0.703
98.91,1,-0.023,-0.008,-0.002,-0.008,0.009,-0.006,-1.549,0.073,0.19,97.73,87.3,40.495132,-3.384986,594.6,3,5,233.8,0.703
99.0,1,-0.009,-0.033,0.005,-0.012,-0.009,0.003,-1.553,0.067,0.191,97.73,87.3,40.495132,-3.384986,594.6,3,5,233.8,0.703
99.11,1,-0.005,0.016,0.013,-0.005,-0.008,0.009,-1.553,0.065,0.192,97.73,87.3,40.495132,-3.384986,594.6,3,5,233.8,0.703
99.2,1,-0.016,-0.023,0.002,-0.012,-0.009,0.003,-1.553,0.066,0.192,97.73,87.3,40.495132,-3.384986,594.6,3,5,233.8,0.703
99.3,1,0.023,-0.012,-0.007,0.004,-0.004,0.007,-1.552,0.066,0.192,97.73,87.3,40.495132,-3.384986,594.6,3,5,233.8,0.703
99.4,1,-0.001,-0.002,-0.029,0.009,-0.022,-0.019,-1.552,0.066,0.191,97.73,87.3,40.495132,-3.384986,594.6,3,5,233.8,0.703
99.51,1,-0.047,0.026,-0.005,-0.018,0.009,-0.012,-1.552,0.064,0.19,98.71,87.8,40.494999,-3.38521,594.6,3,5,231.3,2.461
99.61,1,-0.023,0.035,0.004,-0.03,0.025,-0.008,-1.555,0.064,0.189,98.71,87.8,40.494999,-3.38521,594.6,3,5,231.3,2.461
99.72,1,-0.014,0.074,0.039,-0.02,0.047,0.014,-1.557,0.06,0.188,98.71,87.8,40.494999,-3.38521,594.6,3,5,231.3,2.461
99.81,1,0.006,0.056,0.041,-0.011,0.058,0.033,-1.558,0.053,0.187,98.71,87.8,40.494999,-3.38521,594.6,3,5,231.3,2.461
99.91,1,-0.001,0.039,0.002,0.001,0.05,0.022,-1.552,0.052,0.187,98.71,87.8,40.494999,-3.38521,594.6,3,5,231.3,2.461
100.01,1,0.03,0.018,0.028,0.014,0.036,0.023,-1.555,0.045,0.186,98.71,87.8,40.494999,-3.38521,594.6,3,5,231.3,2.461
100.12,1,-0.027,0.034,0.031,-0.008,0.032,0.019,-1.559,0.039,0.186,98.71,87.8,40.494999,-3.38521,594.6,3,5,231.3,2.461
100.21,1,-0.053,0.035,0.017,-0.017,0.027,0.029,-1.558,0.038,0.185,98.71,87.8,40.494999,-3.38521,594.6,3,5,231.3,2.461
100.32,1,-0.017,-0.004,0.006,-0.032,0.019,0.01,-1.558,0.037,0.184,98.71,87.8,40.494999,-3.38521,594.6,3,5,231.3,2.461
100.41,1,-0.016,0.018,0.007,-0.019,0.016,0.011,-1.558,0.035,0.183,98.71,87.8,40.494999,-3.38521,594.6,3,5,231.3,2.461
100.51,1,0.079,-0.004,0.029,0.015,0.008,0.019,-1.56,0.033,0.182,99.7,87.3,40.494862,-3.385436,594.6,3,5,231.3,2.461
100.61,1,-0.013,0.009,-0.016,0.022,0.003,0.008,-1.56,0.031,0.182,99.7,87.3,40.494862,-3.385436,594.6,3,5,231.3,2.461
100.71,1,0.026,0.001,0.01,0.013,0.009,0.001,-1.555,0.028,0.181,99.7,87.3,40.494862,-3.385436,594.6,3,5,231.3,2.461
100.81,1,0.032,0.006,-0.014,0.03,-0.001,-0.002,-1.556,0.026,0.181,99.7,87.3,40.494862,-3.385436,594.6,3,5,231.3,2.461
100.91,1,-0.021,0.001,0.017,0.006,0.007,0.002,-1.56,0.024,0.18,99.7,87.3,40.494862,-3.385436,594.6,3,5,231.3,2.461
101.01,1,-0.025,-0.019,0.012,-0.011,-0.004,0.009,-1.56,0.021,0.18,99.7,87.3,40.494862,-3.385436,594.6,3,5,231.3,2.461
101.11,1,-0.014,-0.027,0.011,-0.025,-0.021,0.012,-1.56,0.024,0.179,99.7,87.3,40.494862,-3.385436,594.6,3,5,231.3,2.461
101.21,1,0.023,-0.007,-0.031,0.008,-0.012,-0.007,-1.559,0.024,0.179,99.7,87.3,40.494862,-3.385436,594.6,3,5,231.3,2.461
101.31,1,0.069,0.042,-0.014,0.03,0.008,-0.016,-1.557,0.019,0.179,99.7,87.3,40.494862,-3.385436,594.6,3,5,231.3,2.461
101.41,1,0.028,0.033,-0.019,0.043,0.023,-0.012,-1.558,0.019,0.179,99.7,87.3,40.494862,-3.385436,594.6,3,5,231.3,2.461
101.51,1,0.029,0.022,-0.008,0.025,0.028,-0.017,-1.555,0.018,0.179,100.71,87.0,40.494724,-3.385662,594.1,4,5,231.3,0.0
101.61,1,-0.011,-0.02,0.018,0.011,0.007,0.003,-1.555,0.017,0.178,100.71,87.0,40.494724,-3.385662,594.1,4,5,231.3,0.0
101.71,1,-0.029,-0.04,0.027,-0.001,-0.016,0.013,-1.554,0.019,0.178,100.71,87.0,40.494724,-3.385662,594.1,4,5,231.3,0.0
101.81,1,-0.035,-0.045,-0.008,-0.02,-0.037,0.009,-1.551,0.017,0.177,100.71,87.0,40.494724,-3.385662,594.1,4,5,231.3,0.0
101.91,1,-0.011,-0.052,0.038,-0.021,-0.049,0.021,-1.551,0.016,0.177,100.71,87.0,40.494724,-3.385662,594.1,4,5,231.3,0.0
102.02,1,-0.054,-0.029,0.01,-0.033,-0.037,0.02,-1.551,0.016,0.177,100.71,87.0,40.494724,-3.385662,594.1,4,5,231.3,0.0
102.12,1,-0.022,-0.084,0.0,-0.033,-0.051,0.005,-1.552,0.021,0.176,100.71,87.0,40.494724,-3.385662,594.1,4,5,231.3,0.0
102.22,1,-0.022,-0.051,0.043,-0.031,-0.059,0.021,-1.554,0.027,0.176,100.71,87.0,40.494724,-3.385662,594.1,4,5,231.3,0.0
102.32,1,-0.031,-0.031,0.006,-0.027,-0.047,0.021,-1.553,0.027,0.175,100.71,87.0,40.494724,-3.385662,594.1,4,5,231.3,0.0
102.41,1,-0.044,-0.036,0.017,-0.039,-0.043,0.015,-1.553,0.028,0.175,100.71,87.0,40.494724,-3.385662,594.1,4,5,231.3,0.0
102.52,1,-0.003,0.028,0.02,-0.018,-0.014,0.022,-1.553,0.028,0.175,101.73,87.6,40.494583,-3.385882,595.8,3,5,231.0,0.352
102.62,1,0.008,-0.041,0.0,-0.005,-0.011,0.005,-1.553,0.028,0.174,101.73,87.6,40.494583,-3.385882,595.8,3,5,231.0,0.352
102.73,1,-0.044,0.0,-0.019,-0.011,-0.007,0.003,-1.553,0.028,0.174,101.73,87.6,40.494583,-3.385882,595.8,3,5,231.0,0.352
102.82,1,0.046,0.075,0.044,-0.013,0.026,0.002,-1.553,0.029,0.174,101.73,87.6,40.494583,-3.385882,595.8,3,5,231.0,0.352
102.92,1,0.033,-0.003,-0.014,0.03,0.019,0.021,-1.552,0.031,0.174,101.73,87.6,40.494583,-3.385882,595.8,3,5,231.0,0.352
103.02,1,0.035,0.021,0.012,0.028,0.015,-0.005,-1.552,0.031,0.173,101.73,87.6,40.494583,-3.385882,595.8,3,5,231.0,0.352
103.12,1,0.002,0.044,0.019,0.021,0.037,0.013,-1.552,0.03,0.172,101.73,87.6,40.494583,-3.385882,595.8,3,5,231.0,0.352
103.22,1,0.021,0.034,0.019,0.009,0.036,0.019,-1.552,0.03,0.171,101.73,87.6,40.494583,-3.385882,595.8,3,5,231.0,0.352
103.32,1,-0.015,0.04,-0.009,0.008,0.033,0.001,-1.551,0.03,0.17,101.73,87.6,40.494583,-3.385882,595.8,3,5,231.0,0.352
103.43,1,-0.009,0.005,0.03,-0.003,0.02,0.019,-1.552,0.03,0.17,101.73,87.6,40.494583,-3.385882,595.8,3,5,231.0,0.352
103.53,1,-0.044,-0.054,-0.015,-0.027,-0.012,0.005,-1.551,0.03,0.169,102.7,88.0,40.494446,-3.386109,595.0,3,5,231.0,0.352
103.62,1,-0.01,-0.007,-0.007,-0.02,-0.014,-0.002,-1.552,0.03,0.169,102.7,88.0,40.494446,-3.386109,595.0,3,5,231.0,0.352
103.72,1,0.067,0.031,0.011,0.017,0.005,-0.001,-1.552,0.031,0.169,102.7,88.0,40.494446,-3.386109,595.0,3,5,231.0,0.352
103.82,1,-0.017,0.032,-0.016,0.023,0.016,0.001,-1.551,0.031,0.168,102.7,88.0,40.494446,-3.386109,595.0,3,5,231.0,0.352
103.93,1,0.006,0.023,-0.019,-0.003,0.023,-0.017,-1.552,0.031,0.168,102.7,88.0,40.494446,-3.386109,595.0,3,5,231.0,0.352
104.02,1,0.057,0.037,0.019,0.026,0.031,-0.004,-1.552,0.032,0.167,102.7,88.0,40.494446,-3.386109,595.0,3,5,231.0,0.352
104.12,1,-0.055,0.017,-0.004,0.011,0.026,0.006,-1.54,0.04,0.167,102.7,88.0,40.494446,-3.386109,595.0,3,5,231.0,0.352
104.22,1,0.016,-0.001,0.045,-0.013,0.008,0.015,-1.542,0.046,0.168,102.7,88.0,40.494446,-3.386109,595.0,3,5,231.0,0.352
104.32,1,-0.037,0.006,-0.007,-0.014,0.008,0.016,-1.547,0.051,0.168,102.7,88.0,40.494446,-3.386109,595.0,3,5,231.0,0.352
104.43,1,-0.054,0.025,0.045,-0.041,0.015,0.02,-1.546,0.057,0.169,102.7,88.0,40.494446,-3.386109,595.0,3,5,231.0,0.352
104.52,1,-0.026,0.028,0.033,-0.036,0.02,0.031,-1.551,0.054,0.169,103.7,88.7,40.494305,-3.386332,594.1,3,5,230.6,0.352
104.63,1,-0.055,0.028,-0.008,-0.033,0.025,0.017,-1.548,0.053,0.169,103.7,88.7,40.494305,-3.386332,594.1,3,5,230.6,0.352
104.72,1,-0.035,0.011,0.026,-0.047,0.025,0.013,-1.547,0.054,0.17,103.7,88.7,40.494305,-3.386332,594.1,3,5,230.6,0.352
104.82,1,-0.024,-0.013,-0.012,-0.033,0.004,0.007,-1.547,0.055,0.171,103.7,88.7,40.494305,-3.386332,594.1,3,5,230.6,0.352
104.92,1,-0.088,-0.041,0.002,-0.06,-0.023,0.004,-1.549,0.059,0.172,103.7,88.7,40.494305,-3.386332,594.1,3,5,230.6,0.352
105.02,1,-0.11,-0.022,-0.005,-0.083,-0.022,-0.008,-1.552,0.057,0.172,103.7,88.7,40.494305,-3.386332,594.1,3,5,230.6,0.352
105.13,1,-0.018,0.019,0.024,-0.056,-0.003,0.009,-1.555,0.056,0.173,103.7,88.7,40.494305,-3.386332,594.1,3,5,230.6,0.352
105.22,1,-0.03,0.021,-0.001,-0.04,0.005,0.015,-1.554,0.058,0.173,103.7,88.7,40.494305,-3.386332,594.1,3,5,230.6,0.352
105.33,1,0.006,0.035,0.018,-0.025,0.019,0.006,-1.552,0.054,0.173,103.7,88.7,40.494305,-3.386332,594.1,3,5,230.6,0.352
105.42,1,-0.015,0.041,-0.011,-0.007,0.038,0.006,-1.551,0.046,0.173,103.7,88.7,40.494305,-3.386332,594.1,3,5,230.6,0.352
105.53,1,0.052,0.044,0.008,0.01,0.039,-0.002,-1.55,0.045,0.174,104.71,88.3,40.494167,-3.386551,594.9,3,5,230.6,0.352
105.63,1,0.024,0.055,0.01,0.038,0.047,0.006,-1.551,0.045,0.173,104.71,88.3,40.494167,-3.386551,594.9,3,5,230.6,0.352
105.73,1,-0.012,0.059,-0.006,0.005,0.056,0.002,-1.551,0.044,0.173,104.71,88.3,40.494167,-3.386551,594.9,3,5,230.6,0.352
105.83,1,0.039,0.083,0.018,0.014,0.064,0.005,-1.55,0.046,0.173,104.71,88.3,40.494167,-3.386551,594.9,3,5,230.6,0.352
105.93,1,0.004,0.009,0.002,0.019,0.05,0.011,-1.549,0.048,0.173,104.71,88.3,40.494167,-3.386551,594.9,3,5,230.6,0.352
106.03,1,-0.065,-0.066,-0.017,-0.019,-0.01,-0.003,-1.548,0.049,0.173,104.71,88.3,40.494167,-3.386551,594.9,3,5,230.6,0.352
106.13,1,-0.032,0.017,0.012,-0.039,-0.013,0.003,-1.549,0.049,0.173,104.71,88.3,40.494167,-3.386551,594.9,3,5,230.6,0.352
106.23,1,0.078,0.066,-0.001,0.011,0.03,-0.0,-1.549,0.049,0.173,104.71,88.3,40.494167,-3.386551,594.9,3,5,230.6,0.352
106.33,1,0.004,0.051,-0.012,0.023,0.043,-0.006,-1.548,0.049,0.173,104.71,88.3,40.494167,-3.386551,594.9,3,5,230.6,0.352
106.43,1,0.012,0.092,0.003,0.018,0.065,-0.003,-1.549,0.049,0.173,104.71,88.3,40.494167,-3.386551,594.9,3,5,230.6,0.352
106.53,1,0.022,0.071,0.011,0.017,0.079,0.004,-1.55,0.05,0.173,105.71,88.5,40.49403,-3.386775,594.1,3,5,230.3,0.352
106.63,1,0.015,0.037,0.017,0.02,0.071,0.009,-1.55,0.05,0.174,105.71,88.5,40.49403,-3.386775,594.1,3,5,230.3,0.352
106.73,1,-0.017,0.112,0.005,-0.003,0.073,0.013,-1.549,0.05,0.174,105.71,88.5,40.49403,-3.386775,594.1,3,5,230.3,0.352
106.83,1,-0.008,0.064,0.0,-0.014,0.068,0.001,-1.549,0.051,0.174,105.71,88.5,40.49403,-3.386775,594.1,3,5,230.3,0.352
106.94,1,-0.005,0.059,0.017,0.001,0.062,0.013,-1.55,0.051,0.174,105.71,88.5,40.49403,-3.386775,594.1,3,5,230.3,0.352
107.03,1,-0.052,-0.0,0.0,-0.024,0.044,0.006,-1.55,0.051,0.175,105.71,88.5,40.49403,-3.386775,594.1,3,5,230.3,0.352
107.13,1,-0.035,-0.019,0.011,-0.042,-0.001,0.006,-1.55,0.051,0.175,105.71,88.5,40.49403,-3.386775,594.1,3,5,230.3,0.352
107.23,1,-0.012,0.03,0.02,-0.015,0.024,0.019,-1.55,0.051,0.176,105.71,88.5,40.49403,-3.386775,594.1,3,5,230.3,0.352
107.33,1,-0.084,-0.013,-0.011,-0.044,0.003,0.004,-1.551,0.051,0.176,105.71,88.5,40.49403,-3.386775,594.1,3,5,230.3,0.352
107.43,1,-0.084,0.002,0.016,-0.067,-0.006,0.007,-1.555,0.049,0.177,105.71,88.5,40.49403,-3.386775,594.1,3,5,230.3,0.352
107.54,1,-0.017,0.001,0.037,-0.059,0.004,0.018,-1.56,0.047,0.178,106.7,88.7,40.493889,-3.386997,594.3,3,5,229.6,1.055
107.63,1,-0.054,-0.014,0.021,-0.042,-0.004,0.025,-1.564,0.045,0.178,106.7,88.7,40.493889,-3.386997,594.3,3,5,229.6,1.055
107.73,1,-0.01,0.002,0.051,-0.032,-0.003,0.034,-1.566,0.046,0.179,106.7,88.7,40.493889,-3.386997,594.3,3,5,229.6,1.055
107.93,1,-0.073,0.006,0.016,-0.063,0.011,0.02,-1.569,0.044,0.179,106.7,88.7,40.493889,-3.386997,594.3,3,5,229.6,1.055
108.03,1,-0.035,-0.021,0.058,-0.047,-0.006,0.036,-1.575,0.048,0.179,106.7,88.7,40.493889,-3.386997,594.3,3,5,229.6,1.055
108.14,1,-0.04,0.01,0.003,-0.045,-0.002,0.027,-1.58,0.048,0.179,106.7,88.7,40.493889,-3.386997,594.3,3,5,229.6,1.055
108.24,1,-0.009,0.041,0.025,-0.033,0.019,0.02,-1.58,0.039,0.178,106.7,88.7,40.493889,-3.386997,594.3,3,5,229.6,1.055
108.35,1,0.027,0.023,0.013,0.011,0.022,0.025,-1.582,0.036,0.177,106.7,88.7,40.493889,-3.386997,594.3,3,5,229.6,1.055
108.43,1,0.05,0.012,-0.001,0.026,0.025,0.005,-1.584,0.036,0.177,106.7,88.7,40.493889,-3.386997,594.3,3,5,229.6,1.055
108.54,1,0.089,0.022,-0.014,0.057,0.018,-0.005,-1.586,0.037,0.176,106.7,88.7,40.493889,-3.386997,594.3,3,5,229.6,1.055
108.64,1,0.013,-0.017,0.002,0.041,0.003,0.0,-1.587,0.032,0.175,107.71,88.3,40.493748,-3.387217,596.6,3,5,228.9,1.406
108.75,1,-0.009,-0.022,-0.0,0.01,-0.009,-0.003,-1.59,0.024,0.174,107.71,88.3,40.493748,-3.387217,596.6,3,5,228.9,1.406
108.84,1,-0.042,-0.032,-0.011,-0.005,-0.02,-0.006,-1.59,0.024,0.173,107.71,88.3,40.493748,-3.387217,596.6,3,5,228.9,1.406
108.94,1,-0.03,-0.051,-0.015,-0.027,-0.035,-0.009,-1.591,0.023,0.172,107.71,88.3,40.493748,-3.387217,596.6,3,5,228.9,1.406
109.04,1,0.041,-0.048,0.008,0.005,-0.05,-0.007,-1.591,0.023,0.17,107.71,88.3,40.493748,-3.387217,596.6,3,5,228.9,1.406
109.14,1,-0.019,-0.027,-0.025,-0.006,-0.042,-0.009,-1.591,0.023,0.169,107.71,88.3,40.493748,-3.387217,596.6,3,5,228.9,1.406
109.24,1,0.007,-0.034,-0.014,0.002,-0.028,-0.011,-1.591,0.024,0.169,107.71,88.3,40.493748,-3.387217,596.6,3,5,228.9,1.406
109.35,1,0.011,0.024,0.006,0.002,-0.022,-0.011,-1.59,0.025,0.168,107.71,88.3,40.493748,-3.387217,596.6,3,5,228.9,1.406
109.44,1,0.003,-0.016,-0.018,0.006,0.004,-0.004,-1.59,0.026,0.167,107.71,88.3,40.493748,-3.387217,596.6,3,5,228.9,1.406
109.55,1,0.037,0.009,0.01,0.016,0.006,-0.002,-1.59,0.027,0.166,107.71,88.3,40.493748,-3.387217,596.6,3,5,228.9,1.406
109.64,1,0.001,0.076,0.009,0.013,0.036,0.006,-1.59,0.027,0.165,108.7,89.0,40.493603,-3.387434,594.1,3,5,228.5,1.055
109.74,1,0.036,0.059,0.019,0.026,0.051,0.012,-1.59,0.028,0.164,108.7,89.0,40.493603,-3.387434,594.1,3,5,228.5,1.055
109.85,1,-0.021,0.084,0.011,0.005,0.066,0.012,-1.59,0.028,0.163,108.7,89.0,40.493603,-3.387434,594.1,3,5,228.5,1.055
109.95,1,-0.01,0.051,0.024,-0.003,0.067,0.016,-1.59,0.027,0.162,108.7,89.0,40.493603,-3.387434,594.1,3,5,228.5,1.055
110.04,1,-0.041,0.012,-0.007,-0.023,0.044,0.008,-1.59,0.027,0.161,108.7,89.0,40.493603,-3.387434,594.1,3,5,228.5,1.055
110.14,1,-0.019,0.004,0.016,-0.028,0.005,0.007,-1.59,0.026,0.161,108.7,89.0,40.493603,-3.387434,594.1,3,5,228.5,1.055
110.24,1,-0.026,0.007,-0.004,-0.023,0.014,0.007,-1.591,0.027,0.16,108.7,89.0,40.493603,-3.387434,594.1,3,5,228.5,1.055
110.35,1,-0.076,-0.017,-0.01,-0.042,-0.001,-0.001,-1.59,0.028,0.159,108.7,89.0,40.493603,-3.387434,594.1,3,5,228.5,1.055
110.44,1,0.012,-0.003,0.023,-0.035,-0.01,0.003,-1.589,0.029,0.158,108.7,89.0,40.493603,-3.387434,594.1,3,5,228.5,1.055
110.55,1,-0.027,0.003,-0.025,-0.016,-0.004,-0.002,-1.585,0.035,0.157,108.7,89.0,40.493603,-3.387434,594.1,3,5,228.5,1.055
110.64,1,0.013,0.028,-0.017,-0.009,0.017,-0.013,-1.581,0.036,0.157,109.77,90.4,40.493454,-3.387654,594.3,3,5,228.5,0.352
110.75,1,0.058,0.01,-0.002,0.02,0.019,-0.013,-1.583,0.037,0.156,109.77,90.4,40.493454,-3.387654,594.3,3,5,228.5,0.352
110.84,1,0.026,-0.046,0.006,0.032,-0.011,0.001,-1.584,0.038,0.156,109.77,90.4,40.493454,-3.387654,594.3,3,5,228.5,0.352
