Timestamp_Accel,SystemActivated,accelerometerXAxis,accelerometerYAxis,accelerometerZAxis,AccelX_KF,AccelY_KF,AccelZ_KF,gyroscopeXAxis,gyroscopeYAxis,gyroscopeZAxis,Timestamp_GPS,Speed,latitude,longitude,Altitude,VerticalAccuracy,HorizontalAccuracy,Course,Difcourse
24.77,1,-0.027,0.022,0.08,-0.027,0.013,0.068,-1.647,0.005,-1.493,24.8,64.9,40.505768,-3.356164,605.5,3,5,275.3,0.352
24.87,1,0.021,0.015,0.033,-0.007,0.012,0.058,-1.65,0.003,-1.493,24.8,64.9,40.505768,-3.356164,605.5,3,5,275.3,0.352
24.97,1,0.035,0.02,0.035,0.018,0.011,0.041,-1.652,0.006,-1.493,24.8,64.9,40.505768,-3.356164,605.5,3,5,275.3,0.352
25.07,1,0.042,-0.003,0.029,0.03,0.012,0.037,-1.654,0.008,-1.492,24.8,64.9,40.505768,-3.356164,605.5,3,5,275.3,0.352
25.17,1,0.009,-0.009,0.001,0.029,0.001,0.019,-1.656,0.012,-1.492,24.8,64.9,40.505768,-3.356164,605.5,3,5,275.3,0.352
25.28,1,-0.03,0.0,0.015,-0.001,-0.004,0.011,-1.659,0.013,-1.492,24.8,64.9,40.505768,-3.356164,605.5,3,5,275.3,0.352
25.37,1,-0.04,0.006,0.011,-0.024,0.002,0.015,-1.663,0.011,-1.492,24.8,64.9,40.505768,-3.356164,605.5,3,5,275.3,0.352
25.47,1,-0.018,0.017,0.015,-0.019,0.017,0.011,-1.664,0.009,-1.492,24.8,64.9,40.505768,-3.356164,605.5,3,5,275.3,0.352
25.57,1,-0.045,0.034,-0.008,-0.034,0.014,0.006,-1.664,0.013,-1.492,24.8,64.9,40.505768,-3.356164,605.5,3,5,275.3,0.352
25.67,1,-0.047,0.002,-0.01,-0.046,0.013,-0.005,-1.666,0.014,-1.491,24.8,64.9,40.505768,-3.356164,605.5,3,5,275.3,0.352
25.78,1,-0.018,0.016,0.023,-0.036,0.016,0.008,-1.668,0.014,-1.491,25.71,68.2,40.505787,-3.356385,605.2,3,5,275.6,0.703
25.87,1,0.054,-0.001,0.011,0.011,0.011,0.011,-1.666,0.014,-1.491,25.71,68.2,40.505787,-3.356385,605.2,3,5,275.6,0.703
25.97,1,0.023,-0.026,-0.011,0.025,-0.006,0.005,-1.663,0.016,-1.49,25.71,68.2,40.505787,-3.356385,605.2,3,5,275.6,0.703
26.07,1,-0.012,-0.044,-0.005,0.005,-0.029,-0.006,-1.661,0.022,-1.488,25.71,68.2,40.505787,-3.356385,605.2,3,5,275.6,0.703
26.17,1,-0.037,-0.045,0.01,-0.016,-0.039,-0.0,-1.661,0.022,-1.486,25.71,68.2,40.505787,-3.356385,605.2,3,5,275.6,0.703
26.27,1,-0.029,-0.041,0.008,-0.023,-0.039,0.006,-1.662,0.023,-1.484,25.71,68.2,40.505787,-3.356385,605.2,3,5,275.6,0.703
26.38,1,-0.009,-0.007,0.019,-0.02,-0.025,0.012,-1.664,0.026,-1.482,25.71,68.2,40.505787,-3.356385,605.2,3,5,275.6,0.703
26.48,1,-0.007,-0.011,0.019,-0.012,-0.018,0.015,-1.668,0.028,-1.479,25.71,68.2,40.505787,-3.356385,605.2,3,5,275.6,0.703
26.57,1,-0.016,-0.046,0.045,-0.012,-0.026,0.028,-1.673,0.031,-1.476,25.71,68.2,40.505787,-3.356385,605.2,3,5,275.6,0.703
26.67,1,0.013,-0.054,0.039,-0.006,-0.04,0.04,-1.68,0.037,-1.473,25.71,68.2,40.505787,-3.356385,605.2,3,5,275.6,0.703
26.77,1,0.016,-0.021,0.03,0.011,-0.039,0.034,-1.683,0.043,-1.471,26.72,72.6,40.505806,-3.356624,605.3,3,5,276.0,0.703
26.88,1,0.007,-0.016,0.026,0.013,-0.026,0.029,-1.686,0.044,-1.469,26.72,72.6,40.505806,-3.356624,605.3,3,5,276.0,0.703
26.98,1,-0.023,0.02,0.027,-0.003,-0.003,0.027,-1.689,0.043,-1.467,26.72,72.6,40.505806,-3.356624,605.3,3,5,276.0,0.703
27.08,1,-0.074,-0.0,0.036,-0.041,0.001,0.031,-1.693,0.043,-1.465,26.72,72.6,40.505806,-3.356624,605.3,3,5,276.0,0.703
27.18,1,-0.039,-0.027,0.014,-0.05,-0.008,0.025,-1.695,0.042,-1.462,26.72,72.6,40.505806,-3.356624,605.3,3,5,276.0,0.703
27.28,1,-0.032,-0.024,0.025,-0.038,-0.019,0.02,-1.697,0.043,-1.459,26.72,72.6,40.505806,-3.356624,605.3,3,5,276.0,0.703
27.38,1,0.019,-0.032,0.03,-0.01,-0.027,0.032,-1.699,0.046,-1.456,26.72,72.6,40.505806,-3.356624,605.3,3,5,276.0,0.703
27.48,1,0.022,-0.057,-0.013,0.002,-0.038,0.01,-1.698,0.048,-1.453,26.72,72.6,40.505806,-3.356624,605.3,3,5,276.0,0.703
27.58,1,-0.025,-0.019,-0.0,0.0,-0.038,-0.001,-1.699,0.048,-1.451,26.72,72.6,40.505806,-3.356624,605.3,3,5,276.0,0.703
27.68,1,-0.015,-0.017,-0.001,-0.005,-0.027,0.001,-1.701,0.048,-1.448,26.72,72.6,40.505806,-3.356624,605.3,3,5,276.0,0.703
27.78,1,-0.029,-0.008,-0.02,-0.022,-0.012,-0.008,-1.701,0.05,-1.445,27.78,76.6,40.505825,-3.356863,605.3,3,5,275.3,0.703
27.88,1,-0.003,-0.013,0.0,-0.02,-0.009,-0.006,-1.7,0.051,-1.441,27.78,76.6,40.505825,-3.356863,605.3,3,5,275.3,0.703
27.98,1,0.029,-0.016,0.004,0.006,-0.014,-0.001,-1.7,0.052,-1.438,27.78,76.6,40.505825,-3.356863,605.3,3,5,275.3,0.703
28.08,1,0.018,0.017,-0.023,0.02,-0.004,-0.008,-1.697,0.052,-1.437,27.78,76.6,40.505825,-3.356863,605.3,3,5,275.3,0.703
28.19,1,-0.014,0.057,-0.009,0.003,0.024,-0.015,-1.695,0.048,-1.437,27.78,76.6,40.505825,-3.356863,605.3,3,5,275.3,0.703
28.28,1,-0.024,0.077,0.004,-0.007,0.054,-0.004,-1.696,0.04,-1.438,27.78,76.6,40.505825,-3.356863,605.3,3,5,275.3,0.703
28.38,1,-0.082,0.062,-0.022,-0.041,0.063,-0.01,-1.694,0.033,-1.439,27.78,76.6,40.505825,-3.356863,605.3,3,5,275.3,0.703
28.48,1,-0.038,0.077,-0.001,-0.052,0.066,-0.011,-1.694,0.026,-1.441,27.78,76.6,40.505825,-3.356863,605.3,3,5,275.3,0.703
28.58,1,0.005,0.073,0.015,-0.03,0.07,0.003,-1.694,0.018,-1.443,27.78,76.6,40.505825,-3.356863,605.3,3,5,275.3,0.703
28.68,1,0.026,0.062,-0.02,-0.0,0.072,-0.002,-1.693,0.01,-1.445,27.78,76.6,40.505825,-3.356863,605.3,3,5,275.3,0.703
28.78,1,-0.01,0.049,-0.024,0.007,0.065,-0.017,-1.689,0.005,-1.447,28.71,82.0,40.50584,-3.357125,605.3,3,5,275.3,0.703
28.88,1,-0.042,0.068,-0.022,-0.021,0.054,-0.027,-1.686,-0.002,-1.448,28.71,82.0,40.50584,-3.357125,605.3,3,5,275.3,0.703
28.98,1,-0.055,-0.008,-0.065,-0.037,0.035,-0.03,-1.686,-0.002,-1.45,28.71,82.0,40.50584,-3.357125,605.3,3,5,275.3,0.703
29.08,1,0.031,-0.004,-0.147,-0.011,0.017,-0.088,-1.682,-0.002,-1.451,28.71,82.0,40.50584,-3.357125,605.3,3,5,275.3,0.703
29.18,1,-0.029,0.043,-0.169,-0.013,0.012,-0.136,-1.68,-0.005,-1.453,28.71,82.0,40.50584,-3.357125,605.3,3,5,275.3,0.703
29.28,1,0.001,0.058,-0.157,-0.008,0.034,-0.152,-1.68,-0.006,-1.455,28.71,82.0,40.50584,-3.357125,605.3,3,5,275.3,0.703
29.38,1,-0.01,0.037,-0.122,-0.007,0.047,-0.14,-1.669,-0.01,-1.456,28.71,82.0,40.50584,-3.357125,605.3,3,5,275.3,0.703
29.49,1,-0.04,0.032,-0.14,-0.022,0.04,-0.136,-1.656,-0.013,-1.458,28.71,82.0,40.50584,-3.357125,605.3,3,5,275.3,0.703
29.59,1,-0.048,0.033,-0.109,-0.035,0.032,-0.127,-1.645,-0.02,-1.46,28.71,82.0,40.50584,-3.357125,605.3,3,5,275.3,0.703
29.69,1,-0.024,0.029,-0.093,-0.04,0.034,-0.11,-1.638,-0.024,-1.463,28.71,82.0,40.50584,-3.357125,605.3,3,5,275.3,0.703
29.78,1,-0.006,0.029,-0.089,-0.013,0.033,-0.097,-1.628,-0.028,-1.465,29.71,86.7,40.505856,-3.357412,605.4,3,5,273.9,1.406
29.89,1,-0.038,0.043,-0.1,-0.021,0.034,-0.098,-1.62,-0.032,-1.467,29.71,86.7,40.505856,-3.357412,605.4,3,5,273.9,1.406
29.98,1,-0.008,0.058,-0.057,-0.032,0.04,-0.081,-1.613,-0.035,-1.469,29.71,86.7,40.505856,-3.357412,605.4,3,5,273.9,1.406
30.1,1,0.05,0.044,-0.069,0.017,0.049,-0.063,-1.606,-0.039,-1.471,29.71,86.7,40.505856,-3.357412,605.4,3,5,273.9,1.406
30.18,1,-0.044,0.015,-0.109,-0.001,0.038,-0.091,-1.598,-0.037,-1.473,29.71,86.7,40.505856,-3.357412,605.4,3,5,273.9,1.406
30.29,1,0.074,-0.017,-0.037,0.016,0.009,-0.068,-1.597,-0.032,-1.474,29.71,86.7,40.505856,-3.357412,605.4,3,5,273.9,1.406
30.39,1,0.005,-0.036,-0.122,0.026,-0.021,-0.083,-1.587,-0.026,-1.475,29.71,86.7,40.505856,-3.357412,605.4,3,5,273.9,1.406
30.49,1,-0.047,-0.006,-0.123,-0.008,-0.015,-0.116,-1.578,-0.023,-1.476,29.71,86.7,40.505856,-3.357412,605.4,3,5,273.9,1.406
30.59,1,-0.047,0.026,-0.05,-0.032,0.007,-0.091,-1.577,-0.025,-1.477,29.71,86.7,40.505856,-3.357412,605.4,3,5,273.9,1.406
30.7,1,0.009,0.034,0.011,-0.022,0.015,-0.034,-1.58,-0.023,-1.478,29.71,86.7,40.505856,-3.357412,605.4,3,5,273.9,1.406
30.79,1,0.07,-0.036,-0.04,0.024,-0.005,-0.028,-1.577,-0.025,-1.478,30.71,87.6,40.505871,-3.357689,605.5,3,5,275.3,1.406
30.89,1,0.022,-0.012,-0.074,0.035,-0.008,-0.051,-1.575,-0.025,-1.478,30.71,87.6,40.505871,-3.357689,605.5,3,5,275.3,1.406
30.99,1,-0.048,0.004,-0.042,0.002,-0.006,-0.052,-1.573,-0.024,-1.478,30.71,87.6,40.505871,-3.357689,605.5,3,5,275.3,1.406
31.09,1,-0.087,-0.019,-0.002,-0.044,-0.008,-0.029,-1.574,-0.023,-1.478,30.71,87.6,40.505871,-3.357689,605.5,3,5,275.3,1.406
31.19,1,-0.037,-0.025,-0.005,-0.062,-0.016,-0.012,-1.577,-0.02,-1.477,30.71,87.6,40.505871,-3.357689,605.5,3,5,275.3,1.406
31.3,1,0.001,-0.051,-0.018,-0.026,-0.035,-0.012,-1.575,-0.013,-1.476,30.71,87.6,40.505871,-3.357689,605.5,3,5,275.3,1.406
31.39,1,-0.02,-0.013,-0.025,-0.016,-0.028,-0.021,-1.572,-0.009,-1.475,30.71,87.6,40.505871,-3.357689,605.5,3,5,275.3,1.406
31.49,1,-0.008,-0.02,0.004,-0.014,-0.02,-0.013,-1.574,-0.007,-1.474,30.71,87.6,40.505871,-3.357689,605.5,3,5,275.3,1.406
31.59,1,-0.048,-0.044,-0.036,-0.026,-0.031,-0.016,-1.574,-0.002,-1.473,30.71,87.6,40.505871,-3.357689,605.5,3,5,275.3,1.406
31.7,1,-0.011,-0.032,0.016,-0.03,-0.036,-0.009,-1.574,0.002,-1.473,30.71,87.6,40.505871,-3.357689,605.5,3,5,275.3,1.406
31.79,1,0.056,0.013,-0.017,0.009,-0.018,-0.002,-1.574,0.006,-1.473,31.71,85.9,40.50589,-3.357972,605.2,3,5,276.3,2.461
31.89,1,-0.018,-0.012,-0.028,0.013,-0.006,-0.021,-1.572,0.006,-1.472,31.71,85.9,40.50589,-3.357972,605.2,3,5,276.3,2.461
31.99,1,-0.032,-0.021,0.012,-0.021,-0.011,-0.012,-1.573,0.007,-1.471,31.71,85.9,40.50589,-3.357972,605.2,3,5,276.3,2.461
32.09,1,-0.001,0.001,0.021,-0.005,-0.005,0.011,-1.577,0.01,-1.47,31.71,85.9,40.50589,-3.357972,605.2,3,5,276.3,2.461
32.19,1,-0.02,-0.014,-0.001,-0.011,-0.01,0.008,-1.578,0.011,-1.468,31.71,85.9,40.50589,-3.357972,605.2,3,5,276.3,2.461
32.29,1,-0.021,-0.049,0.035,-0.022,-0.031,0.014,-1.58,0.013,-1.466,31.71,85.9,40.50589,-3.357972,605.2,3,5,276.3,2.461
32.39,1,-0.001,-0.03,0.012,-0.012,-0.034,0.022,-1.583,0.014,-1.465,31.71,85.9,40.50589,-3.357972,605.2,3,5,276.3,2.461
32.5,1,-0.014,-0.002,0.007,-0.005,-0.019,0.012,-1.585,0.014,-1.463,31.71,85.9,40.50589,-3.357972,605.2,3,5,276.3,2.461
32.59,1,-0.016,0.015,0.012,-0.014,-0.001,0.009,-1.587,0.015,-1.462,31.71,85.9,40.50589,-3.357972,605.2,3,5,276.3,2.461
32.69,1,-0.022,0.004,0.016,-0.019,0.007,0.015,-1.59,0.016,-1.461,31.71,85.9,40.50589,-3.357972,605.2,3,5,276.3,2.461
32.79,1,-0.044,-0.014,0.001,-0.028,-0.001,0.008,-1.591,0.016,-1.46,32.71,85.1,40.505913,-3.358251,604.9,3,5,276.0,0.703
32.89,1,-0.034,-0.014,0.008,-0.034,-0.012,0.008,-1.59,0.015,-1.459,32.71,85.1,40.505913,-3.358251,604.9,3,5,276.0,0.703
32.99,1,-0.034,-0.013,-0.02,-0.033,-0.014,-0.003,-1.591,0.013,-1.458,32.71,85.1,40.505913,-3.358251,604.9,3,5,276.0,0.703
33.1,1,-0.017,-0.001,-0.014,-0.027,-0.002,-0.015,-1.59,0.009,-1.458,32.71,85.1,40.505913,-3.358251,604.9,3,5,276.0,0.703
33.2,1,0.005,0.032,-0.035,-0.013,0.007,-0.02,-1.588,0.007,-1.456,32.71,85.1,40.505913,-3.358251,604.9,3,5,276.0,0.703
33.29,1,-0.062,-0.013,-0.042,-0.031,0.002,-0.035,-1.584,0.006,-1.455,32.71,85.1,40.505913,-3.358251,604.9,3,5,276.0,0.703
33.39,1,0.002,-0.016,0.007,-0.025,-0.007,-0.019,-1.583,0.007,-1.453,32.71,85.1,40.505913,-3.358251,604.9,3,5,276.0,0.703
33.49,1,0.006,-0.043,-0.041,-0.008,-0.022,-0.023,-1.581,0.009,-1.452,32.71,85.1,40.505913,-3.358251,604.9,3,5,276.0,0.703
33.59,1,0.043,0.001,0.008,0.02,-0.018,-0.012,-1.579,0.008,-1.45,32.71,85.1,40.505913,-3.358251,604.9,3,5,276.0,0.703
33.7,1,-0.03,-0.021,-0.052,0.01,-0.016,-0.027,-1.574,0.01,-1.449,32.71,85.1,40.505913,-3.358251,604.9,3,5,276.0,0.703
33.9,1,-0.034,0.0,-0.013,-0.022,-0.014,-0.001,-1.576,0.01,-1.446,33.72,87.3,40.505936,-3.35853,605.5,3,5,276.0,0.352
34.0,1,-0.022,-0.036,-0.018,-0.031,-0.018,-0.017,-1.571,0.011,-1.444,33.72,87.3,40.505936,-3.35853,605.5,3,5,276.0,0.352
34.1,1,-0.009,-0.033,-0.001,-0.01,-0.03,-0.006,-1.571,0.015,-1.442,33.72,87.3,40.505936,-3.35853,605.5,3,5,276.0,0.352
34.2,1,-0.031,-0.012,-0.032,-0.022,-0.023,-0.024,-1.569,0.013,-1.44,33.72,87.3,40.505936,-3.35853,605.5,3,5,276.0,0.352
34.3,1,0.001,0.01,0.026,-0.022,-0.006,0.001,-1.57,0.01,-1.438,33.72,87.3,40.505936,-3.35853,605.5,3,5,276.0,0.352
34.4,1,-0.002,0.0,-0.02,0.003,0.002,-0.001,-1.569,0.012,-1.436,33.72,87.3,40.505936,-3.35853,605.5,3,5,276.0,0.352
34.5,1,-0.058,-0.006,0.008,-0.028,-0.002,-0.007,-1.569,0.017,-1.434,33.72,87.3,40.505936,-3.35853,605.5,3,5,276.0,0.352
34.6,1,-0.013,-0.022,0.025,-0.035,-0.013,0.014,-1.572,0.021,-1.432,33.72,87.3,40.505936,-3.35853,605.5,3,5,276.0,0.352
34.7,1,-0.013,-0.015,0.013,-0.017,-0.017,0.015,-1.574,0.023,-1.43,33.72,87.3,40.505936,-3.35853,605.5,3,5,276.0,0.352
34.8,1,0.021,-0.04,0.026,-0.004,-0.027,0.019,-1.576,0.025,-1.427,33.72,87.3,40.505936,-3.35853,605.5,3,5,276.0,0.352
34.9,1,0.011,-0.057,0.008,0.012,-0.04,0.018,-1.579,0.029,-1.423,34.71,87.7,40.505962,-3.358829,604.9,3,5,275.6,0.352
35.0,1,0.011,-0.056,0.019,0.012,-0.05,0.014,-1.579,0.035,-1.419,34.71,87.7,40.505962,-3.358829,604.9,3,5,275.6,0.352
35.1,1,-0.008,-0.04,-0.003,0.0,-0.049,0.008,-1.58,0.039,-1.415,34.71,87.7,40.505962,-3.358829,604.9,3,5,275.6,0.352
35.2,1,-0.032,-0.041,0.01,-0.007,-0.039,0.007,-1.582,0.042,-1.411,34.71,87.7,40.505962,-3.358829,604.9,3,5,275.6,0.352
35.3,1,-0.056,-0.054,0.026,-0.039,-0.05,0.015,-1.584,0.044,-1.406,34.71,87.7,40.505962,-3.358829,604.9,3,5,275.6,0.352
35.4,1,0.001,-0.016,0.007,-0.023,-0.036,0.016,-1.585,0.045,-1.403,34.71,87.7,40.505962,-3.358829,604.9,3,5,275.6,0.352
35.5,1,-0.016,-0.027,0.018,-0.01,-0.028,0.015,-1.586,0.047,-1.399,34.71,87.7,40.505962,-3.358829,604.9,3,5,275.6,0.352
35.61,1,-0.016,-0.006,0.013,-0.021,-0.02,0.013,-1.587,0.047,-1.396,34.71,87.7,40.505962,-3.358829,604.9,3,5,275.6,0.352
35.7,1,-0.008,0.007,0.011,-0.015,-0.002,0.012,-1.589,0.046,-1.392,34.71,87.7,40.505962,-3.358829,604.9,3,5,275.6,0.352
35.8,1,-0.024,-0.014,0.02,-0.019,-0.006,0.017,-1.589,0.047,-1.388,34.71,87.7,40.505962,-3.358829,604.9,3,5,275.6,0.352
35.9,1,-0.016,-0.03,0.018,-0.017,-0.016,0.017,-1.59,0.051,-1.384,35.74,87.6,40.505978,-3.359116,604.2,3,5,274.2,1.758
36.01,1,-0.036,-0.019,-0.006,-0.026,-0.028,0.006,-1.591,0.055,-1.381,35.74,87.6,40.505978,-3.359116,604.2,3,5,274.2,1.758
36.1,1,0.001,0.012,0.027,-0.017,-0.008,0.014,-1.594,0.054,-1.379,35.74,87.6,40.505978,-3.359116,604.2,3,5,274.2,1.758
36.2,1,-0.026,0.017,0.014,-0.011,0.006,0.019,-1.595,0.052,-1.377,35.74,87.6,40.505978,-3.359116,604.2,3,5,274.2,1.758
36.3,1,-0.029,0.032,-0.004,-0.026,0.023,0.003,-1.596,0.048,-1.375,35.74,87.6,40.505978,-3.359116,604.2,3,5,274.2,1.758
36.4,1,0.029,0.028,0.033,-0.005,0.028,0.017,-1.599,0.046,-1.372,35.74,87.6,40.505978,-3.359116,604.2,3,5,274.2,1.758
36.5,1,0.003,-0.013,-0.003,0.014,0.012,0.014,-1.6,0.046,-1.37,35.74,87.6,40.505978,-3.359116,604.2,3,5,274.2,1.758
36.61,1,-0.01,-0.007,0.008,-0.005,-0.006,0.005,-1.6,0.047,-1.367,35.74,87.6,40.505978,-3.359116,604.2,3,5,274.2,1.758
36.7,1,-0.026,0.009,-0.015,-0.013,0.002,-0.002,-1.601,0.044,-1.364,35.74,87.6,40.505978,-3.359116,604.2,3,5,274.2,1.758
36.81,1,-0.044,-0.022,0.014,-0.031,-0.007,0.0,-1.601,0.041,-1.362,35.74,87.6,40.505978,-3.359116,604.2,3,5,274.2,1.758
36.9,1,0.018,-0.019,0.005,-0.015,-0.016,0.009,-1.601,0.04,-1.359,36.79,89.4,40.505985,-3.3594,603.8,3,5,271.8,3.867
37.0,1,-0.011,-0.01,-0.019,0.001,-0.015,-0.005,-1.596,0.039,-1.356,36.79,89.4,40.505985,-3.3594,603.8,3,5,271.8,3.867
37.11,1,-0.074,-0.028,-0.036,-0.034,-0.019,-0.026,-1.594,0.041,-1.354,36.79,89.4,40.505985,-3.3594,603.8,3,5,271.8,3.867
37.21,1,-0.029,-0.017,0.024,-0.048,-0.021,-0.006,-1.596,0.04,-1.351,36.79,89.4,40.505985,-3.3594,603.8,3,5,271.8,3.867
37.31,1,0.014,0.037,-0.051,-0.015,0.003,-0.012,-1.596,0.037,-1.349,36.79,89.4,40.505985,-3.3594,603.8,3,5,271.8,3.867
37.42,1,-0.042,0.008,-0.012,-0.018,0.015,-0.026,-1.596,0.037,-1.348,36.79,89.4,40.505985,-3.3594,603.8,3,5,271.8,3.867
37.52,1,-0.0,0.038,0.004,-0.017,0.023,-0.007,-1.596,0.032,-1.347,36.79,89.4,40.505985,-3.3594,603.8,3,5,271.8,3.867
37.61,1,-0.024,0.049,-0.016,-0.017,0.045,-0.012,-1.594,0.027,-1.346,36.79,89.4,40.505985,-3.3594,603.8,3,5,271.8,3.867
37.71,1,-0.014,0.001,-0.014,-0.017,0.022,-0.016,-1.594,0.03,-1.343,36.79,89.4,40.505985,-3.3594,603.8,3,5,271.8,3.867
37.81,1,0.004,-0.018,-0.002,-0.004,-0.001,-0.006,-1.594,0.034,-1.341,36.79,89.4,40.505985,-3.3594,603.8,3,5,271.8,3.867
37.91,1,-0.01,-0.015,-0.035,-0.007,-0.006,-0.018,-1.592,0.034,-1.34,37.71,89.9,40.505989,-3.3597,604.1,3,5,270.7,3.516
38.01,1,-0.036,0.015,-0.018,-0.017,-0.003,-0.022,-1.591,0.033,-1.338,37.71,89.9,40.505989,-3.3597,604.1,3,5,270.7,3.516
38.11,1,-0.044,0.023,0.006,-0.032,0.009,-0.009,-1.592,0.029,-1.337,37.71,89.9,40.505989,-3.3597,604.1,3,5,270.7,3.516
38.21,1,-0.06,0.025,0.018,-0.05,0.024,0.003,-1.594,0.029,-1.335,37.71,89.9,40.505989,-3.3597,604.1,3,5,270.7,3.516
38.31,1,-0.012,0.007,0.026,-0.034,0.015,0.017,-1.596,0.028,-1.333,37.71,89.9,40.505989,-3.3597,604.1,3,5,270.7,3.516
38.41,1,0.014,0.013,0.001,-0.013,0.014,0.012,-1.596,0.03,-1.332,37.71,89.9,40.505989,-3.3597,604.1,3,5,270.7,3.516
38.51,1,-0.021,-0.001,0.001,-0.005,0.006,0.008,-1.598,0.029,-1.33,37.71,89.9,40.505989,-3.3597,604.1,3,5,270.7,3.516
38.61,1,-0.006,0.02,0.034,-0.014,0.003,0.014,-1.599,0.028,-1.328,37.71,89.9,40.505989,-3.3597,604.1,3,5,270.7,3.516
38.71,1,-0.029,0.011,-0.011,-0.014,0.014,0.015,-1.598,0.026,-1.327,37.71,89.9,40.505989,-3.3597,604.1,3,5,270.7,3.516
38.82,1,-0.023,0.017,0.016,-0.021,0.018,0.001,-1.599,0.026,-1.325,37.71,89.9,40.505989,-3.3597,604.1,3,5,270.7,3.516
38.91,1,-0.022,0.031,0.005,-0.018,0.023,0.016,-1.599,0.024,-1.323,38.71,90.3,40.505989,-3.359988,604.0,3,5,269.6,2.109
39.01,1,-0.062,-0.011,0.042,-0.043,0.011,0.015,-1.598,0.024,-1.322,38.71,90.3,40.505989,-3.359988,604.0,3,5,269.6,2.109
39.11,1,-0.005,-0.034,0.053,-0.033,-0.015,0.042,-1.599,0.025,-1.32,38.71,90.3,40.505989,-3.359988,604.0,3,5,269.6,2.109
39.22,1,0.012,-0.031,0.026,-0.005,-0.023,0.033,-1.598,0.024,-1.318,38.71,90.3,40.505989,-3.359988,604.0,3,5,269.6,2.109
39.31,1,-0.039,-0.022,0.029,-0.009,-0.026,0.03,-1.6,0.026,-1.316,38.71,90.3,40.505989,-3.359988,604.0,3,5,269.6,2.109
39.41,1,-0.115,0.014,0.015,-0.066,-0.011,0.025,-1.602,0.026,-1.314,38.71,90.3,40.505989,-3.359988,604.0,3,5,269.6,2.109
39.51,1,-0.095,0.007,0.057,-0.092,0.004,0.035,-1.606,0.027,-1.311,38.71,90.3,40.505989,-3.359988,604.0,3,5,269.6,2.109
39.61,1,-0.051,-0.024,0.029,-0.076,-0.002,0.041,-1.609,0.031,-1.308,38.71,90.3,40.505989,-3.359988,604.0,3,5,269.6,2.109
39.71,1,0.048,-0.039,0.043,-0.021,-0.024,0.035,-1.612,0.033,-1.305,38.71,90.3,40.505989,-3.359988,604.0,3,5,269.6,2.109
39.81,1,0.06,-0.003,0.004,0.034,-0.025,0.028,-1.612,0.036,-1.302,38.71,90.3,40.505989,-3.359988,604.0,3,5,269.6,2.109
39.92,1,-0.036,-0.012,-0.008,0.012,-0.011,0.003,-1.613,0.036,-1.3,39.74,90.8,40.505981,-3.360289,605.6,3,5,268.2,2.461
40.02,1,-0.053,-0.004,0.027,-0.028,-0.007,0.014,-1.617,0.036,-1.297,39.74,90.8,40.505981,-3.360289,605.6,3,5,268.2,2.461
40.11,1,-0.037,-0.005,0.027,-0.037,-0.007,0.024,-1.617,0.036,-1.294,39.74,90.8,40.505981,-3.360289,605.6,3,5,268.2,2.461
40.21,1,-0.024,-0.038,0.012,-0.035,-0.017,0.017,-1.619,0.039,-1.291,39.74,90.8,40.505981,-3.360289,605.6,3,5,268.2,2.461
40.31,1,-0.003,-0.011,0.005,-0.015,-0.02,0.011,-1.62,0.041,-1.288,39.74,90.8,40.505981,-3.360289,605.6,3,5,268.2,2.461
40.41,1,-0.006,0.011,0.003,-0.012,-0.007,0.006,-1.622,0.037,-1.285,39.74,90.8,40.505981,-3.360289,605.6,3,5,268.2,2.461
40.52,1,-0.03,-0.002,0.006,-0.015,-0.0,0.008,-1.623,0.036,-1.281,39.74,90.8,40.505981,-3.360289,605.6,3,5,268.2,2.461
40.62,1,-0.004,-0.015,0.012,-0.017,-0.006,0.007,-1.624,0.041,-1.278,39.74,90.8,40.505981,-3.360289,605.6,3,5,268.2,2.461
40.72,1,0.013,-0.044,0.011,-0.002,-0.024,0.009,-1.625,0.043,-1.275,39.74,90.8,40.505981,-3.360289,605.6,3,5,268.2,2.461
40.82,1,-0.015,-0.027,-0.028,0.003,-0.028,-0.002,-1.625,0.041,-1.273,39.74,90.8,40.505981,-3.360289,605.6,3,5,268.2,2.461
40.93,1,0.037,-0.024,-0.003,0.011,-0.03,-0.017,-1.626,0.039,-1.27,40.77,92.1,40.505974,-3.360584,604.3,3,5,267.2,2.461
41.02,1,0.016,-0.015,-0.002,0.012,-0.022,0.0,-1.628,0.033,-1.267,40.77,92.1,40.505974,-3.360584,604.3,3,5,267.2,2.461
41.12,1,-0.049,0.019,-0.032,-0.007,0.002,-0.015,-1.626,0.031,-1.265,40.77,92.1,40.505974,-3.360584,604.3,3,5,267.2,2.461
41.22,1,-0.027,0.026,0.017,-0.031,0.016,-0.01,-1.628,0.032,-1.262,40.77,92.1,40.505974,-3.360584,604.3,3,5,267.2,2.461
41.32,1,0.016,0.02,-0.008,-0.006,0.016,0.001,-1.629,0.034,-1.259,40.77,92.1,40.505974,-3.360584,604.3,3,5,267.2,2.461
41.42,1,0.008,-0.009,-0.032,0.002,0.008,-0.016,-1.627,0.037,-1.256,40.77,92.1,40.505974,-3.360584,604.3,3,5,267.2,2.461
41.52,1,0.007,-0.043,-0.02,0.006,-0.021,-0.017,-1.626,0.04,-1.252,40.77,92.1,40.505974,-3.360584,604.3,3,5,267.2,2.461
41.62,1,0.009,-0.0,-0.046,0.009,-0.015,-0.03,-1.62,0.039,-1.25,40.77,92.1,40.505974,-3.360584,604.3,3,5,267.2,2.461
41.72,1,-0.001,0.012,-0.074,0.004,-0.001,-0.055,-1.612,0.037,-1.248,40.77,92.1,40.505974,-3.360584,604.3,3,5,267.2,2.461
41.82,1,-0.039,0.029,-0.075,-0.014,0.015,-0.065,-1.605,0.034,-1.246,40.77,92.1,40.505974,-3.360584,604.3,3,5,267.2,2.461
41.92,1,-0.03,0.023,-0.066,-0.027,0.021,-0.072,-1.597,0.031,-1.244,41.72,93.6,40.505959,-3.360883,604.5,3,5,265.8,2.461
42.02,1,0.039,0.016,-0.042,0.001,0.016,-0.054,-1.594,0.03,-1.243,41.72,93.6,40.505959,-3.360883,604.5,3,5,265.8,2.461
42.12,1,0.004,0.012,-0.054,0.008,0.018,-0.056,-1.588,0.026,-1.241,41.72,93.6,40.505959,-3.360883,604.5,3,5,265.8,2.461
42.22,1,0.006,0.025,-0.046,0.006,0.02,-0.045,-1.585,0.024,-1.239,41.72,93.6,40.505959,-3.360883,604.5,3,5,265.8,2.461
42.32,1,-0.022,0.014,-0.065,0.002,0.01,-0.05,-1.582,0.023,-1.237,41.72,93.6,40.505959,-3.360883,604.5,3,5,265.8,2.461
42.43,1,-0.09,0.015,-0.064,-0.05,0.022,-0.072,-1.581,0.02,-1.234,41.72,93.6,40.505959,-3.360883,604.5,3,5,265.8,2.461
42.52,1,-0.036,0.011,-0.023,-0.056,0.022,-0.043,-1.584,0.021,-1.231,41.72,93.6,40.505959,-3.360883,604.5,3,5,265.8,2.461
42.62,1,-0.018,-0.02,-0.053,-0.032,-0.006,-0.039,-1.584,0.022,-1.227,41.72,93.6,40.505959,-3.360883,604.5,3,5,265.8,2.461
42.72,1,0.033,-0.035,-0.049,-0.005,-0.019,-0.051,-1.582,0.023,-1.224,41.72,93.6,40.505959,-3.360883,604.5,3,5,265.8,2.461
42.82,1,0.055,-0.006,-0.076,0.027,-0.015,-0.053,-1.575,0.025,-1.222,41.72,93.6,40.505959,-3.360883,604.5,3,5,265.8,2.461
42.92,1,0.027,0.014,-0.053,0.039,-0.002,-0.066,-1.568,0.025,-1.22,42.72,94.9,40.505936,-3.361202,606.2,3,5,264.4,2.812
43.02,1,-0.056,0.022,-0.044,-0.005,0.011,-0.055,-1.562,0.022,-1.217,42.72,94.9,40.505936,-3.361202,606.2,3,5,264.4,2.812
43.12,1,-0.031,-0.001,-0.024,-0.023,0.007,-0.037,-1.561,0.022,-1.215,42.72,94.9,40.505936,-3.361202,606.2,3,5,264.4,2.812
43.22,1,-0.035,-0.022,-0.014,-0.032,-0.0,-0.026,-1.562,0.021,-1.212,42.72,94.9,40.505936,-3.361202,606.2,3,5,264.4,2.812
43.32,1,-0.015,-0.013,-0.011,-0.026,-0.015,-0.016,-1.56,0.018,-1.209,42.72,94.9,40.505936,-3.361202,606.2,3,5,264.4,2.812
43.42,1,-0.024,-0.001,0.005,-0.023,-0.009,-0.006,-1.561,0.017,-1.207,42.72,94.9,40.505936,-3.361202,606.2,3,5,264.4,2.812
43.53,1,0.03,0.01,0.008,-0.001,0.002,0.001,-1.559,0.015,-1.204,42.72,94.9,40.505936,-3.361202,606.2,3,5,264.4,2.812
43.62,1,0.034,0.017,-0.004,0.018,0.006,0.005,-1.559,0.013,-1.202,42.72,94.9,40.505936,-3.361202,606.2,3,5,264.4,2.812
43.82,1,-0.034,-0.003,-0.014,-0.011,-0.001,-0.019,-1.557,0.013,-1.197,42.72,94.9,40.505936,-3.361202,606.2,3,5,264.4,2.812
43.93,1,-0.029,0.01,0.008,-0.028,0.002,-0.005,-1.56,0.012,-1.195,42.72,94.9,40.505936,-3.361202,606.2,3,5,264.4,2.812
44.03,1,0.035,0.051,0.026,0.0,0.022,0.013,-1.56,0.008,-1.194,43.72,93.3,40.505901,-3.361505,607.2,3,5,262.3,3.516
44.13,1,0.03,0.053,-0.017,0.023,0.039,0.004,-1.558,0.002,-1.194,43.72,93.3,40.505901,-3.361505,607.2,3,5,262.3,3.516
44.23,1,-0.019,0.072,0.002,0.006,0.057,-0.006,-1.558,-0.005,-1.195,43.72,93.3,40.505901,-3.361505,607.2,3,5,262.3,3.516
44.33,1,-0.07,0.042,0.018,-0.029,0.058,0.011,-1.561,-0.011,-1.194,43.72,93.3,40.505901,-3.361505,607.2,3,5,262.3,3.516
44.43,1,0.03,0.066,0.007,-0.018,0.057,0.01,-1.56,-0.016,-1.194,43.72,93.3,40.505901,-3.361505,607.2,3,5,262.3,3.516
44.53,1,0.023,0.053,-0.038,0.009,0.052,-0.01,-1.559,-0.017,-1.194,43.72,93.3,40.505901,-3.361505,607.2,3,5,262.3,3.516
44.63,1,-0.039,0.024,-0.01,-0.003,0.048,-0.019,-1.557,-0.018,-1.193,43.72,93.3,40.505901,-3.361505,607.2,3,5,262.3,3.516
44.73,1,-0.034,0.029,0.049,-0.032,0.036,0.002,-1.561,-0.021,-1.193,43.72,93.3,40.505901,-3.361505,607.2,3,5,262.3,3.516
44.83,1,0.009,0.037,0.047,-0.022,0.033,0.041,-1.561,-0.023,-1.193,43.72,93.3,40.505901,-3.361505,607.2,3,5,262.3,3.516
44.93,1,0.007,0.036,-0.011,0.011,0.03,0.018,-1.558,-0.025,-1.192,43.72,93.3,40.505901,-3.361505,607.2,3,5,262.3,3.516
45.03,1,-0.055,0.035,-0.01,-0.014,0.033,0.001,-1.56,-0.026,-1.192,44.75,91.8,40.505867,-3.361799,606.4,3,5,260.5,3.867
45.13,1,-0.048,0.009,0.071,-0.041,0.027,0.021,-1.565,-0.029,-1.191,44.75,91.8,40.505867,-3.361799,606.4,3,5,260.5,3.867
45.24,1,0.017,0.013,0.029,-0.026,0.011,0.043,-1.566,-0.029,-1.189,44.75,91.8,40.505867,-3.361799,606.4,3,5,260.5,3.867
45.33,1,0.053,0.018,0.02,0.022,0.02,0.032,-1.565,-0.03,-1.188,44.75,91.8,40.505867,-3.361799,606.4,3,5,260.5,3.867
45.43,1,0.011,0.008,0.002,0.026,0.017,0.015,-1.565,-0.027,-1.187,44.75,91.8,40.505867,-3.361799,606.4,3,5,260.5,3.867
45.53,1,-0.04,-0.011,0.04,-0.006,-0.002,0.021,-1.569,-0.021,-1.185,44.75,91.8,40.505867,-3.361799,606.4,3,5,260.5,3.867
45.63,1,-0.03,-0.047,0.043,-0.026,-0.02,0.037,-1.574,-0.014,-1.182,44.75,91.8,40.505867,-3.361799,606.4,3,5,260.5,3.867
45.73,1,0.011,-0.05,0.008,-0.012,-0.034,0.024,-1.574,-0.011,-1.179,44.75,91.8,40.505867,-3.361799,606.4,3,5,260.5,3.867
45.83,1,-0.023,0.006,0.015,-0.011,-0.028,0.017,-1.575,-0.007,-1.177,44.75,91.8,40.505867,-3.361799,606.4,3,5,260.5,3.867
45.93,1,0.007,-0.04,0.031,-0.002,-0.03,0.022,-1.577,-0.0,-1.175,44.75,91.8,40.505867,-3.361799,606.4,3,5,260.5,3.867
46.03,1,0.012,-0.038,0.019,0.005,-0.03,0.023,-1.577,0.001,-1.172,45.72,91.6,40.505825,-3.362103,606.0,3,5,260.2,2.109
46.13,1,-0.026,0.002,-0.008,-0.009,-0.015,0.01,-1.577,0.0,-1.169,45.72,91.6,40.505825,-3.362103,606.0,3,5,260.2,2.109
46.23,1,-0.02,-0.0,0.008,-0.014,-0.008,0.004,-1.578,-0.001,-1.167,45.72,91.6,40.505825,-3.362103,606.0,3,5,260.2,2.109
46.33,1,0.002,-0.017,0.025,-0.012,-0.01,0.015,-1.579,0.002,-1.164,45.72,91.6,40.505825,-3.362103,606.0,3,5,260.2,2.109
46.45,1,0.006,-0.013,0.015,-0.002,-0.008,0.016,-1.579,0.003,-1.161,45.72,91.6,40.505825,-3.362103,606.0,3,5,260.2,2.109
46.53,1,-0.001,-0.001,-0.011,0.003,-0.007,0.008,-1.578,0.002,-1.159,45.72,91.6,40.505825,-3.362103,606.0,3,5,260.2,2.109
46.64,1,-0.023,0.0,-0.001,-0.008,-0.007,-0.004,-1.579,0.004,-1.156,45.72,91.6,40.505825,-3.362103,606.0,3,5,260.2,2.109
46.74,1,-0.018,0.0,0.024,-0.013,0.001,0.007,-1.581,0.006,-1.154,45.72,91.6,40.505825,-3.362103,606.0,3,5,260.2,2.109
46.83,1,-0.014,0.014,0.0,-0.02,0.007,0.009,-1.583,0.007,-1.152,45.72,91.6,40.505825,-3.362103,606.0,3,5,260.2,2.109
46.93,1,-0.031,-0.007,0.015,-0.021,-0.001,0.007,-1.583,0.008,-1.15,45.72,91.6,40.505825,-3.362103,606.0,3,5,260.2,2.109
47.03,1,0.024,-0.01,0.028,-0.01,-0.008,0.016,-1.586,0.006,-1.148,46.72,91.7,40.505787,-3.362402,606.1,3,5,260.2,0.352
47.13,1,0.024,-0.017,0.046,0.012,-0.01,0.034,-1.59,0.005,-1.145,46.72,91.7,40.505787,-3.362402,606.1,3,5,260.2,0.352
47.23,1,0.02,-0.002,0.018,0.024,-0.007,0.033,-1.587,0.004,-1.143,46.72,91.7,40.505787,-3.362402,606.1,3,5,260.2,0.352
47.33,1,-0.044,0.012,0.002,-0.003,0.001,0.015,-1.589,0.004,-1.141,46.72,91.7,40.505787,-3.362402,606.1,3,5,260.2,0.352
47.43,1,-0.033,0.021,0.046,-0.027,0.012,0.022,-1.593,0.003,-1.139,46.72,91.7,40.505787,-3.362402,606.1,3,5,260.2,0.352
47.53,1,0.02,0.033,0.013,-0.009,0.02,0.028,-1.592,0.003,-1.137,46.72,91.7,40.505787,-3.362402,606.1,3,5,260.2,0.352
47.64,1,-0.0,-0.01,0.013,0.002,0.017,0.014,-1.591,0.003,-1.136,46.72,91.7,40.505787,-3.362402,606.1,3,5,260.2,0.352
47.74,1,0.017,0.03,0.027,0.007,0.014,0.023,-1.595,0.004,-1.134,46.72,91.7,40.505787,-3.362402,606.1,3,5,260.2,0.352
47.85,1,-0.007,0.016,0.028,0.008,0.02,0.028,-1.598,0.004,-1.132,46.72,91.7,40.505787,-3.362402,606.1,3,5,260.2,0.352
47.94,1,-0.026,0.009,0.023,-0.01,0.014,0.024,-1.6,0.002,-1.13,46.72,91.7,40.505787,-3.362402,606.1,3,5,260.2,0.352
48.04,1,-0.03,-0.008,0.005,-0.026,0.007,0.018,-1.6,0.002,-1.129,47.82,91.9,40.505669,-3.363001,609.0,3,5,254.9,3.516
48.14,1,-0.037,0.001,0.019,-0.031,-0.006,0.011,-1.599,0.001,-1.127,47.82,91.9,40.505669,-3.363001,609.0,3,5,254.9,3.516
48.24,1,-0.006,0.01,0.03,-0.023,0.006,0.023,-1.603,-0.001,-1.126,47.82,91.9,40.505669,-3.363001,609.0,3,5,254.9,3.516
48.34,1,-0.043,0.045,-0.029,-0.027,0.022,0.005,-1.602,-0.004,-1.125,47.82,91.9,40.505669,-3.363001,609.0,3,5,254.9,3.516
48.44,1,-0.014,0.052,0.0,-0.023,0.044,-0.007,-1.603,-0.005,-1.124,47.82,91.9,40.505669,-3.363001,609.0,3,5,254.9,3.516
48.54,1,0.023,0.018,0.007,-0.006,0.037,0.004,-1.603,-0.003,-1.123,47.82,91.9,40.505669,-3.363001,609.0,3,5,254.9,3.516
48.64,1,0.02,-0.003,-0.036,0.018,0.011,-0.011,-1.599,-0.001,-1.122,47.82,91.9,40.505669,-3.363001,609.0,3,5,254.9,3.516
48.74,1,0.015,0.002,-0.042,0.013,0.001,-0.034,-1.593,-0.002,-1.121,47.82,91.9,40.505669,-3.363001,609.0,3,5,254.9,3.516
48.84,1,-0.032,0.013,-0.023,-0.004,0.006,-0.029,-1.59,-0.005,-1.12,47.82,91.9,40.505669,-3.363001,609.0,3,5,254.9,3.516
48.94,1,-0.035,0.004,-0.022,-0.023,0.008,-0.026,-1.587,-0.005,-1.119,47.82,91.9,40.505669,-3.363001,609.0,3,5,254.9,3.516
49.04,1,-0.013,-0.006,-0.036,-0.026,0.005,-0.031,-1.586,-0.005,-1.117,48.72,91.9,40.505669,-3.363001,609.0,3,5,254.9,5.273
49.14,1,0.002,0.006,-0.031,-0.01,0.003,-0.03,-1.582,-0.005,-1.116,48.72,91.9,40.505669,-3.363001,609.0,3,5,254.9,5.273
49.24,1,0.009,-0.008,-0.021,-0.0,-0.004,-0.029,-1.58,-0.006,-1.115,48.72,91.9,40.505669,-3.363001,609.0,3,5,254.9,5.273
49.34,1,0.026,-0.02,-0.003,0.019,-0.012,-0.014,-1.577,-0.007,-1.113,48.72,91.9,40.505669,-3.363001,609.0,3,5,254.9,5.273
49.44,1,0.01,-0.013,0.01,0.01,-0.011,-0.001,-1.576,-0.006,-1.111,48.72,91.9,40.505669,-3.363001,609.0,3,5,254.9,5.273
49.54,1,0.024,-0.018,-0.003,0.018,-0.017,0.005,-1.576,-0.002,-1.109,48.72,91.9,40.505669,-3.363001,609.0,3,5,254.9,5.273
49.65,1,0.019,-0.017,0.011,0.021,-0.014,0.0,-1.572,0.0,-1.107,48.72,91.9,40.505669,-3.363001,609.0,3,5,254.9,5.273
49.74,1,-0.06,-0.016,0.003,-0.011,-0.018,0.004,-1.574,0.003,-1.105,48.72,91.9,40.505669,-3.363001,609.0,3,5,254.9,5.273
49.84,1,-0.027,-0.023,0.026,-0.032,-0.017,0.014,-1.577,0.004,-1.103,48.72,91.9,40.505669,-3.363001,609.0,3,5,254.9,5.273
49.94,1,-0.001,-0.025,0.033,-0.018,-0.025,0.027,-1.581,0.009,-1.1,48.72,91.9,40.505669,-3.363001,609.0,3,5,254.9,5.273
50.04,1,0.01,-0.027,0.014,0.002,-0.03,0.024,-1.579,0.008,-1.098,49.71,92.7,40.5056,-3.363283,608.6,3,5,252.8,3.867
50.15,1,-0.018,-0.041,-0.005,-0.006,-0.031,0.007,-1.58,0.013,-1.095,49.71,92.7,40.5056,-3.363283,608.6,3,5,252.8,3.867
50.24,1,-0.004,-0.027,0.0,-0.012,-0.03,-0.0,-1.581,0.015,-1.093,49.71,92.7,40.5056,-3.363283,608.6,3,5,252.8,3.867
50.34,1,0.02,0.0,-0.006,0.005,-0.019,0.0,-1.581,0.014,-1.09,49.71,92.7,40.5056,-3.363283,608.6,3,5,252.8,3.867
50.44,1,-0.022,-0.017,-0.024,0.002,-0.007,-0.013,-1.577,0.015,-1.088,49.71,92.7,40.5056,-3.363283,608.6,3,5,252.8,3.867
50.54,1,-0.063,-0.006,0.002,-0.035,-0.012,-0.01,-1.579,0.019,-1.085,49.71,92.7,40.5056,-3.363283,608.6,3,5,252.8,3.867
50.64,1,-0.039,-0.017,0.023,-0.044,-0.015,0.007,-1.58,0.019,-1.082,49.71,92.7,40.5056,-3.363283,608.6,3,5,252.8,3.867
50.75,1,0.036,-0.018,0.015,-0.01,-0.015,0.017,-1.58,0.02,-1.08,49.71,92.7,40.5056,-3.363283,608.6,3,5,252.8,3.867
50.84,1,0.005,-0.008,0.001,0.009,-0.013,0.003,-1.579,0.021,-1.077,49.71,92.7,40.5056,-3.363283,608.6,3,5,252.8,3.867
50.95,1,0.005,-0.013,-0.006,0.004,-0.011,0.002,-1.579,0.021,-1.074,49.71,92.7,40.5056,-3.363283,608.6,3,5,252.8,3.867
51.05,1,-0.017,0.01,0.005,0.001,-0.003,0.002,-1.58,0.024,-1.072,50.77,92.6,40.505535,-3.363577,608.1,3,5,252.4,2.461
51.15,1,-0.01,-0.002,-0.018,-0.008,-0.003,-0.005,-1.58,0.026,-1.069,50.77,92.6,40.505535,-3.363577,608.1,3,5,252.4,2.461
51.25,1,-0.028,-0.021,-0.018,-0.019,-0.007,-0.014,-1.579,0.027,-1.066,50.77,92.6,40.505535,-3.363577,608.1,3,5,252.4,2.461
51.35,1,0.011,-0.002,-0.019,-0.005,-0.01,-0.013,-1.578,0.025,-1.064,50.77,92.6,40.505535,-3.363577,608.1,3,5,252.4,2.461
51.45,1,-0.032,0.025,-0.051,-0.014,0.009,-0.033,-1.575,0.022,-1.062,50.77,92.6,40.505535,-3.363577,608.1,3,5,252.4,2.461
51.55,1,-0.014,0.033,-0.016,-0.021,0.021,-0.03,-1.573,0.02,-1.06,50.77,92.6,40.505535,-3.363577,608.1,3,5,252.4,2.461
51.65,1,-0.013,0.011,-0.049,-0.017,0.019,-0.033,-1.571,0.021,-1.059,50.77,92.6,40.505535,-3.363577,608.1,3,5,252.4,2.461
51.75,1,0.01,0.025,-0.025,-0.003,0.016,-0.038,-1.569,0.019,-1.057,50.77,92.6,40.505535,-3.363577,608.1,3,5,252.4,2.461
51.85,1,0.023,0.042,-0.023,0.01,0.028,-0.022,-1.569,0.016,-1.056,50.77,92.6,40.505535,-3.363577,608.1,3,5,252.4,2.461
51.95,1,0.019,0.025,-0.032,0.021,0.035,-0.031,-1.565,0.013,-1.055,50.77,92.6,40.505535,-3.363577,608.1,3,5,252.4,2.461
52.05,1,-0.057,0.024,-0.03,-0.016,0.027,-0.032,-1.562,0.011,-1.054,51.76,92.3,40.505463,-3.363858,608.9,3,5,250.7,2.109
52.15,1,-0.051,0.012,-0.016,-0.038,0.02,-0.024,-1.563,0.009,-1.052,51.76,92.3,40.505463,-3.363858,608.9,3,5,250.7,2.109
52.25,1,-0.043,-0.002,-0.012,-0.044,0.009,-0.016,-1.563,0.009,-1.05,51.76,92.3,40.505463,-3.363858,608.9,3,5,250.7,2.109
52.35,1,0.003,0.018,-0.031,-0.029,0.011,-0.023,-1.562,0.009,-1.049,51.76,92.3,40.505463,-3.363858,608.9,3,5,250.7,2.109
52.45,1,0.028,0.024,-0.019,0.011,0.017,-0.022,-1.559,0.009,-1.048,51.76,92.3,40.505463,-3.363858,608.9,3,5,250.7,2.109
52.55,1,-0.0,0.009,-0.023,0.006,0.017,-0.023,-1.558,0.007,-1.047,51.76,92.3,40.505463,-3.363858,608.9,3,5,250.7,2.109
52.65,1,-0.023,0.025,-0.003,-0.011,0.022,-0.016,-1.558,0.006,-1.046,51.76,92.3,40.505463,-3.363858,608.9,3,5,250.7,2.109
52.75,1,-0.01,0.007,0.007,-0.011,0.014,-0.002,-1.559,0.003,-1.045,51.76,92.3,40.505463,-3.363858,608.9,3,5,250.7,2.109
52.85,1,-0.016,0.007,0.006,-0.01,0.009,0.001,-1.557,-0.0,-1.044,51.76,92.3,40.505463,-3.363858,608.9,3,5,250.7,2.109
52.95,1,-0.021,0.03,0.013,-0.017,0.019,0.008,-1.559,-0.003,-1.044,51.76,92.3,40.505463,-3.363858,608.9,3,5,250.7,2.109
53.05,1,0.025,0.057,0.01,-0.001,0.033,0.012,-1.559,-0.005,-1.045,52.74,92.1,40.505375,-3.364139,609.7,3,5,248.6,3.867
53.15,1,0.015,0.051,-0.006,0.017,0.046,0.004,-1.558,-0.01,-1.045,52.74,92.1,40.505375,-3.364139,609.7,3,5,248.6,3.867
53.25,1,-0.024,0.04,0.018,-0.006,0.045,0.005,-1.558,-0.014,-1.046,52.74,92.1,40.505375,-3.364139,609.7,3,5,248.6,3.867
53.36,1,-0.024,0.012,0.032,-0.019,0.035,0.021,-1.56,-0.015,-1.045,52.74,92.1,40.505375,-3.364139,609.7,3,5,248.6,3.867
53.45,1,-0.02,-0.007,0.018,-0.02,0.015,0.021,-1.562,-0.015,-1.045,52.74,92.1,40.505375,-3.364139,609.7,3,5,248.6,3.867
53.55,1,-0.014,-0.03,-0.001,-0.018,-0.013,0.012,-1.562,-0.013,-1.044,52.74,92.1,40.505375,-3.364139,609.7,3,5,248.6,3.867
53.65,1,0.018,-0.002,-0.006,0.004,-0.01,0.001,-1.562,-0.013,-1.043,52.74,92.1,40.505375,-3.364139,609.7,3,5,248.6,3.867
53.75,1,0.007,0.0,0.008,0.006,0.0,0.003,-1.565,-0.011,-1.042,52.74,92.1,40.505375,-3.364139,609.7,3,5,248.6,3.867
53.95,1,0.007,-0.012,0.002,0.006,-0.017,0.019,-1.565,-0.011,-1.038,52.74,92.1,40.505375,-3.364139,609.7,3,5,248.6,3.867
54.05,1,-0.012,-0.021,-0.004,-0.002,-0.015,0.003,-1.563,-0.013,-1.037,52.74,92.1,40.505375,-3.364139,609.7,3,5,248.6,3.867
54.15,1,-0.03,-0.015,-0.01,-0.013,-0.016,-0.002,-1.563,-0.013,-1.036,53.77,91.2,40.505291,-3.364415,609.5,3,5,247.1,3.516
54.25,1,-0.026,-0.003,0.008,-0.028,-0.011,-0.002,-1.564,-0.012,-1.034,53.77,91.2,40.505291,-3.364415,609.5,3,5,247.1,3.516
54.35,1,0.031,-0.008,-0.01,-0.001,-0.006,-0.003,-1.564,-0.01,-1.033,53.77,91.2,40.505291,-3.364415,609.5,3,5,247.1,3.516
54.46,1,0.023,-0.011,-0.011,0.021,-0.009,-0.006,-1.56,-0.007,-1.032,53.77,91.2,40.505291,-3.364415,609.5,3,5,247.1,3.516
54.56,1,-0.011,-0.015,-0.01,0.007,-0.009,-0.009,-1.558,-0.008,-1.031,53.77,91.2,40.505291,-3.364415,609.5,3,5,247.1,3.516
54.66,1,-0.045,0.017,-0.014,-0.02,-0.006,-0.013,-1.558,-0.009,-1.03,53.77,91.2,40.505291,-3.364415,609.5,3,5,247.1,3.516
54.76,1,-0.048,0.021,-0.006,-0.037,0.009,-0.006,-1.56,-0.01,-1.03,53.77,91.2,40.505291,-3.364415,609.5,3,5,247.1,3.516
54.86,1,-0.042,0.026,-0.009,-0.045,0.021,-0.01,-1.559,-0.013,-1.03,53.77,91.2,40.505291,-3.364415,609.5,3,5,247.1,3.516
54.96,1,0.031,0.029,0.02,-0.013,0.027,0.003,-1.558,-0.016,-1.03,53.77,91.2,40.505291,-3.364415,609.5,3,5,247.1,3.516
55.06,1,0.047,0.004,-0.022,0.023,0.017,-0.001,-1.557,-0.018,-1.03,53.77,91.2,40.505291,-3.364415,609.5,3,5,247.1,3.516
55.16,1,0.035,0.008,-0.038,0.035,0.013,-0.024,-1.556,-0.017,-1.029,54.7,90.9,40.505199,-3.364686,610.1,3,5,246.1,2.461
55.27,1,-0.031,0.037,-0.014,0.011,0.022,-0.022,-1.553,-0.019,-1.03,54.7,90.9,40.505199,-3.364686,610.1,3,5,246.1,2.461
55.36,1,-0.07,0.012,-0.004,-0.034,0.017,-0.014,-1.554,-0.021,-1.03,54.7,90.9,40.505199,-3.364686,610.1,3,5,246.1,2.461
55.46,1,-0.03,0.017,0.01,-0.044,0.019,-0.001,-1.554,-0.025,-1.031,54.7,90.9,40.505199,-3.364686,610.1,3,5,246.1,2.461
55.56,1,-0.006,0.02,-0.026,-0.028,0.013,-0.007,-1.552,-0.029,-1.032,54.7,90.9,40.505199,-3.364686,610.1,3,5,246.1,2.461
55.66,1,0.015,0.027,-0.01,0.004,0.02,-0.016,-1.553,-0.031,-1.033,54.7,90.9,40.505199,-3.364686,610.1,3,5,246.1,2.461
55.76,1,0.003,0.043,0.012,0.001,0.038,-0.004,-1.552,-0.037,-1.033,54.7,90.9,40.505199,-3.364686,610.1,3,5,246.1,2.461
55.87,1,0.018,0.01,0.005,0.012,0.028,0.007,-1.551,-0.039,-1.033,54.7,90.9,40.505199,-3.364686,610.1,3,5,246.1,2.461
55.96,1,-0.02,0.013,-0.018,-0.005,0.018,-0.006,-1.552,-0.039,-1.034,54.7,90.9,40.505199,-3.364686,610.1,3,5,246.1,2.461
56.07,1,-0.025,-0.004,0.014,-0.012,0.007,-0.0,-1.552,-0.04,-1.034,54.7,90.9,40.505199,-3.364686,610.1,3,5,246.1,2.461
56.16,1,-0.031,-0.023,0.036,-0.024,-0.009,0.017,-1.553,-0.039,-1.034,55.71,90.7,40.505108,-3.364954,610.0,3,5,244.3,2.812
56.27,1,0.009,-0.027,0.027,-0.017,-0.02,0.026,-1.553,-0.039,-1.034,55.71,90.7,40.505108,-3.364954,610.0,3,5,244.3,2.812
56.37,1,0.003,-0.007,-0.001,0.003,-0.015,0.015,-1.553,-0.039,-1.034,55.71,90.7,40.505108,-3.364954,610.0,3,5,244.3,2.812
56.47,1,-0.014,-0.004,0.008,-0.004,-0.01,0.009,-1.554,-0.036,-1.034,55.71,90.7,40.505108,-3.364954,610.0,3,5,244.3,2.812
56.57,1,-0.026,-0.028,0.019,-0.018,-0.013,0.012,-1.555,-0.03,-1.032,55.71,90.7,40.505108,-3.364954,610.0,3,5,244.3,2.812
56.67,1,-0.006,-0.04,0.029,-0.012,-0.033,0.023,-1.557,-0.027,-1.031,55.71,90.7,40.505108,-3.364954,610.0,3,5,244.3,2.812
56.76,1,0.018,-0.036,-0.031,0.003,-0.037,0.001,-1.556,-0.028,-1.03,55.71,90.7,40.505108,-3.364954,610.0,3,5,244.3,2.812
56.86,1,-0.024,-0.038,-0.008,-0.009,-0.035,-0.013,-1.557,-0.028,-1.028,55.71,90.7,40.505108,-3.364954,610.0,3,5,244.3,2.812
56.96,1,-0.027,-0.05,0.018,-0.017,-0.038,0.005,-1.56,-0.024,-1.027,55.71,90.7,40.505108,-3.364954,610.0,3,5,244.3,2.812
57.06,1,-0.004,-0.028,0.003,-0.014,-0.035,0.007,-1.56,-0.021,-1.025,55.71,90.7,40.505108,-3.364954,610.0,3,5,244.3,2.812
57.16,1,0.031,-0.048,0.008,0.005,-0.042,0.003,-1.56,-0.018,-1.023,56.74,90.0,40.505005,-3.365218,610.3,3,5,243.6,2.461
57.26,1,0.046,-0.048,0.003,0.029,-0.044,0.005,-1.559,-0.01,-1.021,56.74,90.0,40.505005,-3.365218,610.3,3,5,243.6,2.461
57.36,1,0.001,-0.042,0.001,0.019,-0.045,0.0,-1.557,-0.007,-1.019,56.74,90.0,40.505005,-3.365218,610.3,3,5,243.6,2.461
57.46,1,0.021,-0.001,0.003,0.021,-0.028,0.006,-1.557,-0.006,-1.017,56.74,90.0,40.505005,-3.365218,610.3,3,5,243.6,2.461
57.57,1,-0.008,-0.001,-0.008,0.009,-0.011,-0.003,-1.558,-0.002,-1.016,56.74,90.0,40.505005,-3.365218,610.3,3,5,243.6,2.461
57.67,1,-0.039,-0.016,0.01,-0.019,-0.011,0.003,-1.56,0.001,-1.014,56.74,90.0,40.505005,-3.365218,610.3,3,5,243.6,2.461
57.77,1,-0.014,-0.028,0.009,-0.02,-0.016,0.007,-1.561,0.003,-1.012,56.74,90.0,40.505005,-3.365218,610.3,3,5,243.6,2.461
57.87,1,-0.014,-0.021,0.008,-0.016,-0.023,0.006,-1.562,0.004,-1.011,56.74,90.0,40.505005,-3.365218,610.3,3,5,243.6,2.461
57.97,1,0.004,-0.027,0.024,-0.005,-0.027,0.014,-1.562,0.006,-1.01,56.74,90.0,40.505005,-3.365218,610.3,3,5,243.6,2.461
58.06,1,-0.017,0.028,0.003,-0.01,0.001,0.01,-1.561,0.008,-1.009,56.74,90.0,40.505005,-3.365218,610.3,3,5,243.6,2.461
58.18,1,0.008,0.044,0.02,-0.004,0.021,0.013,-1.564,0.009,-1.008,57.72,89.9,40.504902,-3.365471,610.3,3,5,242.9,1.406
58.27,1,0.006,0.001,0.008,-0.0,0.019,0.019,-1.566,0.012,-1.007,57.72,89.9,40.504902,-3.365471,610.3,3,5,242.9,1.406
58.37,1,0.007,0.003,0.034,0.011,0.01,0.02,-1.567,0.014,-1.006,57.72,89.9,40.504902,-3.365471,610.3,3,5,242.9,1.406
58.47,1,-0.03,-0.012,0.025,-0.01,-0.004,0.025,-1.571,0.015,-1.006,57.72,89.9,40.504902,-3.365471,610.3,3,5,242.9,1.406
58.57,1,-0.021,-0.002,0.03,-0.023,-0.006,0.025,-1.575,0.015,-1.006,57.72,89.9,40.504902,-3.365471,610.3,3,5,242.9,1.406
58.67,1,0.025,0.014,0.043,-0.003,0.003,0.035,-1.58,0.016,-1.005,57.72,89.9,40.504902,-3.365471,610.3,3,5,242.9,1.406
58.77,1,-0.003,0.012,0.023,0.009,0.01,0.034,-1.581,0.015,-1.005,57.72,89.9,40.504902,-3.365471,610.3,3,5,242.9,1.406
58.87,1,-0.044,-0.007,0.011,-0.013,0.009,0.019,-1.582,0.013,-1.004,57.72,89.9,40.504902,-3.365471,610.3,3,5,242.9,1.406
58.98,1,-0.022,-0.011,0.021,-0.035,-0.005,0.018,-1.585,0.015,-1.004,57.72,89.9,40.504902,-3.365471,610.3,3,5,242.9,1.406
59.07,1,0.014,0.012,0.006,-0.01,0.003,0.019,-1.585,0.018,-1.003,57.72,89.9,40.504902,-3.365471,610.3,3,5,242.9,1.406
59.17,1,-0.001,0.034,-0.014,0.005,0.011,0.001,-1.582,0.02,-1.003,58.71,89.6,40.504791,-3.36573,610.5,3,5,240.8,2.812
59.27,1,0.02,-0.005,0.013,0.01,0.006,-0.0,-1.578,0.021,-1.003,58.71,89.6,40.504791,-3.36573,610.5,3,5,240.8,2.812
59.38,1,0.004,0.012,-0.013,0.005,0.01,0.001,-1.576,0.022,-1.003,58.71,89.6,40.504791,-3.36573,610.5,3,5,240.8,2.812
59.48,1,-0.032,0.034,-0.03,-0.002,0.024,-0.017,-1.575,0.023,-1.003,58.71,89.6,40.504791,-3.36573,610.5,3,5,240.8,2.812
59.57,1,-0.057,0.032,-0.009,-0.035,0.027,-0.019,-1.573,0.021,-1.004,58.71,89.6,40.504791,-3.36573,610.5,3,5,240.8,2.812
59.67,1,-0.036,0.014,-0.001,-0.044,0.022,-0.01,-1.574,0.021,-1.004,58.71,89.6,40.504791,-3.36573,610.5,3,5,240.8,2.812
59.77,1,0.011,0.041,-0.017,-0.022,0.029,-0.01,-1.573,0.019,-1.005,58.71,89.6,40.504791,-3.36573,610.5,3,5,240.8,2.812
59.87,1,0.037,0.073,-0.005,0.014,0.051,-0.006,-1.572,0.013,-1.008,58.71,89.6,40.504791,-3.36573,610.5,3,5,240.8,2.812
59.97,1,-0.004,0.067,-0.018,0.01,0.061,-0.012,-1.57,0.01,-1.01,58.71,89.6,40.504791,-3.36573,610.5,3,5,240.8,2.812
60.07,1,-0.015,0.052,-0.032,0.002,0.061,-0.021,-1.568,0.008,-1.012,58.71,89.6,40.504791,-3.36573,610.5,3,5,240.8,2.812
60.18,1,-0.028,0.044,-0.014,-0.022,0.046,-0.023,-1.569,0.006,-1.014,59.73,90.5,40.504673,-3.365981,610.2,3,5,238.7,4.219
60.27,1,0.02,0.043,-0.01,-0.003,0.045,-0.014,-1.568,0.005,-1.015,59.73,90.5,40.504673,-3.365981,610.2,3,5,238.7,4.219
60.37,1,0.013,0.037,-0.006,0.01,0.043,-0.011,-1.566,0.007,-1.017,59.73,90.5,40.504673,-3.365981,610.2,3,5,238.7,4.219
60.47,1,-0.047,0.008,-0.021,-0.012,0.027,-0.015,-1.564,0.009,-1.018,59.73,90.5,40.504673,-3.365981,610.2,3,5,238.7,4.219
60.58,1,-0.035,0.002,0.006,-0.034,0.014,-0.009,-1.565,0.011,-1.019,59.73,90.5,40.504673,-3.365981,610.2,3,5,238.7,4.219
60.67,1,0.021,-0.006,0.003,-0.007,0.007,-0.001,-1.566,0.013,-1.019,59.73,90.5,40.504673,-3.365981,610.2,3,5,238.7,4.219
60.78,1,0.018,-0.025,-0.028,0.011,-0.013,-0.008,-1.565,0.017,-1.019,59.73,90.5,40.504673,-3.365981,610.2,3,5,238.7,4.219
60.88,1,-0.052,-0.025,-0.024,-0.011,-0.026,-0.023,-1.561,0.023,-1.018,59.73,90.5,40.504673,-3.365981,610.2,3,5,238.7,4.219
60.97,1,-0.056,-0.033,0.007,-0.046,-0.026,-0.009,-1.563,0.027,-1.018,59.73,90.5,40.504673,-3.365981,610.2,3,5,238.7,4.219
61.07,1,0.0,-0.031,-0.006,-0.029,-0.028,-0.003,-1.563,0.027,-1.018,59.73,90.5,40.504673,-3.365981,610.2,3,5,238.7,4.219
61.18,1,0.043,-0.021,-0.034,0.009,-0.027,-0.014,-1.56,0.029,-1.018,60.73,91.2,40.504555,-3.366239,610.3,3,5,238.0,2.812
61.27,1,0.006,0.01,-0.065,0.019,-0.01,-0.04,-1.556,0.029,-1.019,60.73,91.2,40.504555,-3.366239,610.3,3,5,238.0,2.812
61.38,1,-0.067,-0.008,-0.026,-0.021,-0.004,-0.044,-1.553,0.03,-1.02,60.73,91.2,40.504555,-3.366239,610.3,3,5,238.0,2.812
61.48,1,-0.031,-0.0,0.013,-0.037,0.002,-0.012,-1.554,0.031,-1.021,60.73,91.2,40.504555,-3.366239,610.3,3,5,238.0,2.812
61.57,1,0.004,0.0,-0.024,-0.019,-0.001,-0.011,-1.553,0.029,-1.022,60.73,91.2,40.504555,-3.366239,610.3,3,5,238.0,2.812
61.67,1,0.024,0.042,-0.017,0.001,0.014,-0.019,-1.549,0.029,-1.023,60.73,91.2,40.504555,-3.366239,610.3,3,5,238.0,2.812
61.78,1,0.049,0.052,-0.009,0.028,0.037,-0.014,-1.548,0.029,-1.025,60.73,91.2,40.504555,-3.366239,610.3,3,5,238.0,2.812
61.88,1,0.031,0.01,-0.006,0.034,0.027,-0.009,-1.545,0.029,-1.026,60.73,91.2,40.504555,-3.366239,610.3,3,5,238.0,2.812
61.98,1,-0.052,-0.034,-0.016,0.002,-0.001,-0.01,-1.542,0.029,-1.027,60.73,91.2,40.504555,-3.366239,610.3,3,5,238.0,2.812
62.08,1,-0.054,0.008,-0.014,-0.04,-0.006,-0.016,-1.54,0.028,-1.029,60.73,91.2,40.504555,-3.366239,610.3,3,5,238.0,2.812
62.18,1,-0.045,0.001,-0.007,-0.045,0.0,-0.01,-1.541,0.028,-1.03,61.77,91.0,40.504436,-3.366489,610.5,3,5,238.0,0.703
62.28,1,-0.041,0.003,0.0,-0.044,0.007,-0.007,-1.54,0.028,-1.032,61.77,91.0,40.504436,-3.366489,610.5,3,5,238.0,0.703
62.38,1,0.037,0.027,-0.011,-0.006,0.01,-0.005,-1.54,0.03,-1.034,61.77,91.0,40.504436,-3.366489,610.5,3,5,238.0,0.703
62.48,1,0.03,0.002,-0.026,0.017,0.009,-0.014,-1.539,0.027,-1.035,61.77,91.0,40.504436,-3.366489,610.5,3,5,238.0,0.703
62.58,1,-0.015,0.009,-0.021,0.005,0.012,-0.02,-1.538,0.027,-1.037,61.77,91.0,40.504436,-3.366489,610.5,3,5,238.0,0.703
62.68,1,-0.044,0.02,-0.004,-0.017,0.015,-0.014,-1.538,0.025,-1.038,61.77,91.0,40.504436,-3.366489,610.5,3,5,238.0,0.703
62.78,1,-0.026,-0.008,-0.015,-0.033,0.004,-0.012,-1.538,0.025,-1.04,61.77,91.0,40.504436,-3.366489,610.5,3,5,238.0,0.703
62.88,1,-0.047,-0.014,-0.016,-0.033,-0.005,-0.014,-1.538,0.027,-1.041,61.77,91.0,40.504436,-3.366489,610.5,3,5,238.0,0.703
62.98,1,0.008,-0.016,0.012,-0.022,-0.012,-0.004,-1.54,0.026,-1.041,61.77,91.0,40.504436,-3.366489,610.5,3,5,238.0,0.703
63.09,1,0.035,0.006,-0.012,0.012,-0.002,-0.0,-1.538,0.028,-1.042,61.77,91.0,40.504436,-3.366489,610.5,3,5,238.0,0.703
63.18,1,-0.006,-0.017,-0.052,0.01,-0.012,-0.03,-1.535,0.032,-1.042,62.7,90.6,40.504318,-3.36674,610.0,3,5,237.3,0.703
63.29,1,-0.047,-0.021,-0.01,-0.014,-0.013,-0.026,-1.535,0.033,-1.043,62.7,90.6,40.504318,-3.36674,610.0,3,5,237.3,0.703
63.38,1,-0.037,-0.008,-0.003,-0.033,-0.013,-0.01,-1.537,0.033,-1.043,62.7,90.6,40.504318,-3.36674,610.0,3,5,237.3,0.703
63.48,1,0.005,0.008,-0.026,-0.022,0.008,-0.018,-1.538,0.033,-1.043,62.7,90.6,40.504318,-3.36674,610.0,3,5,237.3,0.703
63.58,1,0.003,-0.017,-0.013,-0.006,-0.011,-0.018,-1.536,0.033,-1.044,62.7,90.6,40.504318,-3.36674,610.0,3,5,237.3,0.703
63.69,1,-0.002,-0.016,-0.039,0.0,-0.02,-0.022,-1.536,0.032,-1.045,62.7,90.6,40.504318,-3.36674,610.0,3,5,237.3,0.703
63.79,1,-0.001,0.027,-0.007,0.001,0.002,-0.025,-1.535,0.029,-1.046,62.7,90.6,40.504318,-3.36674,610.0,3,5,237.3,0.703
63.89,1,-0.005,0.028,-0.001,-0.005,0.017,-0.005,-1.536,0.024,-1.048,62.7,90.6,40.504318,-3.36674,610.0,3,5,237.3,0.703
63.98,1,-0.022,0.002,-0.03,-0.012,0.013,-0.017,-1.533,0.022,-1.049,62.7,90.6,40.504318,-3.36674,610.0,3,5,237.3,0.703
64.08,1,-0.031,0.003,-0.02,-0.017,0.008,-0.021,-1.53,0.022,-1.05,62.7,90.6,40.504318,-3.36674,610.0,3,5,237.3,0.703
64.18,1,-0.025,0.023,0.009,-0.028,0.012,-0.008,-1.53,0.023,-1.052,63.74,89.6,40.504192,-3.366992,609.9,3,5,237.0,1.055
64.29,1,0.021,0.046,-0.006,-0.009,0.027,-0.003,-1.531,0.017,-1.055,63.74,89.6,40.504192,-3.366992,609.9,3,5,237.0,1.055
64.39,1,0.017,0.062,-0.003,0.013,0.046,-0.004,-1.529,0.01,-1.059,63.74,89.6,40.504192,-3.366992,609.9,3,5,237.0,1.055
64.49,1,-0.017,0.028,-0.013,0.001,0.047,-0.008,-1.527,0.003,-1.063,63.74,89.6,40.504192,-3.366992,609.9,3,5,237.0,1.055
64.58,1,0.001,0.037,0.012,-0.001,0.041,-0.004,-1.527,0.001,-1.065,63.74,89.6,40.504192,-3.366992,609.9,3,5,237.0,1.055
64.68,1,0.011,0.024,0.012,0.001,0.032,0.013,-1.528,0.001,-1.068,63.74,89.6,40.504192,-3.366992,609.9,3,5,237.0,1.055
64.78,1,-0.014,-0.01,-0.029,-0.001,0.011,-0.007,-1.529,0.002,-1.07,63.74,89.6,40.504192,-3.366992,609.9,3,5,237.0,1.055
64.88,1,-0.025,-0.002,-0.004,-0.014,-0.002,-0.013,-1.531,0.002,-1.072,63.74,89.6,40.504192,-3.366992,609.9,3,5,237.0,1.055
64.98,1,-0.002,-0.012,0.015,-0.017,-0.004,0.002,-1.532,0.002,-1.074,63.74,89.6,40.504192,-3.366992,609.9,3,5,237.0,1.055
65.09,1,0.022,-0.007,-0.005,0.006,-0.005,0.002,-1.53,0.0,-1.076,63.74,89.6,40.504192,-3.366992,609.9,3,5,237.0,1.055
65.2,1,-0.018,0.013,-0.022,0.001,-0.002,-0.012,-1.528,0.0,-1.078,64.72,88.7,40.504074,-3.36724,609.6,3,5,237.3,0.352
65.29,1,-0.029,-0.013,0.014,-0.02,-0.001,-0.002,-1.529,0.001,-1.08,64.72,88.7,40.504074,-3.36724,609.6,3,5,237.3,0.352
65.39,1,0.004,0.011,-0.005,-0.006,0.001,0.0,-1.529,-0.002,-1.083,64.72,88.7,40.504074,-3.36724,609.6,3,5,237.3,0.352
65.49,1,0.012,0.033,0.011,0.004,0.013,0.003,-1.528,-0.005,-1.085,64.72,88.7,40.504074,-3.36724,609.6,3,5,237.3,0.352
65.59,1,-0.012,0.024,-0.018,-0.009,0.024,-0.007,-1.526,-0.008,-1.089,64.72,88.7,40.504074,-3.36724,609.6,3,5,237.3,0.352
65.71,1,-0.02,0.031,0.011,-0.011,0.027,0.001,-1.527,-0.012,-1.092,64.72,88.7,40.504074,-3.36724,609.6,3,5,237.3,0.352
65.79,1,-0.012,0.039,0.001,-0.013,0.034,0.001,-1.527,-0.017,-1.096,64.72,88.7,40.504074,-3.36724,609.6,3,5,237.3,0.352
65.89,1,0.044,0.031,0.019,0.009,0.036,0.011,-1.529,-0.019,-1.099,64.72,88.7,40.504074,-3.36724,609.6,3,5,237.3,0.352
65.99,1,0.043,0.027,-0.03,0.037,0.032,-0.005,-1.526,-0.019,-1.101,64.72,88.7,40.504074,-3.36724,609.6,3,5,237.3,0.352
66.09,1,-0.047,-0.009,-0.012,0.003,0.014,-0.014,-1.524,-0.016,-1.104,64.72,88.7,40.504074,-3.36724,609.6,3,5,237.3,0.352
66.19,1,-0.033,-0.037,0.016,-0.027,-0.009,-0.004,-1.527,-0.013,-1.106,65.73,87.5,40.503956,-3.367481,609.1,3,5,238.0,1.055
66.29,1,-0.006,-0.002,0.006,-0.02,-0.012,0.014,-1.529,-0.012,-1.109,65.73,87.5,40.503956,-3.367481,609.1,3,5,238.0,1.055
66.39,1,0.033,0.035,-0.012,0.008,0.006,-0.003,-1.527,-0.015,-1.112,65.73,87.5,40.503956,-3.367481,609.1,3,5,238.0,1.055
66.49,1,-0.005,0.029,-0.021,0.013,0.019,-0.012,-1.526,-0.018,-1.115,65.73,87.5,40.503956,-3.367481,609.1,3,5,238.0,1.055
66.59,1,-0.045,0.0,-0.004,-0.02,0.013,-0.012,-1.527,-0.021,-1.118,65.73,87.5,40.503956,-3.367481,609.1,3,5,238.0,1.055
66.69,1,-0.034,0.015,0.042,-0.034,0.007,0.01,-1.53,-0.022,-1.121,65.73,87.5,40.503956,-3.367481,609.1,3,5,238.0,1.055
66.8,1,-0.029,-0.023,-0.034,-0.033,-0.003,0.004,-1.529,-0.023,-1.123,65.73,87.5,40.503956,-3.367481,609.1,3,5,238.0,1.055
66.89,1,-0.009,-0.029,0.001,-0.023,-0.018,-0.014,-1.528,-0.026,-1.125,65.73,87.5,40.503956,-3.367481,609.1,3,5,238.0,1.055
66.99,1,0.003,-0.009,0.025,-0.007,-0.009,0.014,-1.527,-0.026,-1.127,65.73,87.5,40.503956,-3.367481,609.1,3,5,238.0,1.055
67.09,1,0.001,-0.033,-0.012,0.003,-0.02,-0.0,-1.525,-0.02,-1.128,65.73,87.5,40.503956,-3.367481,609.1,3,5,238.0,1.055
67.19,1,-0.013,-0.051,0.008,-0.009,-0.035,0.002,-1.525,-0.012,-1.129,66.7,86.8,40.503838,-3.367731,608.6,3,5,237.3,0.703
67.29,1,-0.021,-0.047,0.015,-0.014,-0.046,0.009,-1.525,-0.005,-1.129,66.7,86.8,40.503838,-3.367731,608.6,3,5,237.3,0.703
67.4,1,-0.026,-0.078,-0.018,-0.019,-0.057,-0.003,-1.525,0.001,-1.129,66.7,86.8,40.503838,-3.367731,608.6,3,5,237.3,0.703
67.49,1,-0.042,-0.072,0.002,-0.032,-0.069,-0.002,-1.527,0.009,-1.127,66.7,86.8,40.503838,-3.367731,608.6,3,5,237.3,0.703
67.6,1,-0.024,-0.07,0.017,-0.033,-0.069,0.007,-1.529,0.015,-1.126,66.7,86.8,40.503838,-3.367731,608.6,3,5,237.3,0.703
67.69,1,0.009,-0.03,-0.013,-0.003,-0.051,0.005,-1.528,0.02,-1.125,66.7,86.8,40.503838,-3.367731,608.6,3,5,237.3,0.703
67.79,1,0.021,-0.043,-0.006,-0.0,-0.05,-0.007,-1.526,0.023,-1.123,66.7,86.8,40.503838,-3.367731,608.6,3,5,237.3,0.703
67.89,1,0.039,-0.037,0.025,0.007,-0.036,0.011,-1.523,0.027,-1.123,66.7,86.8,40.503838,-3.367731,608.6,3,5,237.3,0.703
68.0,1,0.032,-0.023,-0.012,0.034,-0.025,0.002,-1.521,0.026,-1.122,66.7,86.8,40.503838,-3.367731,608.6,3,5,237.3,0.703
68.1,1,0.014,-0.044,-0.033,0.03,-0.045,-0.021,-1.518,0.026,-1.122,66.7,86.8,40.503838,-3.367731,608.6,3,5,237.3,0.703
68.2,1,-0.062,-0.005,0.027,-0.005,-0.032,-0.004,-1.518,0.026,-1.123,67.78,86.3,40.503719,-3.367965,607.8,3,5,238.0,0.703
68.3,1,-0.055,-0.016,0.008,-0.047,-0.018,0.008,-1.518,0.025,-1.124,67.78,86.3,40.503719,-3.367965,607.8,3,5,238.0,0.703
68.39,1,-0.028,0.006,0.007,-0.037,-0.002,0.012,-1.519,0.022,-1.124,67.78,86.3,40.503719,-3.367965,607.8,3,5,238.0,0.703
68.49,1,0.002,0.006,-0.005,-0.021,0.004,0.002,-1.521,0.02,-1.125,67.78,86.3,40.503719,-3.367965,607.8,3,5,238.0,0.703
68.6,1,-0.019,0.017,0.009,-0.015,0.008,0.004,-1.523,0.02,-1.126,67.78,86.3,40.503719,-3.367965,607.8,3,5,238.0,0.703
68.69,1,-0.038,-0.011,-0.004,-0.026,-0.001,0.002,-1.524,0.02,-1.126,67.78,86.3,40.503719,-3.367965,607.8,3,5,238.0,0.703
68.8,1,-0.026,-0.031,0.01,-0.029,-0.011,0.005,-1.525,0.022,-1.126,67.78,86.3,40.503719,-3.367965,607.8,3,5,238.0,0.703
68.9,1,-0.013,-0.014,0.005,-0.02,-0.019,0.006,-1.526,0.023,-1.126,67.78,86.3,40.503719,-3.367965,607.8,3,5,238.0,0.703
69.0,1,-0.027,-0.007,-0.005,-0.02,-0.017,0.002,-1.527,0.023,-1.127,67.78,86.3,40.503719,-3.367965,607.8,3,5,238.0,0.703
69.1,1,-0.016,0.02,0.001,-0.02,0.003,-0.002,-1.526,0.02,-1.128,67.78,86.3,40.503719,-3.367965,607.8,3,5,238.0,0.703
69.2,1,-0.02,0.031,0.011,-0.022,0.015,0.004,-1.527,0.015,-1.13,68.7,86.3,40.503605,-3.368204,607.5,3,5,238.0,0.703
69.3,1,-0.001,0.042,0.02,-0.011,0.033,0.015,-1.528,0.01,-1.132,68.7,86.3,40.503605,-3.368204,607.5,3,5,238.0,0.703
69.4,1,0.019,0.04,0.001,-0.001,0.04,0.008,-1.527,0.006,-1.134,68.7,86.3,40.503605,-3.368204,607.5,3,5,238.0,0.703
69.51,1,0.002,0.028,-0.006,0.011,0.034,0.003,-1.526,0.005,-1.136,68.7,86.3,40.503605,-3.368204,607.5,3,5,238.0,0.703
69.6,1,-0.051,0.01,-0.022,-0.021,0.025,-0.013,-1.526,0.004,-1.138,68.7,86.3,40.503605,-3.368204,607.5,3,5,238.0,0.703
69.7,1,-0.058,0.032,0.021,-0.039,0.023,0.002,-1.527,0.002,-1.141,68.7,86.3,40.503605,-3.368204,607.5,3,5,238.0,0.703
69.8,1,-0.025,0.017,-0.012,-0.04,0.019,-0.003,-1.529,0.0,-1.144,68.7,86.3,40.503605,-3.368204,607.5,3,5,238.0,0.703
69.9,1,-0.035,0.003,-0.014,-0.032,0.014,-0.007,-1.53,-0.001,-1.146,68.7,86.3,40.503605,-3.368204,607.5,3,5,238.0,0.703
70.0,1,-0.022,-0.009,-0.003,-0.029,0.006,-0.006,-1.53,0.001,-1.147,68.7,86.3,40.503605,-3.368204,607.5,3,5,238.0,0.703
70.1,1,-0.021,-0.002,0.011,-0.03,-0.005,-0.001,-1.53,0.002,-1.148,68.7,86.3,40.503605,-3.368204,607.5,3,5,238.0,0.703
70.2,1,-0.05,-0.005,-0.02,-0.031,-0.0,-0.007,-1.529,0.001,-1.15,69.74,84.1,40.503487,-3.368434,608.2,3,5,237.0,1.055
70.3,1,-0.011,0.021,0.007,-0.025,0.007,-0.003,-1.529,0.001,-1.152,69.74,84.1,40.503487,-3.368434,608.2,3,5,237.0,1.055
70.4,1,-0.007,0.023,-0.004,-0.02,0.014,-0.001,-1.529,-0.001,-1.154,69.74,84.1,40.503487,-3.368434,608.2,3,5,237.0,1.055
70.5,1,-0.034,0.035,-0.002,-0.018,0.028,-0.0,-1.529,-0.004,-1.156,69.74,84.1,40.503487,-3.368434,608.2,3,5,237.0,1.055
70.6,1,-0.009,0.033,-0.004,-0.022,0.03,-0.006,-1.529,-0.005,-1.159,69.74,84.1,40.503487,-3.368434,608.2,3,5,237.0,1.055
70.71,1,-0.003,0.031,-0.015,-0.008,0.032,-0.006,-1.529,-0.009,-1.162,69.74,84.1,40.503487,-3.368434,608.2,3,5,237.0,1.055
70.8,1,-0.035,0.011,-0.014,-0.017,0.027,-0.012,-1.529,-0.01,-1.164,69.74,84.1,40.503487,-3.368434,608.2,3,5,237.0,1.055
70.91,1,-0.036,-0.029,-0.011,-0.034,-0.004,-0.011,-1.529,-0.007,-1.165,69.74,84.1,40.503487,-3.368434,608.2,3,5,237.0,1.055
71.0,1,-0.001,-0.038,-0.013,-0.019,-0.021,-0.009,-1.529,-0.006,-1.166,69.74,84.1,40.503487,-3.368434,608.2,3,5,237.0,1.055
71.1,1,0.0,-0.012,-0.008,-0.006,-0.021,-0.013,-1.529,-0.006,-1.167,69.74,84.1,40.503487,-3.368434,608.2,3,5,237.0,1.055
71.2,1,0.003,-0.023,-0.03,-0.003,-0.019,-0.016,-1.526,-0.006,-1.168,70.7,82.9,40.503368,-3.36866,607.1,3,5,237.0,1.055
71.31,1,-0.007,-0.01,-0.035,-0.002,-0.018,-0.031,-1.523,-0.004,-1.169,70.7,82.9,40.503368,-3.36866,607.1,3,5,237.0,1.055
71.41,1,-0.033,-0.019,-0.009,-0.017,-0.018,-0.021,-1.523,-0.004,-1.17,70.7,82.9,40.503368,-3.36866,607.1,3,5,237.0,1.055
71.5,1,-0.017,-0.008,-0.014,-0.019,-0.012,-0.014,-1.522,-0.002,-1.171,70.7,82.9,40.503368,-3.36866,607.1,3,5,237.0,1.055
71.6,1,-0.0,-0.004,-0.027,-0.014,-0.009,-0.022,-1.519,-0.001,-1.172,70.7,82.9,40.503368,-3.36866,607.1,3,5,237.0,1.055
71.71,1,-0.001,-0.016,-0.034,-0.004,-0.012,-0.026,-1.516,-0.001,-1.173,70.7,82.9,40.503368,-3.36866,607.1,3,5,237.0,1.055
71.8,1,-0.023,-0.013,-0.04,-0.01,-0.012,-0.034,-1.512,0.0,-1.174,70.7,82.9,40.503368,-3.36866,607.1,3,5,237.0,1.055
71.91,1,-0.041,-0.03,-0.031,-0.027,-0.02,-0.035,-1.51,0.003,-1.174,70.7,82.9,40.503368,-3.36866,607.1,3,5,237.0,1.055
72.01,1,-0.019,-0.04,-0.035,-0.024,-0.028,-0.034,-1.509,0.005,-1.174,70.7,82.9,40.503368,-3.36866,607.1,3,5,237.0,1.055
72.1,1,-0.012,-0.028,-0.033,-0.02,-0.034,-0.034,-1.504,0.005,-1.174,70.7,82.9,40.503368,-3.36866,607.1,3,5,237.0,1.055
72.2,1,0.022,-0.022,-0.029,-0.002,-0.028,-0.029,-1.502,0.006,-1.174,71.7,82.4,40.503254,-3.368891,606.7,3,5,237.7,0.703
72.31,1,-0.024,-0.023,-0.022,-0.004,-0.021,-0.027,-1.499,0.007,-1.175,71.7,82.4,40.503254,-3.368891,606.7,3,5,237.7,0.703
72.41,1,-0.012,-0.013,-0.03,-0.017,-0.021,-0.029,-1.494,0.009,-1.175,71.7,82.4,40.503254,-3.368891,606.7,3,5,237.7,0.703
72.51,1,0.015,-0.015,0.014,0.004,-0.015,-0.011,-1.494,0.009,-1.175,71.7,82.4,40.503254,-3.368891,606.7,3,5,237.7,0.703
72.6,1,-0.007,-0.013,0.024,-0.002,-0.018,0.009,-1.495,0.012,-1.176,71.7,82.4,40.503254,-3.368891,606.7,3,5,237.7,0.703
72.71,1,-0.017,-0.008,0.018,-0.01,-0.013,0.019,-1.498,0.012,-1.176,71.7,82.4,40.503254,-3.368891,606.7,3,5,237.7,0.703
72.81,1,-0.01,0.01,0.02,-0.01,-0.003,0.016,-1.499,0.011,-1.177,71.7,82.4,40.503254,-3.368891,606.7,3,5,237.7,0.703
72.91,1,-0.018,0.01,0.019,-0.011,0.006,0.016,-1.502,0.01,-1.178,71.7,82.4,40.503254,-3.368891,606.7,3,5,237.7,0.703
73.01,1,-0.013,0.007,0.033,-0.014,0.007,0.025,-1.503,0.007,-1.18,71.7,82.4,40.503254,-3.368891,606.7,3,5,237.7,0.703
73.11,1,-0.011,0.001,0.033,-0.016,0.004,0.031,-1.504,0.007,-1.181,71.7,82.4,40.503254,-3.368891,606.7,3,5,237.7,0.703
73.21,1,-0.006,-0.008,0.037,-0.009,0.0,0.033,-1.508,0.007,-1.182,72.79,81.0,40.503147,-3.369122,606.3,3,5,237.7,0.703
73.31,1,0.004,-0.004,0.061,-0.0,-0.003,0.046,-1.512,0.006,-1.183,72.79,81.0,40.503147,-3.369122,606.3,3,5,237.7,0.703
73.41,1,-0.015,-0.011,0.049,-0.003,-0.008,0.052,-1.518,0.005,-1.183,72.79,81.0,40.503147,-3.369122,606.3,3,5,237.7,0.703
73.51,1,-0.03,-0.019,0.075,-0.025,-0.01,0.058,-1.525,0.004,-1.184,72.79,81.0,40.503147,-3.369122,606.3,3,5,237.7,0.703
73.61,1,-0.001,-0.003,0.086,-0.016,-0.014,0.074,-1.533,0.001,-1.185,72.79,81.0,40.503147,-3.369122,606.3,3,5,237.7,0.703
73.71,1,-0.025,-0.021,0.076,-0.009,-0.011,0.077,-1.54,0.0,-1.186,72.79,81.0,40.503147,-3.369122,606.3,3,5,237.7,0.703
73.82,1,0.011,0.002,0.089,-0.006,-0.004,0.084,-1.546,-0.0,-1.187,72.79,81.0,40.503147,-3.369122,606.3,3,5,237.7,0.703
73.92,1,0.009,-0.007,0.075,-0.001,-0.009,0.081,-1.553,-0.001,-1.188,72.79,81.0,40.503147,-3.369122,606.3,3,5,237.7,0.703
74.01,1,-0.005,0.003,0.099,0.003,0.001,0.089,-1.561,0.001,-1.189,72.79,81.0,40.503147,-3.369122,606.3,3,5,237.7,0.703
74.11,1,-0.001,-0.018,0.072,0.0,-0.006,0.083,-1.567,0.001,-1.19,72.79,81.0,40.503147,-3.369122,606.3,3,5,237.7,0.703
74.21,1,0.006,-0.006,0.075,0.003,-0.011,0.075,-1.572,0.004,-1.19,73.7,77.9,40.503044,-3.369342,605.8,3,5,237.3,0.352
74.32,1,-0.018,-0.006,0.08,-0.005,-0.009,0.079,-1.579,0.007,-1.191,73.7,77.9,40.503044,-3.369342,605.8,3,5,237.3,0.352
74.41,1,-0.001,-0.019,0.071,-0.007,-0.014,0.074,-1.584,0.005,-1.191,73.7,77.9,40.503044,-3.369342,605.8,3,5,237.3,0.352
74.51,1,-0.008,-0.029,0.093,-0.005,-0.019,0.085,-1.591,0.006,-1.192,73.7,77.9,40.503044,-3.369342,605.8,3,5,237.3,0.352
74.61,1,-0.006,-0.02,0.068,-0.006,-0.019,0.076,-1.597,0.007,-1.192,73.7,77.9,40.503044,-3.369342,605.8,3,5,237.3,0.352
74.71,1,-0.043,-0.031,0.07,-0.023,-0.027,0.073,-1.603,0.011,-1.191,73.7,77.9,40.503044,-3.369342,605.8,3,5,237.3,0.352
74.82,1,-0.043,-0.034,0.067,-0.033,-0.03,0.072,-1.61,0.013,-1.19,73.7,77.9,40.503044,-3.369342,605.8,3,5,237.3,0.352
74.91,1,-0.001,-0.052,0.073,-0.028,-0.039,0.069,-1.611,0.012,-1.189,73.7,77.9,40.503044,-3.369342,605.8,3,5,237.3,0.352
75.02,1,0.011,-0.041,0.043,-0.005,-0.045,0.063,-1.615,0.014,-1.188,73.7,77.9,40.503044,-3.369342,605.8,3,5,237.3,0.352
75.11,1,0.011,-0.024,0.041,0.011,-0.036,0.05,-1.619,0.016,-1.188,73.7,77.9,40.503044,-3.369342,605.8,3,5,237.3,0.352
75.21,1,-0.029,-0.003,0.033,-0.009,-0.02,0.04,-1.623,0.017,-1.188,74.7,76.6,40.502941,-3.369558,607.6,3,5,238.4,1.055
75.31,1,-0.026,-0.015,0.045,-0.023,-0.011,0.043,-1.627,0.017,-1.187,74.7,76.6,40.502941,-3.369558,607.6,3,5,238.4,1.055
75.41,1,-0.012,-0.009,0.02,-0.013,-0.012,0.026,-1.628,0.019,-1.186,74.7,76.6,40.502941,-3.369558,607.6,3,5,238.4,1.055
75.52,1,0.007,-0.036,0.029,-0.01,-0.023,0.025,-1.629,0.022,-1.185,74.7,76.6,40.502941,-3.369558,607.6,3,5,238.4,1.055
75.62,1,0.004,-0.03,0.02,0.004,-0.029,0.029,-1.631,0.024,-1.185,74.7,76.6,40.502941,-3.369558,607.6,3,5,238.4,1.055
75.72,1,-0.007,-0.032,0.023,-0.001,-0.029,0.024,-1.632,0.027,-1.184,74.7,76.6,40.502941,-3.369558,607.6,3,5,238.4,1.055
75.82,1,-0.026,-0.02,0.025,-0.016,-0.026,0.025,-1.634,0.029,-1.183,74.7,76.6,40.502941,-3.369558,607.6,3,5,238.4,1.055
75.91,1,-0.051,0.015,-0.006,-0.033,-0.009,0.013,-1.635,0.028,-1.183,74.7,76.6,40.502941,-3.369558,607.6,3,5,238.4,1.055
76.01,1,-0.044,-0.004,0.014,-0.044,-0.002,0.005,-1.635,0.025,-1.183,74.7,76.6,40.502941,-3.369558,607.6,3,5,238.4,1.055
76.12,1,0.014,0.009,0.005,-0.015,-0.0,0.012,-1.635,0.02,-1.183,74.7,76.6,40.502941,-3.369558,607.6,3,5,238.4,1.055
76.21,1,-0.017,0.013,-0.003,-0.01,0.009,0.006,-1.635,0.019,-1.183,75.81,83.8,40.502731,-3.370005,606.2,3,5,236.6,1.055
76.31,1,-0.031,0.004,0.019,-0.019,0.008,0.003,-1.636,0.021,-1.183,75.81,83.8,40.502731,-3.370005,606.2,3,5,236.6,1.055
76.42,1,0.007,-0.015,-0.0,-0.015,-0.003,0.009,-1.637,0.021,-1.183,75.81,83.8,40.502731,-3.370005,606.2,3,5,236.6,1.055
76.52,1,0.042,0.002,0.047,0.012,-0.002,0.018,-1.638,0.021,-1.183,75.81,83.8,40.502731,-3.370005,606.2,3,5,236.6,1.055
76.62,1,-0.025,-0.009,-0.005,0.011,-0.001,0.015,-1.637,0.022,-1.183,75.81,83.8,40.502731,-3.370005,606.2,3,5,236.6,1.055
76.72,1,-0.047,-0.026,0.0,-0.024,-0.017,0.006,-1.637,0.024,-1.182,75.81,83.8,40.502731,-3.370005,606.2,3,5,236.6,1.055
76.82,1,-0.013,-0.011,0.005,-0.026,-0.018,0.007,-1.636,0.024,-1.182,75.81,83.8,40.502731,-3.370005,606.2,3,5,236.6,1.055
76.92,1,-0.038,-0.003,-0.007,-0.024,-0.008,0.002,-1.636,0.023,-1.182,75.81,83.8,40.502731,-3.370005,606.2,3,5,236.6,1.055
77.02,1,-0.001,0.034,0.021,-0.023,0.007,0.005,-1.636,0.021,-1.183,75.81,83.8,40.502731,-3.370005,606.2,3,5,236.6,1.055
77.12,1,-0.004,0.011,-0.001,-0.006,0.018,0.012,-1.635,0.017,-1.184,75.81,83.8,40.502731,-3.370005,606.2,3,5,236.6,1.055
77.22,1,-0.028,0.035,-0.035,-0.014,0.023,-0.016,-1.633,0.013,-1.185,76.71,83.8,40.502731,-3.370005,606.2,3,5,236.6,1.758
77.32,1,-0.021,0.034,0.007,-0.023,0.032,-0.01,-1.635,0.009,-1.187,76.71,83.8,40.502731,-3.370005,606.2,3,5,236.6,1.758
77.42,1,-0.012,0.054,0.009,-0.016,0.042,0.001,-1.635,0.003,-1.189,76.71,83.8,40.502731,-3.370005,606.2,3,5,236.6,1.758
77.52,1,-0.04,0.043,-0.023,-0.025,0.041,-0.005,-1.636,-0.002,-1.192,76.71,83.8,40.502731,-3.370005,606.2,3,5,236.6,1.758
77.62,1,-0.029,0.031,0.003,-0.032,0.036,-0.01,-1.635,-0.005,-1.194,76.71,83.8,40.502731,-3.370005,606.2,3,5,236.6,1.758
77.72,1,-0.012,0.031,0.001,-0.024,0.035,0.001,-1.636,-0.006,-1.196,76.71,83.8,40.502731,-3.370005,606.2,3,5,236.6,1.758
77.82,1,0.006,0.037,-0.019,-0.008,0.037,-0.004,-1.636,-0.01,-1.199,76.71,83.8,40.502731,-3.370005,606.2,3,5,236.6,1.758
77.92,1,0.038,0.045,-0.005,0.019,0.04,-0.015,-1.633,-0.015,-1.201,76.71,83.8,40.502731,-3.370005,606.2,3,5,236.6,1.758
78.02,1,-0.004,0.051,-0.002,0.015,0.045,0.002,-1.631,-0.017,-1.204,76.71,83.8,40.502731,-3.370005,606.2,3,5,236.6,1.758
78.13,1,-0.032,0.033,-0.018,-0.011,0.043,-0.013,-1.63,-0.021,-1.206,76.71,83.8,40.502731,-3.370005,606.2,3,5,236.6,1.758
78.22,1,-0.042,0.034,-0.021,-0.032,0.034,-0.019,-1.63,-0.022,-1.209,77.71,86.6,40.502613,-3.370238,606.3,3,5,236.2,1.055
78.32,1,-0.021,0.023,0.003,-0.031,0.028,-0.009,-1.631,-0.022,-1.211,77.71,86.6,40.502613,-3.370238,606.3,3,5,236.2,1.055
78.42,1,-0.02,0.004,0.003,-0.023,0.019,0.001,-1.631,-0.023,-1.214,77.71,86.6,40.502613,-3.370238,606.3,3,5,236.2,1.055
78.52,1,0.01,0.006,0.01,-0.008,0.007,0.001,-1.63,-0.021,-1.215,77.71,86.6,40.502613,-3.370238,606.3,3,5,236.2,1.055
78.62,1,-0.004,-0.016,-0.01,0.001,-0.002,0.002,-1.63,-0.02,-1.216,77.71,86.6,40.502613,-3.370238,606.3,3,5,236.2,1.055
78.72,1,-0.04,-0.007,-0.027,-0.015,-0.002,-0.013,-1.628,-0.02,-1.217,77.71,86.6,40.502613,-3.370238,606.3,3,5,236.2,1.055
78.83,1,-0.035,0.011,0.0,-0.03,0.001,-0.011,-1.63,-0.018,-1.219,77.71,86.6,40.502613,-3.370238,606.3,3,5,236.2,1.055
78.92,1,-0.032,0.021,-0.024,-0.037,0.011,-0.015,-1.629,-0.018,-1.221,77.71,86.6,40.502613,-3.370238,606.3,3,5,236.2,1.055
79.02,1,-0.008,0.003,-0.012,-0.025,0.009,-0.014,-1.628,-0.02,-1.222,77.71,86.6,40.502613,-3.370238,606.3,3,5,236.2,1.055
79.13,1,-0.02,-0.028,-0.025,-0.02,-0.009,-0.02,-1.628,-0.016,-1.223,77.71,86.6,40.502613,-3.370238,606.3,3,5,236.2,1.055
79.22,1,-0.009,-0.005,0.005,-0.012,-0.015,-0.009,-1.628,-0.014,-1.223,78.71,89.3,40.502491,-3.370478,606.8,3,5,236.6,0.352
79.32,1,-0.042,-0.013,-0.017,-0.021,-0.008,-0.005,-1.629,-0.011,-1.224,78.71,89.3,40.502491,-3.370478,606.8,3,5,236.6,0.352
79.43,1,-0.008,-0.024,-0.016,-0.024,-0.016,-0.013,-1.628,-0.01,-1.225,78.71,89.3,40.502491,-3.370478,606.8,3,5,236.6,0.352
79.52,1,0.006,-0.018,0.015,-0.009,-0.019,-0.006,-1.628,-0.009,-1.225,78.71,89.3,40.502491,-3.370478,606.8,3,5,236.6,0.352
79.62,1,0.008,-0.012,-0.002,0.004,-0.015,0.003,-1.627,-0.011,-1.226,78.71,89.3,40.502491,-3.370478,606.8,3,5,236.6,0.352
79.72,1,0.004,-0.004,-0.011,0.001,-0.007,-0.008,-1.625,-0.012,-1.226,78.71,89.3,40.502491,-3.370478,606.8,3,5,236.6,0.352
79.83,1,-0.027,-0.012,-0.009,-0.008,-0.01,-0.005,-1.626,-0.011,-1.227,78.71,89.3,40.502491,-3.370478,606.8,3,5,236.6,0.352
79.92,1,-0.025,-0.024,0.003,-0.009,-0.017,-0.004,-1.624,-0.009,-1.227,78.71,89.3,40.502491,-3.370478,606.8,3,5,236.6,0.352
80.04,1,-0.027,-0.054,-0.008,-0.032,-0.035,-0.004,-1.623,-0.003,-1.226,78.71,89.3,40.502491,-3.370478,606.8,3,5,236.6,0.352
80.14,1,0.001,-0.069,0.001,-0.018,-0.052,-0.002,-1.624,0.004,-1.224,78.71,89.3,40.502491,-3.370478,606.8,3,5,236.6,0.352
80.23,1,0.017,-0.054,-0.002,0.007,-0.057,0.001,-1.623,0.011,-1.223,79.71,91.0,40.502361,-3.370725,606.7,3,5,237.7,1.406
80.33,1,-0.012,-0.053,-0.011,0.001,-0.056,-0.007,-1.62,0.014,-1.222,79.71,91.0,40.502361,-3.370725,606.7,3,5,237.7,1.406
80.43,1,-0.024,-0.035,0.013,-0.011,-0.046,-0.001,-1.621,0.016,-1.22,79.71,91.0,40.502361,-3.370725,606.7,3,5,237.7,1.406
80.53,1,-0.017,-0.003,-0.002,-0.018,-0.028,0.007,-1.622,0.017,-1.219,79.71,91.0,40.502361,-3.370725,606.7,3,5,237.7,1.406
80.63,1,-0.009,0.012,-0.009,-0.018,-0.008,-0.004,-1.621,0.022,-1.219,79.71,91.0,40.502361,-3.370725,606.7,3,5,237.7,1.406
80.73,1,-0.022,-0.008,-0.018,-0.013,0.003,-0.011,-1.619,0.022,-1.218,79.71,91.0,40.502361,-3.370725,606.7,3,5,237.7,1.406
80.83,1,-0.046,-0.009,-0.005,-0.03,-0.002,-0.014,-1.62,0.022,-1.218,79.71,91.0,40.502361,-3.370725,606.7,3,5,237.7,1.406
80.93,1,-0.007,-0.001,0.019,-0.028,-0.007,0.006,-1.619,0.02,-1.219,79.71,91.0,40.502361,-3.370725,606.7,3,5,237.7,1.406
81.03,1,-0.02,0.041,-0.014,-0.017,0.011,0.0,-1.616,0.018,-1.22,79.71,91.0,40.502361,-3.370725,606.7,3,5,237.7,1.406
81.13,1,-0.02,0.032,-0.023,-0.014,0.026,-0.009,-1.615,0.019,-1.221,79.71,91.0,40.502361,-3.370725,606.7,3,5,237.7,1.406
81.23,1,-0.049,0.003,0.002,-0.034,0.019,-0.016,-1.616,0.023,-1.221,80.71,93.5,40.502235,-3.370985,607.2,3,5,238.4,1.758
81.33,1,0.032,-0.042,0.047,-0.023,-0.011,0.019,-1.617,0.024,-1.219,80.71,93.5,40.502235,-3.370985,607.2,3,5,238.4,1.758
81.43,1,0.09,-0.094,-0.015,0.044,-0.044,0.015,-1.614,0.029,-1.216,80.71,93.5,40.502235,-3.370985,607.2,3,5,238.4,1.758
81.53,1,0.01,-0.084,-0.02,0.051,-0.071,-0.009,-1.612,0.032,-1.213,80.71,93.5,40.502235,-3.370985,607.2,3,5,238.4,1.758
81.63,1,-0.061,-0.06,-0.012,-0.004,-0.078,-0.013,-1.612,0.032,-1.212,80.71,93.5,40.502235,-3.370985,607.2,3,5,238.4,1.758
81.73,1,-0.055,-0.019,0.053,-0.044,-0.044,0.01,-1.613,0.035,-1.21,80.71,93.5,40.502235,-3.370985,607.2,3,5,238.4,1.758
81.83,1,-0.011,-0.068,-0.031,-0.037,-0.048,0.01,-1.611,0.036,-1.208,80.71,93.5,40.502235,-3.370985,607.2,3,5,238.4,1.758
81.93,1,-0.01,-0.037,-0.011,-0.013,-0.054,-0.013,-1.61,0.034,-1.207,80.71,93.5,40.502235,-3.370985,607.2,3,5,238.4,1.758
82.03,1,-0.002,-0.005,0.005,-0.009,-0.03,-0.004,-1.612,0.031,-1.207,80.71,93.5,40.502235,-3.370985,607.2,3,5,238.4,1.758
82.13,1,-0.007,0.009,0.006,-0.009,-0.004,0.0,-1.612,0.025,-1.209,80.71,93.5,40.502235,-3.370985,607.2,3,5,238.4,1.758
82.23,1,-0.016,0.013,-0.008,-0.01,0.007,0.003,-1.613,0.022,-1.209,81.74,96.2,40.502113,-3.371237,607.7,3,5,237.3,1.055
82.33,1,-0.008,0.016,-0.012,-0.008,0.014,-0.008,-1.613,0.019,-1.209,81.74,96.2,40.502113,-3.371237,607.7,3,5,237.3,1.055
82.43,1,-0.035,-0.003,-0.004,-0.018,0.008,-0.008,-1.613,0.018,-1.21,81.74,96.2,40.502113,-3.371237,607.7,3,5,237.3,1.055
82.55,1,-0.031,-0.006,-0.003,-0.029,-0.004,-0.005,-1.612,0.018,-1.21,81.74,96.2,40.502113,-3.371237,607.7,3,5,237.3,1.055
82.63,1,-0.001,0.016,0.012,-0.021,0.004,0.001,-1.61,0.017,-1.21,81.74,96.2,40.502113,-3.371237,607.7,3,5,237.3,1.055
82.73,1,0.009,0.007,-0.007,-0.007,0.009,0.003,-1.607,0.016,-1.21,81.74,96.2,40.502113,-3.371237,607.7,3,5,237.3,1.055
82.83,1,0.016,0.016,-0.015,0.013,0.014,-0.006,-1.602,0.013,-1.21,81.74,96.2,40.502113,-3.371237,607.7,3,5,237.3,1.055
82.93,1,-0.019,0.025,-0.009,0.004,0.017,-0.008,-1.601,0.014,-1.211,81.74,96.2,40.502113,-3.371237,607.7,3,5,237.3,1.055
83.03,1,-0.017,-0.007,0.003,-0.016,0.009,-0.007,-1.6,0.015,-1.211,81.74,96.2,40.502113,-3.371237,607.7,3,5,237.3,1.055
83.14,1,-0.044,-0.028,-0.007,-0.029,-0.011,-0.005,-1.6,0.015,-1.211,81.74,96.2,40.502113,-3.371237,607.7,3,5,237.3,1.055
83.24,1,-0.018,-0.005,-0.0,-0.029,-0.013,-0.002,-1.599,0.015,-1.21,82.81,99.0,40.501846,-3.371775,607.6,3,5,236.6,1.406
83.33,1,0.015,-0.011,-0.022,-0.005,-0.006,-0.008,-1.596,0.015,-1.21,82.81,99.0,40.501846,-3.371775,607.6,3,5,236.6,1.406
83.43,1,-0.013,-0.015,-0.035,-0.007,-0.015,-0.025,-1.594,0.02,-1.209,82.81,99.0,40.501846,-3.371775,607.6,3,5,236.6,1.406
83.53,1,-0.025,-0.025,-0.016,-0.015,-0.019,-0.022,-1.592,0.023,-1.208,82.81,99.0,40.501846,-3.371775,607.6,3,5,236.6,1.406
83.63,1,0.015,-0.022,0.001,-0.006,-0.02,-0.013,-1.591,0.024,-1.208,82.81,99.0,40.501846,-3.371775,607.6,3,5,236.6,1.406
83.75,1,0.044,0.022,-0.028,0.02,-0.003,-0.014,-1.588,0.021,-1.208,82.81,99.0,40.501846,-3.371775,607.6,3,5,236.6,1.406
83.94,1,0.012,0.001,-0.005,0.01,0.012,-0.015,-1.583,0.021,-1.207,82.81,99.0,40.501846,-3.371775,607.6,3,5,236.6,1.406
84.04,1,0.014,0.001,-0.019,0.012,0.005,-0.015,-1.581,0.022,-1.206,82.81,99.0,40.501846,-3.371775,607.6,3,5,236.6,1.406
84.14,1,-0.061,0.005,-0.028,-0.016,0.004,-0.019,-1.579,0.024,-1.206,82.81,99.0,40.501846,-3.371775,607.6,3,5,236.6,1.406
84.24,1,-0.067,-0.015,-0.011,-0.053,-0.009,-0.023,-1.578,0.027,-1.206,82.81,99.0,40.501846,-3.371775,607.6,3,5,236.6,1.406
84.35,1,-0.017,0.004,0.005,-0.036,-0.0,-0.002,-1.581,0.027,-1.205,83.76,99.0,40.501846,-3.371775,607.6,3,5,236.6,0.703
84.44,1,0.016,0.014,-0.017,-0.016,0.006,-0.012,-1.58,0.026,-1.206,83.76,99.0,40.501846,-3.371775,607.6,3,5,236.6,0.703
84.54,1,0.014,0.045,-0.004,0.01,0.022,-0.009,-1.578,0.022,-1.207,83.76,99.0,40.501846,-3.371775,607.6,3,5,236.6,0.703
84.64,1,-0.04,0.033,-0.033,-0.007,0.035,-0.017,-1.577,0.02,-1.207,83.76,99.0,40.501846,-3.371775,607.6,3,5,236.6,0.703
84.74,1,-0.04,0.011,-0.001,-0.035,0.021,-0.017,-1.577,0.019,-1.208,83.76,99.0,40.501846,-3.371775,607.6,3,5,236.6,0.703
84.84,1,-0.0,0.005,0.002,-0.019,0.015,0.001,-1.577,0.019,-1.208,83.76,99.0,40.501846,-3.371775,607.6,3,5,236.6,0.703
84.94,1,-0.011,0.012,-0.016,-0.009,0.014,-0.011,-1.574,0.018,-1.209,83.76,99.0,40.501846,-3.371775,607.6,3,5,236.6,0.703
85.04,1,0.001,0.037,-0.012,-0.011,0.018,-0.012,-1.574,0.017,-1.209,83.76,99.0,40.501846,-3.371775,607.6,3,5,236.6,0.703
85.14,1,-0.007,0.02,0.009,-0.004,0.024,-0.002,-1.575,0.017,-1.209,83.76,99.0,40.501846,-3.371775,607.6,3,5,236.6,0.703
85.24,1,0.0,0.018,-0.016,-0.007,0.02,-0.004,-1.573,0.015,-1.21,83.76,99.0,40.501846,-3.371775,607.6,3,5,236.6,0.703
85.34,1,-0.004,0.021,-0.009,-0.002,0.017,-0.011,-1.573,0.015,-1.21,84.71,100.1,40.501709,-3.37205,607.2,3,5,236.6,0.352
85.44,1,-0.043,-0.003,-0.004,-0.018,0.011,-0.007,-1.573,0.014,-1.211,84.71,100.1,40.501709,-3.37205,607.2,3,5,236.6,0.352
85.54,1,-0.01,-0.005,0.005,-0.023,0.004,-0.001,-1.574,0.015,-1.211,84.71,100.1,40.501709,-3.37205,607.2,3,5,236.6,0.352
85.65,1,0.021,0.017,-0.004,-0.001,0.006,-0.003,-1.573,0.014,-1.211,84.71,100.1,40.501709,-3.37205,607.2,3,5,236.6,0.352
85.74,1,-0.017,0.016,-0.013,-0.001,0.014,-0.006,-1.573,0.012,-1.212,84.71,100.1,40.501709,-3.37205,607.2,3,5,236.6,0.352
85.84,1,-0.028,-0.007,0.011,-0.013,0.008,0.0,-1.575,0.012,-1.212,84.71,100.1,40.501709,-3.37205,607.2,3,5,236.6,0.352
85.94,1,-0.002,0.01,0.018,-0.011,0.004,0.011,-1.576,0.012,-1.213,84.71,100.1,40.501709,-3.37205,607.2,3,5,236.6,0.352
86.04,1,0.019,0.034,0.028,0.001,0.016,0.015,-1.576,0.011,-1.214,84.71,100.1,40.501709,-3.37205,607.2,3,5,236.6,0.352
86.14,1,0.025,0.005,-0.015,0.013,0.015,0.008,-1.576,0.01,-1.214,84.71,100.1,40.501709,-3.37205,607.2,3,5,236.6,0.352
86.25,1,-0.029,0.015,0.007,0.005,0.014,0.003,-1.577,0.01,-1.214,84.71,100.1,40.501709,-3.37205,607.2,3,5,236.6,0.352
86.35,1,-0.032,0.025,0.042,-0.022,0.019,0.02,-1.58,0.01,-1.214,85.71,100.6,40.501572,-3.372328,607.6,3,5,236.2,0.352
86.44,1,-0.018,0.0,0.013,-0.026,0.012,0.021,-1.581,0.011,-1.215,85.71,100.6,40.501572,-3.372328,607.6,3,5,236.2,0.352
86.54,1,0.004,-0.014,0.008,-0.01,-0.002,0.014,-1.582,0.014,-1.215,85.71,100.6,40.501572,-3.372328,607.6,3,5,236.2,0.352
86.65,1,-0.011,0.001,0.018,-0.005,-0.004,0.014,-1.585,0.016,-1.215,85.71,100.6,40.501572,-3.372328,607.6,3,5,236.2,0.352
86.74,1,-0.037,0.014,0.009,-0.021,0.001,0.014,-1.588,0.016,-1.216,85.71,100.6,40.501572,-3.372328,607.6,3,5,236.2,0.352
86.85,1,-0.031,0.026,0.017,-0.031,0.021,0.013,-1.591,0.016,-1.216,85.71,100.6,40.501572,-3.372328,607.6,3,5,236.2,0.352
86.94,1,0.0,-0.0,0.02,-0.018,0.013,0.016,-1.594,0.017,-1.216,85.71,100.6,40.501572,-3.372328,607.6,3,5,236.2,0.352
87.04,1,-0.003,-0.005,0.014,-0.005,0.001,0.018,-1.595,0.017,-1.216,85.71,100.6,40.501572,-3.372328,607.6,3,5,236.2,0.352
87.14,1,-0.031,0.001,0.005,-0.015,-0.003,0.013,-1.596,0.018,-1.217,85.71,100.6,40.501572,-3.372328,607.6,3,5,236.2,0.352
87.25,1,-0.012,0.016,0.018,-0.02,0.009,0.01,-1.597,0.017,-1.217,85.71,100.6,40.501572,-3.372328,607.6,3,5,236.2,0.352
87.35,1,0.01,0.014,0.015,-0.008,0.015,0.015,-1.599,0.018,-1.217,86.71,100.7,40.501427,-3.372597,606.7,3,5,236.2,0.352
87.45,1,0.002,0.004,-0.004,-0.003,0.011,0.007,-1.596,0.02,-1.217,86.71,100.7,40.501427,-3.372597,606.7,3,5,236.2,0.352
87.55,1,0.013,-0.007,-0.002,0.016,-0.003,0.004,-1.594,0.021,-1.217,86.71,100.7,40.501427,-3.372597,606.7,3,5,236.2,0.352
87.65,1,-0.009,0.02,-0.004,0.005,0.006,-0.006,-1.592,0.019,-1.217,86.71,100.7,40.501427,-3.372597,606.7,3,5,236.2,0.352
87.75,1,-0.047,0.017,-0.001,-0.029,0.012,-0.002,-1.593,0.019,-1.218,86.71,100.7,40.501427,-3.372597,606.7,3,5,236.2,0.352
87.85,1,-0.05,-0.008,-0.015,-0.039,0.007,-0.006,-1.594,0.018,-1.218,86.71,100.7,40.501427,-3.372597,606.7,3,5,236.2,0.352
87.95,1,-0.041,0.012,-0.0,-0.042,0.008,-0.003,-1.595,0.021,-1.218,86.71,100.7,40.501427,-3.372597,606.7,3,5,236.2,0.352
88.06,1,0.028,0.017,0.01,-0.014,0.014,-0.001,-1.597,0.018,-1.218,86.71,100.7,40.501427,-3.372597,606.7,3,5,236.2,0.352
88.15,1,0.026,0.018,-0.022,0.016,0.014,-0.005,-1.596,0.017,-1.219,86.71,100.7,40.501427,-3.372597,606.7,3,5,236.2,0.352
88.25,1,-0.024,0.024,0.001,0.003,0.018,-0.007,-1.594,0.015,-1.22,86.71,100.7,40.501427,-3.372597,606.7,3,5,236.2,0.352
88.35,1,-0.058,0.026,-0.009,-0.032,0.024,-0.008,-1.595,0.012,-1.22,87.71,101.4,40.501293,-3.372869,606.9,3,5,236.2,0.0
88.45,1,-0.017,0.018,0.003,-0.033,0.022,-0.004,-1.595,0.01,-1.221,87.71,101.4,40.501293,-3.372869,606.9,3,5,236.2,0.0
88.55,1,-0.001,0.019,0.013,-0.014,0.018,0.005,-1.593,0.008,-1.222,87.71,101.4,40.501293,-3.372869,606.9,3,5,236.2,0.0
88.65,1,-0.007,0.013,0.008,-0.008,0.017,0.007,-1.594,0.005,-1.223,87.71,101.4,40.501293,-3.372869,606.9,3,5,236.2,0.0
88.76,1,-0.012,0.038,0.007,-0.01,0.027,0.007,-1.595,0.002,-1.225,87.71,101.4,40.501293,-3.372869,606.9,3,5,236.2,0.0
88.85,1,-0.004,0.035,0.007,-0.007,0.03,0.009,-1.595,-0.002,-1.226,87.71,101.4,40.501293,-3.372869,606.9,3,5,236.2,0.0
88.95,1,0.001,0.018,0.016,-0.002,0.027,0.011,-1.595,-0.005,-1.228,87.71,101.4,40.501293,-3.372869,606.9,3,5,236.2,0.0
89.05,1,-0.008,0.02,0.006,-0.004,0.024,0.009,-1.597,-0.007,-1.229,87.71,101.4,40.501293,-3.372869,606.9,3,5,236.2,0.0
89.16,1,-0.014,0.028,-0.015,-0.012,0.02,-0.0,-1.597,-0.009,-1.231,87.71,101.4,40.501293,-3.372869,606.9,3,5,236.2,0.0
89.25,1,-0.029,0.027,-0.012,-0.018,0.027,-0.005,-1.596,-0.012,-1.233,87.71,101.4,40.501293,-3.372869,606.9,3,5,236.2,0.0
89.35,1,-0.052,0.022,-0.027,-0.036,0.025,-0.02,-1.593,-0.014,-1.235,88.71,102.9,40.501152,-3.373152,606.7,3,5,236.2,0.0
89.45,1,-0.057,0.023,-0.011,-0.046,0.028,-0.02,-1.595,-0.015,-1.237,88.71,102.9,40.501152,-3.373152,606.7,3,5,236.2,0.0
89.55,1,0.036,0.009,-0.014,-0.016,0.016,-0.011,-1.595,-0.016,-1.239,88.71,102.9,40.501152,-3.373152,606.7,3,5,236.2,0.0
89.65,1,0.016,0.022,-0.053,0.009,0.013,-0.033,-1.594,-0.015,-1.241,88.71,102.9,40.501152,-3.373152,606.7,3,5,236.2,0.0
89.75,1,0.026,0.006,-0.029,0.022,0.016,-0.032,-1.593,-0.014,-1.242,88.71,102.9,40.501152,-3.373152,606.7,3,5,236.2,0.0
89.86,1,-0.052,0.006,-0.029,-0.003,0.007,-0.031,-1.59,-0.014,-1.243,88.71,102.9,40.501152,-3.373152,606.7,3,5,236.2,0.0
89.95,1,-0.009,0.003,-0.03,-0.027,0.007,-0.033,-1.586,-0.013,-1.244,88.71,102.9,40.501152,-3.373152,606.7,3,5,236.2,0.0
90.05,1,-0.002,0.006,-0.04,-0.01,0.007,-0.034,-1.582,-0.016,-1.246,88.71,102.9,40.501152,-3.373152,606.7,3,5,236.2,0.0
90.15,1,0.001,-0.008,-0.014,-0.004,-0.002,-0.024,-1.58,-0.014,-1.247,88.71,102.9,40.501152,-3.373152,606.7,3,5,236.2,0.0
90.25,1,-0.045,0.005,-0.048,-0.012,-0.001,-0.032,-1.578,-0.014,-1.247,88.71,102.9,40.501152,-3.373152,606.7,3,5,236.2,0.0
90.35,1,-0.003,-0.067,0.048,-0.018,-0.026,-0.006,-1.577,-0.011,-1.246,89.82,104.8,40.500862,-3.373724,606.3,3,5,237.3,0.352
90.45,1,0.034,-0.073,-0.059,0.012,-0.055,-0.01,-1.575,-0.011,-1.245,89.82,104.8,40.500862,-3.373724,606.3,3,5,237.3,0.352
90.56,1,-0.062,-0.049,-0.028,-0.021,-0.052,-0.037,-1.576,-0.011,-1.244,89.82,104.8,40.500862,-3.373724,606.3,3,5,237.3,0.352
90.66,1,0.008,-0.06,0.005,-0.022,-0.056,-0.011,-1.58,-0.006,-1.243,89.82,104.8,40.500862,-3.373724,606.3,3,5,237.3,0.352
90.75,1,-0.001,-0.052,-0.028,-0.005,-0.055,-0.017,-1.577,0.0,-1.242,89.82,104.8,40.500862,-3.373724,606.3,3,5,237.3,0.352
90.85,1,0.013,-0.056,-0.022,0.003,-0.055,-0.022,-1.576,0.005,-1.241,89.82,104.8,40.500862,-3.373724,606.3,3,5,237.3,0.352
90.95,1,0.001,-0.037,-0.026,0.008,-0.049,-0.023,-1.572,0.009,-1.24,89.82,104.8,40.500862,-3.373724,606.3,3,5,237.3,0.352
91.05,1,-0.004,-0.029,-0.02,-0.003,-0.037,-0.024,-1.572,0.01,-1.24,89.82,104.8,40.500862,-3.373724,606.3,3,5,237.3,0.352
91.16,1,-0.01,-0.012,0.001,-0.005,-0.025,-0.011,-1.572,0.011,-1.239,89.82,104.8,40.500862,-3.373724,606.3,3,5,237.3,0.352
91.25,1,-0.031,-0.009,-0.011,-0.015,-0.017,-0.008,-1.572,0.012,-1.238,89.82,104.8,40.500862,-3.373724,606.3,3,5,237.3,0.352
91.36,1,-0.046,-0.018,-0.012,-0.033,-0.014,-0.012,-1.571,0.014,-1.237,90.76,104.8,40.500862,-3.373724,606.3,3,5,237.3,1.055
91.46,1,-0.025,-0.045,0.033,-0.032,-0.029,0.006,-1.574,0.016,-1.235,90.76,104.8,40.500862,-3.373724,606.3,3,5,237.3,1.055
91.56,1,0.003,-0.034,-0.012,-0.016,-0.034,0.005,-1.573,0.018,-1.235,90.76,104.8,40.500862,-3.373724,606.3,3,5,237.3,1.055
91.66,1,-0.015,-0.005,0.01,-0.012,-0.022,0.002,-1.574,0.019,-1.235,90.76,104.8,40.500862,-3.373724,606.3,3,5,237.3,1.055
91.76,1,-0.015,0.008,0.017,-0.013,-0.003,0.009,-1.572,0.018,-1.235,90.76,104.8,40.500862,-3.373724,606.3,3,5,237.3,1.055
91.86,1,-0.021,0.026,0.02,-0.015,0.013,0.018,-1.576,0.017,-1.235,90.76,104.8,40.500862,-3.373724,606.3,3,5,237.3,1.055
91.96,1,0.009,0.006,-0.004,-0.01,0.01,0.009,-1.576,0.018,-1.235,90.76,104.8,40.500862,-3.373724,606.3,3,5,237.3,1.055
92.06,1,-0.025,-0.006,0.008,-0.011,0.005,0.007,-1.577,0.019,-1.235,90.76,104.8,40.500862,-3.373724,606.3,3,5,237.3,1.055
92.16,1,-0.015,0.014,0.015,-0.014,0.004,0.009,-1.579,0.017,-1.235,90.76,104.8,40.500862,-3.373724,606.3,3,5,237.3,1.055
92.26,1,0.024,0.017,-0.004,-0.001,0.01,0.005,-1.578,0.016,-1.236,90.76,104.8,40.500862,-3.373724,606.3,3,5,237.3,1.055
92.37,1,0.003,0.035,0.002,0.005,0.024,-0.0,-1.577,0.017,-1.236,91.71,104.7,40.500717,-3.374007,606.3,3,5,237.3,0.703
92.46,1,-0.033,-0.005,0.018,-0.007,0.015,0.013,-1.578,0.019,-1.236,91.71,104.7,40.500717,-3.374007,606.3,3,5,237.3,0.703
92.56,1,-0.006,0.004,0.003,-0.015,0.003,0.008,-1.578,0.021,-1.235,91.71,104.7,40.500717,-3.374007,606.3,3,5,237.3,0.703
92.66,1,0.022,0.011,0.0,0.003,0.008,0.004,-1.576,0.019,-1.235,91.71,104.7,40.500717,-3.374007,606.3,3,5,237.3,0.703
92.76,1,-0.025,-0.016,-0.0,-0.007,0.004,0.001,-1.577,0.018,-1.235,91.71,104.7,40.500717,-3.374007,606.3,3,5,237.3,0.703
92.86,1,0.013,-0.027,-0.005,-0.0,-0.017,-0.004,-1.578,0.021,-1.234,91.71,104.7,40.500717,-3.374007,606.3,3,5,237.3,0.703
92.96,1,-0.039,-0.02,-0.015,-0.012,-0.021,-0.009,-1.577,0.022,-1.233,91.71,104.7,40.500717,-3.374007,606.3,3,5,237.3,0.703
93.07,1,-0.013,-0.017,0.022,-0.025,-0.018,0.003,-1.579,0.024,-1.232,91.71,104.7,40.500717,-3.374007,606.3,3,5,237.3,0.703
93.16,1,0.019,-0.004,0.016,-0.001,-0.014,0.015,-1.579,0.025,-1.231,91.71,104.7,40.500717,-3.374007,606.3,3,5,237.3,0.703
93.26,1,-0.013,0.019,0.004,0.002,0.002,0.007,-1.578,0.025,-1.231,91.71,104.7,40.500717,-3.374007,606.3,3,5,237.3,0.703
93.36,1,-0.033,0.029,0.005,-0.014,0.016,0.009,-1.579,0.022,-1.232,92.73,105.3,40.500576,-3.374297,606.3,3,5,236.6,0.703
93.46,1,-0.052,0.029,-0.011,-0.043,0.027,-0.006,-1.58,0.02,-1.233,92.73,105.3,40.500576,-3.374297,606.3,3,5,236.6,0.703
93.56,1,-0.038,0.046,0.001,-0.039,0.035,0.002,-1.582,0.018,-1.234,92.73,105.3,40.500576,-3.374297,606.3,3,5,236.6,0.703
93.67,1,-0.046,0.049,-0.004,-0.04,0.045,-0.004,-1.583,0.013,-1.235,92.73,105.3,40.500576,-3.374297,606.3,3,5,236.6,0.703
93.76,1,0.007,0.01,0.016,-0.023,0.029,0.004,-1.583,0.01,-1.235,92.73,105.3,40.500576,-3.374297,606.3,3,5,236.6,0.703
93.86,1,0.015,0.016,-0.007,0.004,0.021,0.006,-1.582,0.008,-1.236,92.73,105.3,40.500576,-3.374297,606.3,3,5,236.6,0.703
93.96,1,-0.001,0.019,-0.011,0.001,0.016,-0.006,-1.582,0.006,-1.237,92.73,105.3,40.500576,-3.374297,606.3,3,5,236.6,0.703
94.06,1,-0.02,-0.007,0.02,-0.01,0.008,0.002,-1.582,0.006,-1.237,92.73,105.3,40.500576,-3.374297,606.3,3,5,236.6,0.703
94.16,1,-0.018,-0.011,0.022,-0.015,-0.002,0.016,-1.584,0.008,-1.236,92.73,105.3,40.500576,-3.374297,606.3,3,5,236.6,0.703
94.27,1,0.013,-0.025,0.009,-0.004,-0.015,0.013,-1.584,0.011,-1.236,92.73,105.3,40.500576,-3.374297,606.3,3,5,236.6,0.703
94.36,1,0.043,-0.011,0.008,0.018,-0.018,0.01,-1.584,0.012,-1.236,93.7,105.9,40.500435,-3.374582,606.3,3,5,236.6,0.703
94.46,1,-0.008,0.013,0.012,0.017,-0.001,0.012,-1.585,0.01,-1.237,93.7,105.9,40.500435,-3.374582,606.3,3,5,236.6,0.703
94.56,1,-0.009,0.021,0.009,-0.001,0.008,0.011,-1.585,0.007,-1.238,93.7,105.9,40.500435,-3.374582,606.3,3,5,236.6,0.703
94.67,1,-0.019,0.038,-0.007,-0.013,0.026,0.003,-1.585,0.001,-1.239,93.7,105.9,40.500435,-3.374582,606.3,3,5,236.6,0.703
94.77,1,-0.04,0.035,-0.006,-0.024,0.036,-0.005,-1.583,-0.002,-1.24,93.7,105.9,40.500435,-3.374582,606.3,3,5,236.6,0.703
94.87,1,-0.016,0.003,-0.005,-0.028,0.02,-0.004,-1.583,-0.002,-1.24,93.7,105.9,40.500435,-3.374582,606.3,3,5,236.6,0.703
94.97,1,0.019,-0.009,-0.015,-0.006,0.003,-0.009,-1.582,-0.002,-1.241,93.7,105.9,40.500435,-3.374582,606.3,3,5,236.6,0.703
95.07,1,-0.027,0.015,-0.015,-0.004,0.005,-0.013,-1.578,-0.005,-1.242,93.7,105.9,40.500435,-3.374582,606.3,3,5,236.6,0.703
95.17,1,-0.048,0.011,-0.038,-0.027,0.012,-0.026,-1.578,-0.006,-1.242,93.7,105.9,40.500435,-3.374582,606.3,3,5,236.6,0.703
95.27,1,-0.039,-0.001,-0.018,-0.038,0.003,-0.023,-1.577,-0.007,-1.243,93.7,105.9,40.500435,-3.374582,606.3,3,5,236.6,0.703
95.37,1,-0.015,0.005,-0.008,-0.032,0.008,-0.016,-1.577,-0.005,-1.244,94.76,106.8,40.500286,-3.374876,606.0,3,5,236.6,0.0
95.48,1,0.006,0.003,0.001,-0.011,0.007,-0.008,-1.577,-0.003,-1.244,94.76,106.8,40.500286,-3.374876,606.0,3,5,236.6,0.0
95.57,1,-0.014,-0.011,0.0,-0.004,-0.004,-0.005,-1.577,-0.002,-1.244,94.76,106.8,40.500286,-3.374876,606.0,3,5,236.6,0.0
95.67,1,-0.011,-0.007,-0.007,-0.011,-0.008,-0.0,-1.576,-0.003,-1.244,94.76,106.8,40.500286,-3.374876,606.0,3,5,236.6,0.0
95.77,1,-0.016,-0.005,-0.001,-0.013,-0.004,-0.003,-1.575,-0.002,-1.244,94.76,106.8,40.500286,-3.374876,606.0,3,5,236.6,0.0
95.87,1,0.001,-0.025,0.004,-0.009,-0.013,0.001,-1.576,-0.002,-1.245,94.76,106.8,40.500286,-3.374876,606.0,3,5,236.6,0.0
95.97,1,-0.014,-0.015,0.006,-0.008,-0.018,0.003,-1.577,0.0,-1.245,94.76,106.8,40.500286,-3.374876,606.0,3,5,236.6,0.0
96.08,1,-0.016,0.003,-0.008,-0.014,-0.008,-0.002,-1.577,0.002,-1.245,94.76,106.8,40.500286,-3.374876,606.0,3,5,236.6,0.0
96.18,1,0.012,-0.026,-0.01,-0.002,-0.011,-0.008,-1.576,0.001,-1.244,94.76,106.8,40.500286,-3.374876,606.0,3,5,236.6,0.0
96.27,1,-0.033,-0.017,-0.019,-0.011,-0.019,-0.012,-1.573,0.001,-1.244,94.76,106.8,40.500286,-3.374876,606.0,3,5,236.6,0.0
96.37,1,-0.004,0.009,-0.025,-0.015,-0.006,-0.017,-1.571,0.001,-1.245,95.72,107.8,40.500137,-3.375174,606.0,3,5,236.6,0.0
96.47,1,0.003,0.013,-0.029,-0.002,0.005,-0.023,-1.569,-0.001,-1.245,95.72,107.8,40.500137,-3.375174,606.0,3,5,236.6,0.0
96.58,1,-0.029,-0.007,-0.022,-0.014,0.002,-0.027,-1.567,0.0,-1.245,95.72,107.8,40.500137,-3.375174,606.0,3,5,236.6,0.0
96.67,1,-0.005,-0.017,-0.022,-0.016,-0.006,-0.022,-1.563,-0.002,-1.245,95.72,107.8,40.500137,-3.375174,606.0,3,5,236.6,0.0
96.77,1,0.041,-0.017,-0.017,0.014,-0.011,-0.018,-1.56,-0.007,-1.245,95.72,107.8,40.500137,-3.375174,606.0,3,5,236.6,0.0
96.87,1,0.01,-0.024,-0.031,0.021,-0.02,-0.031,-1.559,-0.009,-1.246,95.72,107.8,40.500137,-3.375174,606.0,3,5,236.6,0.0
96.98,1,-0.017,-0.001,-0.047,-0.004,-0.018,-0.033,-1.559,-0.009,-1.246,95.72,107.8,40.500137,-3.375174,606.0,3,5,236.6,0.0
97.07,1,-0.089,0.019,-0.038,-0.035,0.001,-0.037,-1.559,-0.009,-1.246,95.72,107.8,40.500137,-3.375174,606.0,3,5,236.6,0.0
97.17,1,-0.024,-0.004,-0.028,-0.049,0.005,-0.033,-1.555,-0.008,-1.246,95.72,107.8,40.500137,-3.375174,606.0,3,5,236.6,0.0
97.27,1,0.029,0.002,-0.039,-0.011,-0.001,-0.033,-1.551,-0.006,-1.246,95.72,107.8,40.500137,-3.375174,606.0,3,5,236.6,0.0
97.39,1,0.006,0.018,-0.052,0.005,0.011,-0.046,-1.549,-0.002,-1.247,96.72,108.0,40.499989,-3.37547,606.3,3,5,237.0,0.352
97.47,1,0.024,0.004,-0.027,0.014,0.01,-0.035,-1.546,-0.003,-1.247,96.72,108.0,40.499989,-3.37547,606.3,3,5,237.0,0.352
97.57,1,-0.012,-0.002,-0.025,0.006,0.001,-0.028,-1.543,-0.005,-1.247,96.72,108.0,40.499989,-3.37547,606.3,3,5,237.0,0.352
97.67,1,0.025,-0.009,-0.035,0.012,-0.006,-0.035,-1.54,-0.007,-1.248,96.72,108.0,40.499989,-3.37547,606.3,3,5,237.0,0.352
97.78,1,-0.008,-0.006,-0.022,0.004,-0.003,-0.028,-1.537,-0.008,-1.248,96.72,108.0,40.499989,-3.37547,606.3,3,5,237.0,0.352
97.88,1,-0.015,-0.03,-0.015,-0.005,-0.013,-0.019,-1.536,-0.006,-1.247,96.72,108.0,40.499989,-3.37547,606.3,3,5,237.0,0.352
97.98,1,-0.018,-0.027,-0.031,-0.015,-0.025,-0.027,-1.533,-0.003,-1.247,96.72,108.0,40.499989,-3.37547,606.3,3,5,237.0,0.352
98.09,1,-0.045,-0.033,-0.017,-0.027,-0.029,-0.022,-1.532,0.0,-1.245,96.72,108.0,40.499989,-3.37547,606.3,3,5,237.0,0.352
98.17,1,0.003,-0.048,0.013,-0.02,-0.038,-0.008,-1.534,0.003,-1.244,96.72,108.0,40.499989,-3.37547,606.3,3,5,237.0,0.352
98.27,1,0.029,-0.061,-0.028,0.004,-0.049,-0.007,-1.533,0.009,-1.243,96.72,108.0,40.499989,-3.37547,606.3,3,5,237.0,0.352
98.38,1,-0.003,-0.022,-0.043,0.014,-0.042,-0.024,-1.531,0.009,-1.242,97.73,108.5,40.499847,-3.375766,605.9,3,5,236.6,0.352
98.48,1,-0.038,-0.009,-0.007,-0.013,-0.023,-0.027,-1.529,0.009,-1.241,97.73,108.5,40.499847,-3.375766,605.9,3,5,236.6,0.352
98.58,1,-0.021,-0.024,-0.017,-0.028,-0.02,-0.016,-1.527,0.01,-1.24,97.73,108.5,40.499847,-3.375766,605.9,3,5,236.6,0.352
98.68,1,-0.019,0.018,-0.02,-0.024,-0.01,-0.02,-1.525,0.009,-1.24,97.73,108.5,40.499847,-3.375766,605.9,3,5,236.6,0.352
98.78,1,-0.017,0.027,0.011,-0.017,0.013,-0.008,-1.525,0.007,-1.241,97.73,108.5,40.499847,-3.375766,605.9,3,5,236.6,0.352
98.88,1,-0.007,0.032,-0.005,-0.012,0.024,-0.003,-1.524,0.003,-1.241,97.73,108.5,40.499847,-3.375766,605.9,3,5,236.6,0.352
98.98,1,0.038,0.03,0.001,0.01,0.028,0.002,-1.523,0.0,-1.242,97.73,108.5,40.499847,-3.375766,605.9,3,5,236.6,0.352
99.08,1,0.012,0.012,-0.015,0.016,0.025,-0.006,-1.521,-0.001,-1.242,97.73,108.5,40.499847,-3.375766,605.9,3,5,236.6,0.352
99.18,1,0.012,0.024,-0.004,0.014,0.022,-0.006,-1.52,-0.001,-1.243,97.73,108.5,40.499847,-3.375766,605.9,3,5,236.6,0.352
99.28,1,0.004,0.031,0.006,0.015,0.026,-0.002,-1.52,-0.002,-1.243,97.73,108.5,40.499847,-3.375766,605.9,3,5,236.6,0.352
99.38,1,-0.028,0.007,0.001,-0.006,0.019,0.001,-1.519,-0.004,-1.244,98.71,107.0,40.499699,-3.376065,605.4,3,5,237.0,0.352
99.48,1,-0.013,0.009,0.001,-0.019,0.008,-0.0,-1.518,-0.004,-1.244,98.71,107.0,40.499699,-3.376065,605.4,3,5,237.0,0.352
99.58,1,-0.056,0.012,0.001,-0.031,0.011,-0.002,-1.519,-0.005,-1.244,98.71,107.0,40.499699,-3.376065,605.4,3,5,237.0,0.352
99.68,1,-0.043,-0.001,0.005,-0.041,0.008,0.001,-1.52,-0.005,-1.244,98.71,107.0,40.499699,-3.376065,605.4,3,5,237.0,0.352
99.78,1,-0.037,-0.022,-0.009,-0.041,-0.005,0.002,-1.522,-0.005,-1.244,98.71,107.0,40.499699,-3.376065,605.4,3,5,237.0,0.352
99.88,1,0.008,-0.003,0.001,-0.021,-0.006,-0.002,-1.522,-0.005,-1.243,98.71,107.0,40.499699,-3.376065,605.4,3,5,237.0,0.352
99.98,1,0.044,-0.015,0.001,0.012,-0.011,0.002,-1.522,-0.002,-1.243,98.71,107.0,40.499699,-3.376065,605.4,3,5,237.0,0.352
100.08,1,-0.004,-0.012,-0.026,0.014,-0.011,-0.01,-1.52,-0.001,-1.243,98.71,107.0,40.499699,-3.376065,605.4,3,5,237.0,0.352
100.18,1,-0.035,-0.022,0.006,-0.012,-0.018,-0.009,-1.519,-0.001,-1.242,98.71,107.0,40.499699,-3.376065,605.4,3,5,237.0,0.352
100.29,1,-0.019,-0.009,0.008,-0.02,-0.014,-0.0,-1.52,-0.002,-1.242,98.71,107.0,40.499699,-3.376065,605.4,3,5,237.0,0.352
100.39,1,-0.002,-0.015,-0.007,-0.011,-0.012,0.004,-1.521,-0.002,-1.241,99.72,105.2,40.499554,-3.376358,605.0,3,5,237.0,0.352
100.49,1,-0.031,-0.011,-0.005,-0.015,-0.013,-0.005,-1.522,0.0,-1.241,99.72,105.2,40.499554,-3.376358,605.0,3,5,237.0,0.352
100.58,1,-0.03,-0.002,0.012,-0.031,-0.009,-0.001,-1.523,-0.001,-1.241,99.72,105.2,40.499554,-3.376358,605.0,3,5,237.0,0.352
100.68,1,-0.0,-0.002,0.01,-0.014,-0.004,0.011,-1.523,-0.0,-1.241,99.72,105.2,40.499554,-3.376358,605.0,3,5,237.0,0.352
100.78,1,0.004,0.002,0.0,-0.001,-0.0,0.005,-1.521,-0.0,-1.241,99.72,105.2,40.499554,-3.376358,605.0,3,5,237.0,0.352
100.88,1,0.002,-0.016,0.015,-0.002,-0.007,0.005,-1.521,0.001,-1.24,99.72,105.2,40.499554,-3.376358,605.0,3,5,237.0,0.352
100.99,1,-0.005,-0.003,0.02,0.0,-0.008,0.014,-1.521,0.003,-1.239,99.72,105.2,40.499554,-3.376358,605.0,3,5,237.0,0.352
101.08,1,-0.017,-0.015,0.033,-0.007,-0.007,0.024,-1.523,0.003,-1.239,99.72,105.2,40.499554,-3.376358,605.0,3,5,237.0,0.352
101.18,1,-0.033,-0.012,0.024,-0.023,-0.013,0.026,-1.524,0.004,-1.238,99.72,105.2,40.499554,-3.376358,605.0,3,5,237.0,0.352
101.29,1,0.015,-0.007,0.032,-0.014,-0.009,0.027,-1.526,0.005,-1.238,99.72,105.2,40.499554,-3.376358,605.0,3,5,237.0,0.352
101.38,1,-0.016,-0.005,0.036,-0.004,-0.009,0.036,-1.529,0.005,-1.238,100.72,103.9,40.499413,-3.376643,604.5,3,5,237.0,0.0
101.48,1,-0.017,0.002,0.022,-0.011,-0.008,0.027,-1.532,0.006,-1.237,100.72,103.9,40.499413,-3.376643,604.5,3,5,237.0,0.0
101.58,1,-0.024,0.0,0.046,-0.018,0.002,0.031,-1.535,0.005,-1.237,100.72,103.9,40.499413,-3.376643,604.5,3,5,237.0,0.0
101.69,1,-0.032,0.005,0.038,-0.026,0.002,0.039,-1.539,0.005,-1.237,100.72,103.9,40.499413,-3.376643,604.5,3,5,237.0,0.0
101.79,1,-0.008,0.001,0.035,-0.028,0.004,0.037,-1.543,0.006,-1.236,100.72,103.9,40.499413,-3.376643,604.5,3,5,237.0,0.0
101.89,1,0.009,0.021,0.046,-0.005,0.011,0.042,-1.546,0.009,-1.236,100.72,103.9,40.499413,-3.376643,604.5,3,5,237.0,0.0
101.98,1,0.005,0.019,0.034,0.011,0.014,0.039,-1.548,0.011,-1.236,100.72,103.9,40.499413,-3.376643,604.5,3,5,237.0,0.0
102.08,1,-0.011,-0.007,0.026,0.001,0.005,0.032,-1.552,0.012,-1.236,100.72,103.9,40.499413,-3.376643,604.5,3,5,237.0,0.0
102.19,1,-0.038,-0.003,0.042,-0.017,-0.001,0.034,-1.555,0.012,-1.237,100.72,103.9,40.499413,-3.376643,604.5,3,5,237.0,0.0
102.3,1,-0.027,0.057,0.052,-0.029,0.026,0.044,-1.558,0.009,-1.237,100.72,103.9,40.499413,-3.376643,604.5,3,5,237.0,0.0
102.39,1,-0.005,0.002,0.033,-0.02,0.024,0.042,-1.561,0.009,-1.236,101.72,102.7,40.499275,-3.376936,604.1,3,5,236.6,0.352
102.49,1,-0.008,-0.024,0.01,-0.01,-0.001,0.026,-1.564,0.016,-1.236,101.72,102.7,40.499275,-3.376936,604.1,3,5,236.6,0.352
102.59,1,-0.014,0.007,0.034,-0.012,-0.001,0.026,-1.568,0.016,-1.236,101.72,102.7,40.499275,-3.376936,604.1,3,5,236.6,0.352
102.69,1,-0.014,0.028,0.03,-0.011,0.012,0.031,-1.569,0.016,-1.237,101.72,102.7,40.499275,-3.376936,604.1,3,5,236.6,0.352
102.79,1,-0.016,0.019,0.021,-0.016,0.018,0.023,-1.57,0.011,-1.238,101.72,102.7,40.499275,-3.376936,604.1,3,5,236.6,0.352
102.9,1,0.015,0.063,0.034,-0.004,0.039,0.029,-1.573,0.005,-1.239,101.72,102.7,40.499275,-3.376936,604.1,3,5,236.6,0.352
102.99,1,-0.009,0.02,0.022,0.0,0.038,0.029,-1.574,0.004,-1.239,101.72,102.7,40.499275,-3.376936,604.1,3,5,236.6,0.352
103.09,1,-0.006,-0.041,0.023,-0.009,-0.001,0.025,-1.576,0.008,-1.239,101.72,102.7,40.499275,-3.376936,604.1,3,5,236.6,0.352
103.19,1,0.024,-0.004,0.016,0.008,-0.013,0.019,-1.576,0.008,-1.239,101.72,102.7,40.499275,-3.376936,604.1,3,5,236.6,0.352
103.29,1,-0.017,-0.007,-0.003,-0.002,-0.01,0.011,-1.574,0.005,-1.24,101.72,102.7,40.499275,-3.376936,604.1,3,5,236.6,0.352
103.39,1,-0.041,0.025,-0.018,-0.019,0.001,-0.001,-1.573,0.003,-1.24,102.73,102.1,40.499134,-3.377216,603.2,3,5,236.2,0.703
103.5,1,-0.066,0.027,-0.005,-0.044,0.024,-0.015,-1.576,0.0,-1.24,102.73,102.1,40.499134,-3.377216,603.2,3,5,236.2,0.703
103.6,1,-0.051,-0.026,0.022,-0.047,0.003,0.013,-1.579,0.002,-1.24,102.73,102.1,40.499134,-3.377216,603.2,3,5,236.2,0.703
103.69,1,-0.02,-0.02,-0.011,-0.036,-0.02,-0.0,-1.576,0.005,-1.239,102.73,102.1,40.499134,-3.377216,603.2,3,5,236.2,0.703
103.89,1,-0.013,-0.019,0.003,-0.011,-0.011,-0.002,-1.578,0.01,-1.239,102.73,102.1,40.499134,-3.377216,603.2,3,5,236.2,0.703
103.99,1,0.004,-0.025,-0.021,-0.005,-0.022,-0.005,-1.578,0.01,-1.238,102.73,102.1,40.499134,-3.377216,603.2,3,5,236.2,0.703
104.09,1,0.031,-0.045,0.03,0.022,-0.024,0.01,-1.574,0.008,-1.237,102.73,102.1,40.499134,-3.377216,603.2,3,5,236.2,0.703
104.19,1,0.01,-0.048,-0.011,0.02,-0.038,0.001,-1.572,0.014,-1.236,102.73,102.1,40.499134,-3.377216,603.2,3,5,236.2,0.703
104.29,1,-0.048,-0.056,0.001,-0.012,-0.051,-0.0,-1.572,0.02,-1.234,102.73,102.1,40.499134,-3.377216,603.2,3,5,236.2,0.703
104.39,1,-0.086,-0.046,0.008,-0.054,-0.053,0.001,-1.576,0.022,-1.233,102.73,102.1,40.499134,-3.377216,603.2,3,5,236.2,0.703
104.49,1,-0.059,-0.015,0.036,-0.066,-0.04,0.015,-1.58,0.024,-1.231,103.73,103.3,40.498993,-3.377494,602.9,3,5,236.6,0.352
104.6,1,0.003,0.014,0.021,-0.038,-0.009,0.026,-1.58,0.022,-1.231,103.73,103.3,40.498993,-3.377494,602.9,3,5,236.6,0.352
104.69,1,0.05,0.019,0.027,0.01,0.014,0.027,-1.582,0.019,-1.23,103.73,103.3,40.498993,-3.377494,602.9,3,5,236.6,0.352
104.8,1,0.026,0.031,0.012,0.032,0.02,0.021,-1.582,0.02,-1.23,103.73,103.3,40.498993,-3.377494,602.9,3,5,236.6,0.352
104.89,1,-0.006,0.029,0.024,0.012,0.026,0.022,-1.583,0.02,-1.23,103.73,103.3,40.498993,-3.377494,602.9,3,5,236.6,0.352
104.99,1,-0.012,0.023,0.003,-0.002,0.025,0.011,-1.584,0.017,-1.231,103.73,103.3,40.498993,-3.377494,602.9,3,5,236.6,0.352
105.09,1,-0.042,0.042,0.003,-0.019,0.027,0.006,-1.585,0.014,-1.232,103.73,103.3,40.498993,-3.377494,602.9,3,5,236.6,0.352
105.2,1,-0.057,0.066,0.018,-0.042,0.048,0.008,-1.588,0.011,-1.234,103.73,103.3,40.498993,-3.377494,602.9,3,5,236.6,0.352
105.29,1,-0.031,0.043,0.029,-0.046,0.051,0.019,-1.591,0.009,-1.234,103.73,103.3,40.498993,-3.377494,602.9,3,5,236.6,0.352
105.39,1,-0.011,0.024,0.003,-0.028,0.038,0.016,-1.594,0.008,-1.235,103.73,103.3,40.498993,-3.377494,602.9,3,5,236.6,0.352
105.5,1,0.011,0.018,0.016,-0.005,0.029,0.014,-1.596,0.008,-1.235,104.82,105.2,40.498699,-3.378071,602.8,3,5,234.5,0.703
105.6,1,0.017,0.018,0.015,0.004,0.019,0.013,-1.596,0.008,-1.236,104.82,105.2,40.498699,-3.378071,602.8,3,5,234.5,0.703
105.7,1,0.031,0.011,0.021,0.02,0.016,0.018,-1.598,0.006,-1.237,104.82,105.2,40.498699,-3.378071,602.8,3,5,234.5,0.703
105.8,1,0.015,0.022,0.013,0.025,0.019,0.02,-1.599,0.003,-1.237,104.82,105.2,40.498699,-3.378071,602.8,3,5,234.5,0.703
105.9,1,-0.009,0.02,0.003,0.007,0.019,0.009,-1.598,0.001,-1.238,104.82,105.2,40.498699,-3.378071,602.8,3,5,234.5,0.703
106.01,1,-0.015,0.034,0.013,-0.006,0.025,0.009,-1.599,-0.0,-1.239,104.82,105.2,40.498699,-3.378071,602.8,3,5,234.5,0.703
106.1,1,-0.031,0.023,-0.002,-0.02,0.026,0.003,-1.599,-0.002,-1.24,104.82,105.2,40.498699,-3.378071,602.8,3,5,234.5,0.703
106.2,1,0.005,0.02,-0.01,-0.014,0.021,-0.002,-1.598,-0.003,-1.241,104.82,105.2,40.498699,-3.378071,602.8,3,5,234.5,0.703
106.3,1,0.015,0.024,-0.017,0.008,0.021,-0.011,-1.596,-0.002,-1.242,104.82,105.2,40.498699,-3.378071,602.8,3,5,234.5,0.703
106.4,1,-0.012,0.005,-0.019,0.004,0.021,-0.012,-1.595,-0.003,-1.242,104.82,105.2,40.498699,-3.378071,602.8,3,5,234.5,0.703
106.5,1,-0.038,-0.009,0.002,-0.021,0.005,-0.012,-1.595,-0.006,-1.243,105.72,105.2,40.498699,-3.378071,602.8,3,5,234.5,2.461
106.6,1,-0.035,0.001,0.006,-0.031,-0.004,-0.001,-1.595,-0.007,-1.244,105.72,105.2,40.498699,-3.378071,602.8,3,5,234.5,2.461
106.7,1,-0.003,0.018,-0.004,-0.02,0.009,-0.001,-1.594,-0.008,-1.245,105.72,105.2,40.498699,-3.378071,602.8,3,5,234.5,2.461
106.8,1,0.011,-0.02,-0.021,-0.001,0.004,-0.008,-1.591,-0.008,-1.245,105.72,105.2,40.498699,-3.378071,602.8,3,5,234.5,2.461
106.9,1,-0.026,-0.005,-0.012,-0.014,-0.011,-0.011,-1.591,-0.01,-1.247,105.72,105.2,40.498699,-3.378071,602.8,3,5,234.5,2.461
107.0,1,-0.01,0.008,-0.004,-0.013,-0.002,-0.008,-1.591,-0.015,-1.247,105.72,105.2,40.498699,-3.378071,602.8,3,5,234.5,2.461
107.1,1,-0.043,-0.011,0.004,-0.022,-0.001,-0.005,-1.59,-0.014,-1.247,105.72,105.2,40.498699,-3.378071,602.8,3,5,234.5,2.461
107.2,1,-0.009,-0.016,-0.013,-0.026,-0.012,-0.004,-1.591,-0.009,-1.247,105.72,105.2,40.498699,-3.378071,602.8,3,5,234.5,2.461
107.3,1,-0.008,-0.049,-0.012,-0.013,-0.027,-0.009,-1.59,-0.006,-1.246,105.72,105.2,40.498699,-3.378071,602.8,3,5,234.5,2.461
107.4,1,0.02,-0.037,-0.007,0.003,-0.036,-0.011,-1.589,-0.006,-1.245,105.72,105.2,40.498699,-3.378071,602.8,3,5,234.5,2.461
107.5,1,-0.028,-0.035,-0.023,-0.009,-0.034,-0.012,-1.589,-0.001,-1.243,106.7,105.9,40.49855,-3.378358,602.5,3,5,236.2,1.758
107.6,1,-0.01,-0.066,-0.007,-0.011,-0.05,-0.015,-1.587,0.005,-1.241,106.7,105.9,40.49855,-3.378358,602.5,3,5,236.2,1.758
107.7,1,-0.006,-0.056,0.003,-0.009,-0.058,-0.008,-1.586,0.009,-1.239,106.7,105.9,40.49855,-3.378358,602.5,3,5,236.2,1.758
107.81,1,-0.018,-0.024,-0.002,-0.012,-0.042,-0.002,-1.586,0.015,-1.237,106.7,105.9,40.49855,-3.378358,602.5,3,5,236.2,1.758
107.9,1,-0.024,-0.028,-0.023,-0.017,-0.036,-0.01,-1.584,0.019,-1.235,106.7,105.9,40.49855,-3.378358,602.5,3,5,236.2,1.758
108.0,1,-0.038,-0.047,-0.003,-0.026,-0.035,-0.007,-1.583,0.022,-1.233,106.7,105.9,40.49855,-3.378358,602.5,3,5,236.2,1.758
108.1,1,0.041,-0.05,0.018,-0.003,-0.041,0.006,-1.583,0.025,-1.231,106.7,105.9,40.49855,-3.378358,602.5,3,5,236.2,1.758
108.2,1,-0.017,-0.042,-0.007,-0.001,-0.05,0.0,-1.582,0.03,-1.23,106.7,105.9,40.49855,-3.378358,602.5,3,5,236.2,1.758
108.33,1,-0.028,-0.027,-0.019,-0.013,-0.033,-0.01,-1.581,0.029,-1.229,106.7,105.9,40.49855,-3.378358,602.5,3,5,236.2,1.758
108.4,1,-0.047,-0.044,-0.005,-0.032,-0.043,-0.008,-1.581,0.03,-1.227,106.7,105.9,40.49855,-3.378358,602.5,3,5,236.2,1.758
108.5,1,-0.017,-0.017,-0.003,-0.029,-0.026,-0.009,-1.581,0.03,-1.227,107.7,107.4,40.498409,-3.378652,602.3,3,5,236.6,2.109
108.6,1,-0.006,-0.004,-0.007,-0.014,-0.017,-0.004,-1.579,0.03,-1.225,107.7,107.4,40.498409,-3.378652,602.3,3,5,236.6,2.109
108.71,1,0.002,-0.021,-0.059,-0.008,-0.02,-0.026,-1.576,0.029,-1.224,107.7,107.4,40.498409,-3.378652,602.3,3,5,236.6,2.109
108.81,1,-0.016,-0.004,-0.036,-0.003,-0.01,-0.039,-1.577,0.031,-1.223,107.7,107.4,40.498409,-3.378652,602.3,3,5,236.6,2.109
108.9,1,-0.021,0.005,-0.036,-0.017,-0.003,-0.036,-1.575,0.032,-1.223,107.7,107.4,40.498409,-3.378652,602.3,3,5,236.6,2.109
109.0,1,-0.015,0.023,-0.04,-0.02,0.008,-0.037,-1.572,0.028,-1.223,107.7,107.4,40.498409,-3.378652,602.3,3,5,236.6,2.109
109.11,1,0.017,0.022,-0.032,-0.004,0.019,-0.035,-1.567,0.023,-1.223,107.7,107.4,40.498409,-3.378652,602.3,3,5,236.6,2.109
109.2,1,0.024,0.016,-0.041,0.015,0.018,-0.038,-1.563,0.021,-1.223,107.7,107.4,40.498409,-3.378652,602.3,3,5,236.6,2.109
109.3,1,-0.012,0.013,-0.027,0.008,0.015,-0.037,-1.561,0.022,-1.223,107.7,107.4,40.498409,-3.378652,602.3,3,5,236.6,2.109
109.41,1,-0.029,0.014,-0.019,-0.012,0.014,-0.029,-1.56,0.023,-1.222,107.7,107.4,40.498409,-3.378652,602.3,3,5,236.6,2.109
109.51,1,-0.014,0.011,-0.026,-0.018,0.015,-0.024,-1.559,0.024,-1.223,108.7,108.4,40.498257,-3.378941,602.9,3,5,236.2,0.352
109.61,1,-0.002,0.009,-0.013,-0.015,0.009,-0.02,-1.558,0.023,-1.223,108.7,108.4,40.498257,-3.378941,602.9,3,5,236.2,0.352
109.72,1,-0.012,0.033,-0.029,-0.006,0.021,-0.022,-1.554,0.016,-1.224,108.7,108.4,40.498257,-3.378941,602.9,3,5,236.2,0.352
109.81,1,-0.017,0.015,-0.012,-0.013,0.021,-0.019,-1.552,0.014,-1.224,108.7,108.4,40.498257,-3.378941,602.9,3,5,236.2,0.352
109.91,1,-0.005,0.021,-0.012,-0.01,0.019,-0.013,-1.55,0.011,-1.224,108.7,108.4,40.498257,-3.378941,602.9,3,5,236.2,0.352
110.01,1,0.001,0.008,-0.023,-0.004,0.016,-0.015,-1.548,0.011,-1.225,108.7,108.4,40.498257,-3.378941,602.9,3,5,236.2,0.352
110.11,1,0.013,0.018,-0.011,0.007,0.014,-0.018,-1.546,0.01,-1.226,108.7,108.4,40.498257,-3.378941,602.9,3,5,236.2,0.352
110.21,1,0.01,0.046,-0.013,0.005,0.024,-0.015,-1.545,0.008,-1.227,108.7,108.4,40.498257,-3.378941,602.9,3,5,236.2,0.352
110.32,1,0.008,0.023,-0.004,0.006,0.03,-0.009,-1.544,0.004,-1.228,108.7,108.4,40.498257,-3.378941,602.9,3,5,236.2,0.352
110.41,1,-0.004,0.01,-0.012,0.004,0.023,-0.01,-1.541,-0.0,-1.23,108.7,108.4,40.498257,-3.378941,602.9,3,5,236.2,0.352
110.51,1,-0.009,0.011,-0.014,-0.003,0.013,-0.011,-1.538,-0.002,-1.231,109.72,109.0,40.498112,-3.379243,603.1,3,5,235.2,1.406
110.61,1,-0.055,0.022,-0.01,-0.02,0.016,-0.011,-1.537,-0.004,-1.232,109.72,109.0,40.498112,-3.379243,603.1,3,5,235.2,1.406
110.71,1,-0.038,0.031,-0.001,-0.046,0.026,-0.009,-1.538,-0.005,-1.233,109.72,109.0,40.498112,-3.379243,603.1,3,5,235.2,1.406
110.81,1,-0.0,0.03,-0.005,-0.025,0.024,-0.006,-1.539,-0.008,-1.234,109.72,109.0,40.498112,-3.379243,603.1,3,5,235.2,1.406
110.92,1,-0.032,0.013,-0.007,-0.019,0.025,-0.004,-1.539,-0.007,-1.235,109.72,109.0,40.498112,-3.379243,603.1,3,5,235.2,1.406
111.02,1,0.004,-0.01,0.001,-0.011,0.011,-0.002,-1.539,-0.006,-1.236,109.72,109.0,40.498112,-3.379243,603.1,3,5,235.2,1.406
111.11,1,0.001,-0.025,-0.01,-0.003,-0.009,-0.008,-1.537,-0.008,-1.236,109.72,109.0,40.498112,-3.379243,603.1,3,5,235.2,1.406
111.21,1,-0.046,0.005,-0.006,-0.017,-0.009,-0.007,-1.536,-0.01,-1.237,109.72,109.0,40.498112,-3.379243,603.1,3,5,235.2,1.406
111.31,1,0.016,0.002,0.013,-0.014,-0.001,0.001,-1.536,-0.01,-1.238,109.72,109.0,40.498112,-3.379243,603.1,3,5,235.2,1.406
111.41,1,0.027,0.002,-0.014,0.01,-0.0,-0.0,-1.536,-0.01,-1.238,109.72,109.0,40.498112,-3.379243,603.1,3,5,235.2,1.406
111.52,1,-0.01,0.002,-0.012,0.006,0.004,-0.011,-1.535,-0.01,-1.239,110.76,108.0,40.497959,-3.379532,602.7,3,5,235.2,1.055
111.61,1,-0.022,-0.014,-0.012,-0.004,0.0,-0.01,-1.536,-0.009,-1.239,110.76,108.0,40.497959,-3.379532,602.7,3,5,235.2,1.055
111.71,1,-0.048,-0.017,-0.001,-0.028,-0.016,-0.006,-1.536,-0.007,-1.239,110.76,108.0,40.497959,-3.379532,602.7,3,5,235.2,1.055
111.81,1,-0.028,-0.036,-0.003,-0.033,-0.022,-0.001,-1.536,-0.004,-1.238,110.76,108.0,40.497959,-3.379532,602.7,3,5,235.2,1.055
111.91,1,-0.021,-0.052,-0.006,-0.032,-0.038,-0.01,-1.533,-0.001,-1.237,110.76,108.0,40.497959,-3.379532,602.7,3,5,235.2,1.055
112.02,1,0.019,-0.076,0.032,-0.012,-0.056,0.014,-1.535,0.002,-1.236,110.76,108.0,40.497959,-3.379532,602.7,3,5,235.2,1.055
112.11,1,0.0,-0.046,-0.012,0.01,-0.059,0.009,-1.533,0.002,-1.236,110.76,108.0,40.497959,-3.379532,602.7,3,5,235.2,1.055
112.21,1,-0.027,-0.035,0.012,-0.013,-0.047,-0.001,-1.532,0.005,-1.236,110.76,108.0,40.497959,-3.379532,602.7,3,5,235.2,1.055
112.32,1,-0.002,-0.024,0.038,-0.012,-0.032,0.02,-1.535,0.005,-1.236,110.76,108.0,40.497959,-3.379532,602.7,3,5,235.2,1.055
112.41,1,-0.018,0.001,0.006,-0.013,-0.014,0.018,-1.537,0.006,-1.235,110.76,108.0,40.497959,-3.379532,602.7,3,5,235.2,1.055
112.51,1,-0.014,-0.01,0.018,-0.013,-0.013,0.017,-1.538,0.008,-1.235,111.76,107.1,40.497814,-3.379822,602.2,3,5,235.5,0.352
112.62,1,0.009,-0.015,0.017,-0.005,-0.013,0.015,-1.54,0.01,-1.235,111.76,107.1,40.497814,-3.379822,602.2,3,5,235.5,0.352
112.71,1,-0.008,-0.013,0.021,-0.001,-0.012,0.017,-1.541,0.011,-1.234,111.76,107.1,40.497814,-3.379822,602.2,3,5,235.5,0.352
112.82,1,-0.003,-0.013,0.012,-0.006,-0.013,0.018,-1.542,0.013,-1.234,111.76,107.1,40.497814,-3.379822,602.2,3,5,235.5,0.352
112.92,1,-0.02,-0.001,-0.0,-0.006,-0.01,0.008,-1.543,0.012,-1.235,111.76,107.1,40.497814,-3.379822,602.2,3,5,235.5,0.352
113.02,1,-0.017,0.01,0.014,-0.016,0.003,0.008,-1.544,0.009,-1.234,111.76,107.1,40.497814,-3.379822,602.2,3,5,235.5,0.352
113.12,1,0.011,-0.003,0.019,-0.007,0.003,0.016,-1.544,0.009,-1.234,111.76,107.1,40.497814,-3.379822,602.2,3,5,235.5,0.352
113.22,1,0.002,-0.027,0.006,0.004,-0.012,0.014,-1.543,0.012,-1.234,111.76,107.1,40.497814,-3.379822,602.2,3,5,235.5,0.352
113.32,1,0.007,-0.007,0.023,0.003,-0.013,0.012,-1.544,0.014,-1.234,111.76,107.1,40.497814,-3.379822,602.2,3,5,235.5,0.352
113.43,1,-0.031,0.007,0.022,-0.01,-0.004,0.019,-1.545,0.014,-1.234,111.76,107.1,40.497814,-3.379822,602.2,3,5,235.5,0.352
113.52,1,-0.017,0.012,0.026,-0.018,0.002,0.024,-1.548,0.011,-1.235,112.8,105.5,40.497517,-3.380405,601.8,3,5,235.5,1.055
113.62,1,0.003,0.005,0.016,-0.011,0.004,0.017,-1.548,0.009,-1.235,112.8,105.5,40.497517,-3.380405,601.8,3,5,235.5,1.055
113.72,1,-0.008,0.008,-0.003,-0.006,0.007,0.011,-1.549,0.01,-1.235,112.8,105.5,40.497517,-3.380405,601.8,3,5,235.5,1.055
113.82,1,0.003,0.021,0.015,0.001,0.013,0.01,-1.548,0.009,-1.236,112.8,105.5,40.497517,-3.380405,601.8,3,5,235.5,1.055
113.92,1,-0.014,0.029,0.006,-0.006,0.025,0.01,-1.549,0.009,-1.237,112.8,105.5,40.497517,-3.380405,601.8,3,5,235.5,1.055
114.03,1,-0.016,0.043,0.035,-0.013,0.032,0.017,-1.549,0.005,-1.239,112.8,105.5,40.497517,-3.380405,601.8,3,5,235.5,1.055
114.12,1,-0.04,0.058,0.017,-0.022,0.044,0.023,-1.551,0.003,-1.24,112.8,105.5,40.497517,-3.380405,601.8,3,5,235.5,1.055
114.22,1,-0.01,0.027,0.027,-0.024,0.041,0.024,-1.553,0.0,-1.242,112.8,105.5,40.497517,-3.380405,601.8,3,5,235.5,1.055
114.32,1,0.022,0.011,0.016,-0.002,0.027,0.021,-1.554,0.0,-1.243,112.8,105.5,40.497517,-3.380405,601.8,3,5,235.5,1.055
114.42,1,-0.009,0.012,-0.009,0.003,0.016,0.009,-1.554,-0.003,-1.244,112.8,105.5,40.497517,-3.380405,601.8,3,5,235.5,1.055
114.52,1,-0.054,0.044,0.011,-0.022,0.025,0.004,-1.556,-0.009,-1.246,113.73,105.5,40.497517,-3.380405,601.8,3,5,235.5,0.703
114.63,1,-0.051,0.04,0.014,-0.049,0.037,0.009,-1.558,-0.011,-1.248,113.73,105.5,40.497517,-3.380405,601.8,3,5,235.5,0.703
114.72,1,0.002,0.034,-0.007,-0.027,0.036,0.007,-1.558,-0.014,-1.249,113.73,105.5,40.497517,-3.380405,601.8,3,5,235.5,0.703
114.82,1,0.014,0.023,0.01,0.002,0.028,0.005,-1.558,-0.014,-1.25,113.73,105.5,40.497517,-3.380405,601.8,3,5,235.5,0.703
114.92,1,-0.012,0.004,0.005,-0.002,0.02,0.004,-1.559,-0.013,-1.251,113.73,105.5,40.497517,-3.380405,601.8,3,5,235.5,0.703
115.03,1,0.01,0.018,-0.012,-0.003,0.017,-0.0,-1.559,-0.016,-1.252,113.73,105.5,40.497517,-3.380405,601.8,3,5,235.5,0.703
115.13,1,-0.017,0.031,-0.001,-0.001,0.021,-0.006,-1.558,-0.018,-1.253,113.73,105.5,40.497517,-3.380405,601.8,3,5,235.5,0.703
115.23,1,-0.037,0.015,0.014,-0.023,0.023,0.004,-1.559,-0.018,-1.254,113.73,105.5,40.497517,-3.380405,601.8,3,5,235.5,0.703
115.33,1,-0.015,-0.025,-0.003,-0.027,0.001,0.003,-1.558,-0.016,-1.254,113.73,105.5,40.497517,-3.380405,601.8,3,5,235.5,0.703
115.42,1,0.025,-0.036,0.01,0.001,-0.021,0.006,-1.558,-0.014,-1.254,113.73,105.5,40.497517,-3.380405,601.8,3,5,235.5,0.703
115.52,1,0.01,-0.027,0.006,0.012,-0.027,0.006,-1.559,-0.012,-1.254,114.72,105.5,40.497372,-3.380693,601.8,3,5,235.5,0.703
115.62,1,-0.017,0.005,0.006,0.0,-0.015,0.006,-1.56,-0.013,-1.255,114.72,105.5,40.497372,-3.380693,601.8,3,5,235.5,0.703
115.72,1,-0.036,0.01,-0.002,-0.021,-0.001,0.002,-1.56,-0.015,-1.255,114.72,105.5,40.497372,-3.380693,601.8,3,5,235.5,0.703
115.83,1,-0.029,-0.006,0.004,-0.027,0.0,0.004,-1.56,-0.014,-1.256,114.72,105.5,40.497372,-3.380693,601.8,3,5,235.5,0.703
115.92,1,-0.022,0.0,-0.01,-0.023,-0.001,0.001,-1.559,-0.013,-1.256,114.72,105.5,40.497372,-3.380693,601.8,3,5,235.5,0.703
116.02,1,-0.044,0.007,-0.008,-0.031,0.002,-0.009,-1.559,-0.01,-1.256,114.72,105.5,40.497372,-3.380693,601.8,3,5,235.5,0.703
116.12,1,-0.023,-0.013,-0.002,-0.035,-0.001,-0.006,-1.559,-0.007,-1.256,114.72,105.5,40.497372,-3.380693,601.8,3,5,235.5,0.703
116.22,1,0.004,-0.029,-0.002,-0.019,-0.016,-0.004,-1.559,-0.005,-1.256,114.72,105.5,40.497372,-3.380693,601.8,3,5,235.5,0.703
116.33,1,0.024,-0.019,-0.02,0.008,-0.021,-0.009,-1.557,-0.003,-1.256,114.72,105.5,40.497372,-3.380693,601.8,3,5,235.5,0.703
116.43,1,-0.006,-0.011,-0.024,0.011,-0.015,-0.018,-1.555,-0.002,-1.256,114.72,105.5,40.497372,-3.380693,601.8,3,5,235.5,0.703
116.53,1,-0.059,-0.005,-0.01,-0.026,-0.012,-0.018,-1.557,-0.001,-1.256,115.74,104.7,40.497219,-3.380976,601.5,3,5,236.2,0.703
116.63,1,-0.038,0.003,-0.003,-0.04,-0.004,-0.01,-1.558,-0.0,-1.256,115.74,104.7,40.497219,-3.380976,601.5,3,5,236.2,0.703
116.73,1,-0.013,-0.002,-0.019,-0.03,-0.005,-0.013,-1.556,0.001,-1.256,115.74,104.7,40.497219,-3.380976,601.5,3,5,236.2,0.703
116.83,1,0.03,0.012,-0.033,-0.001,0.004,-0.02,-1.553,0.002,-1.257,115.74,104.7,40.497219,-3.380976,601.5,3,5,236.2,0.703
116.93,1,0.047,0.006,-0.026,0.031,0.006,-0.025,-1.549,0.005,-1.257,115.74,104.7,40.497219,-3.380976,601.5,3,5,236.2,0.703
117.03,1,-0.004,-0.026,-0.017,0.02,-0.003,-0.026,-1.547,0.003,-1.257,115.74,104.7,40.497219,-3.380976,601.5,3,5,236.2,0.703
117.13,1,-0.011,-0.024,-0.001,0.001,-0.018,-0.012,-1.55,0.005,-1.256,115.74,104.7,40.497219,-3.380976,601.5,3,5,236.2,0.703
117.23,1,-0.028,-0.039,-0.009,-0.015,-0.027,-0.006,-1.551,0.01,-1.255,115.74,104.7,40.497219,-3.380976,601.5,3,5,236.2,0.703
117.33,1,0.026,-0.038,-0.016,-0.007,-0.034,-0.014,-1.547,0.014,-1.254,115.74,104.7,40.497219,-3.380976,601.5,3,5,236.2,0.703
117.43,1,-0.024,-0.059,-0.016,0.005,-0.041,-0.012,-1.544,0.015,-1.253,115.74,104.7,40.497219,-3.380976,601.5,3,5,236.2,0.703
117.54,1,-0.079,-0.002,0.001,-0.043,-0.031,-0.006,-1.548,0.013,-1.252,116.73,105.7,40.497074,-3.381262,601.6,3,5,236.6,1.055
117.63,1,-0.028,0.004,0.003,-0.05,-0.013,-0.004,-1.549,0.014,-1.251,116.73,105.7,40.497074,-3.381262,601.6,3,5,236.6,1.055
117.74,1,0.04,-0.008,0.007,-0.004,-0.009,0.005,-1.545,0.015,-1.251,116.73,105.7,40.497074,-3.381262,601.6,3,5,236.6,1.055
117.83,1,0.008,-0.033,-0.035,0.016,-0.017,-0.013,-1.541,0.017,-1.25,116.73,105.7,40.497074,-3.381262,601.6,3,5,236.6,1.055
117.93,1,-0.022,-0.019,-0.014,-0.004,-0.023,-0.022,-1.541,0.019,-1.249,116.73,105.7,40.497074,-3.381262,601.6,3,5,236.6,1.055
118.03,1,-0.006,-0.007,-0.003,-0.016,-0.017,-0.011,-1.541,0.02,-1.249,116.73,105.7,40.497074,-3.381262,601.6,3,5,236.6,1.055
118.13,1,-0.012,-0.012,-0.016,-0.012,-0.011,-0.008,-1.541,0.022,-1.248,116.73,105.7,40.497074,-3.381262,601.6,3,5,236.6,1.055
118.24,1,-0.003,-0.003,-0.009,-0.005,-0.008,-0.011,-1.54,0.024,-1.247,116.73,105.7,40.497074,-3.381262,601.6,3,5,236.6,1.055
118.34,1,-0.034,-0.016,-0.017,-0.015,-0.009,-0.015,-1.54,0.025,-1.247,116.73,105.7,40.497074,-3.381262,601.6,3,5,236.6,1.055
118.43,1,-0.043,-0.006,-0.012,-0.034,-0.012,-0.014,-1.541,0.026,-1.246,116.73,105.7,40.497074,-3.381262,601.6,3,5,236.6,1.055
118.53,1,-0.044,0.005,-0.013,-0.036,-0.002,-0.013,-1.541,0.026,-1.246,117.71,105.6,40.496922,-3.38155,601.4,3,5,237.0,0.703
118.63,1,-0.01,-0.016,-0.005,-0.03,-0.006,-0.008,-1.541,0.026,-1.245,117.71,105.6,40.496922,-3.38155,601.4,3,5,237.0,0.703
118.73,1,-0.005,0.01,-0.01,-0.015,-0.003,-0.009,-1.54,0.027,-1.244,117.71,105.6,40.496922,-3.38155,601.4,3,5,237.0,0.703
118.83,1,-0.003,0.005,-0.014,-0.008,0.005,-0.013,-1.536,0.026,-1.244,117.71,105.6,40.496922,-3.38155,601.4,3,5,237.0,0.703
118.94,1,-0.007,-0.021,-0.008,-0.007,-0.008,-0.009,-1.537,0.028,-1.243,117.71,105.6,40.496922,-3.38155,601.4,3,5,237.0,0.703
119.03,1,0.015,-0.004,-0.007,0.002,-0.01,-0.007,-1.536,0.028,-1.242,117.71,105.6,40.496922,-3.38155,601.4,3,5,237.0,0.703
119.14,1,-0.027,-0.004,-0.012,-0.003,-0.003,-0.01,-1.534,0.027,-1.241,117.71,105.6,40.496922,-3.38155,601.4,3,5,237.0,0.703
119.23,1,-0.027,-0.02,-0.011,-0.02,-0.011,-0.012,-1.534,0.027,-1.24,117.71,105.6,40.496922,-3.38155,601.4,3,5,237.0,0.703
119.34,1,-0.05,-0.006,-0.005,-0.034,-0.012,-0.008,-1.533,0.025,-1.239,117.71,105.6,40.496922,-3.38155,601.4,3,5,237.0,0.703
119.44,1,-0.042,-0.013,0.008,-0.041,-0.009,-0.002,-1.534,0.025,-1.238,117.71,105.6,40.496922,-3.38155,601.4,3,5,237.0,0.703
119.53,1,-0.017,-0.017,0.006,-0.031,-0.014,0.004,-1.534,0.025,-1.238,118.73,104.6,40.49678,-3.381834,601.7,3,5,236.6,0.352
119.63,1,-0.02,-0.023,-0.006,-0.026,-0.019,0.002,-1.531,0.023,-1.237,118.73,104.6,40.49678,-3.381834,601.7,3,5,236.6,0.352
119.73,1,-0.0,-0.018,0.005,-0.013,-0.018,-0.002,-1.531,0.025,-1.236,118.73,104.6,40.49678,-3.381834,601.7,3,5,236.6,0.352
119.84,1,0.003,-0.018,0.013,-0.002,-0.018,0.008,-1.532,0.026,-1.235,118.73,104.6,40.49678,-3.381834,601.7,3,5,236.6,0.352
119.93,1,-0.009,-0.002,-0.002,-0.008,-0.013,0.003,-1.533,0.028,-1.234,118.73,104.6,40.49678,-3.381834,601.7,3,5,236.6,0.352
120.03,1,-0.017,-0.02,-0.011,-0.012,-0.013,-0.0,-1.532,0.031,-1.233,118.73,104.6,40.49678,-3.381834,601.7,3,5,236.6,0.352
120.15,1,-0.034,-0.025,-0.008,-0.022,-0.02,-0.01,-1.529,0.033,-1.232,118.73,104.6,40.49678,-3.381834,601.7,3,5,236.6,0.352
120.24,1,0.017,-0.036,0.03,-0.012,-0.023,0.01,-1.53,0.031,-1.232,118.73,104.6,40.49678,-3.381834,601.7,3,5,236.6,0.352
120.34,1,0.053,-0.029,-0.013,0.025,-0.031,0.005,-1.528,0.027,-1.231,118.73,104.6,40.49678,-3.381834,601.7,3,5,236.6,0.352
120.44,1,-0.02,-0.013,-0.007,0.017,-0.023,-0.004,-1.526,0.025,-1.23,118.73,104.6,40.49678,-3.381834,601.7,3,5,236.6,0.352
120.54,1,-0.007,-0.019,0.042,-0.001,-0.021,0.012,-1.527,0.025,-1.23,119.7,103.4,40.496632,-3.382119,601.1,3,5,236.2,0.703
120.64,1,-0.025,-0.027,-0.005,-0.008,-0.019,0.014,-1.528,0.024,-1.228,119.7,103.4,40.496632,-3.382119,601.1,3,5,236.2,0.703
120.74,1,-0.041,-0.017,-0.002,-0.031,-0.021,-0.0,-1.527,0.024,-1.227,119.7,103.4,40.496632,-3.382119,601.1,3,5,236.2,0.703
120.85,1,-0.026,-0.016,0.022,-0.028,-0.02,0.01,-1.529,0.023,-1.226,119.7,103.4,40.496632,-3.382119,601.1,3,5,236.2,0.703
120.94,1,0.004,-0.033,0.029,-0.022,-0.025,0.02,-1.53,0.024,-1.225,119.7,103.4,40.496632,-3.382119,601.1,3,5,236.2,0.703
121.04,1,0.023,-0.017,0.011,0.005,-0.02,0.019,-1.532,0.026,-1.224,119.7,103.4,40.496632,-3.382119,601.1,3,5,236.2,0.703
121.14,1,-0.038,0.011,0.024,-0.004,-0.005,0.02,-1.532,0.026,-1.224,119.7,103.4,40.496632,-3.382119,601.1,3,5,236.2,0.703
121.24,1,-0.015,-0.002,0.037,-0.022,-0.007,0.026,-1.536,0.028,-1.223,119.7,103.4,40.496632,-3.382119,601.1,3,5,236.2,0.703
121.34,1,-0.003,-0.03,0.026,-0.014,-0.012,0.031,-1.54,0.03,-1.222,119.7,103.4,40.496632,-3.382119,601.1,3,5,236.2,0.703
121.44,1,0.002,0.0,0.019,-0.0,-0.014,0.025,-1.541,0.03,-1.221,119.7,103.4,40.496632,-3.382119,601.1,3,5,236.2,0.703
121.54,1,-0.041,-0.01,0.021,-0.012,-0.008,0.021,-1.544,0.029,-1.221,120.7,102.0,40.496487,-3.382392,600.5,3,5,235.5,1.055
121.64,1,-0.043,0.009,0.027,-0.037,-0.004,0.024,-1.547,0.028,-1.22,120.7,102.0,40.496487,-3.382392,600.5,3,5,235.5,1.055
121.74,1,0.001,0.014,0.045,-0.021,0.009,0.035,-1.553,0.027,-1.22,120.7,102.0,40.496487,-3.382392,600.5,3,5,235.5,1.055
121.85,1,-0.018,-0.015,0.057,-0.019,-0.002,0.046,-1.557,0.031,-1.219,120.7,102.0,40.496487,-3.382392,600.5,3,5,235.5,1.055
121.94,1,-0.01,-0.009,0.009,-0.013,-0.01,0.035,-1.557,0.03,-1.219,120.7,102.0,40.496487,-3.382392,600.5,3,5,235.5,1.055
122.05,1,-0.037,0.017,0.038,-0.016,0.004,0.025,-1.56,0.03,-1.219,120.7,102.0,40.496487,-3.382392,600.5,3,5,235.5,1.055
122.14,1,-0.068,0.018,0.032,-0.045,0.013,0.033,-1.566,0.029,-1.218,120.7,102.0,40.496487,-3.382392,600.5,3,5,235.5,1.055
122.24,1,-0.033,0.021,0.046,-0.047,0.02,0.037,-1.571,0.027,-1.218,120.7,102.0,40.496487,-3.382392,600.5,3,5,235.5,1.055
122.34,1,0.03,-0.0,0.032,-0.014,0.013,0.038,-1.573,0.025,-1.218,120.7,102.0,40.496487,-3.382392,600.5,3,5,235.5,1.055
122.45,1,0.03,0.012,0.01,0.019,0.01,0.023,-1.575,0.024,-1.218,120.7,102.0,40.496487,-3.382392,600.5,3,5,235.5,1.055
122.55,1,-0.018,0.019,0.009,0.005,0.013,0.016,-1.578,0.021,-1.218,121.74,100.8,40.496342,-3.382668,601.1,3,5,235.2,1.055
122.65,1,-0.04,0.011,0.016,-0.019,0.012,0.014,-1.581,0.017,-1.218,121.74,100.8,40.496342,-3.382668,601.1,3,5,235.2,1.055
122.76,1,-0.021,0.002,0.018,-0.027,0.009,0.016,-1.582,0.013,-1.218,121.74,100.8,40.496342,-3.382668,601.1,3,5,235.2,1.055
122.84,1,-0.015,0.01,0.02,-0.023,0.01,0.015,-1.584,0.011,-1.218,121.74,100.8,40.496342,-3.382668,601.1,3,5,235.2,1.055
122.95,1,-0.007,-0.001,0.012,-0.01,0.006,0.018,-1.587,0.01,-1.218,121.74,100.8,40.496342,-3.382668,601.1,3,5,235.2,1.055
123.04,1,-0.011,-0.005,0.018,-0.008,-0.004,0.015,-1.589,0.008,-1.218,121.74,100.8,40.496342,-3.382668,601.1,3,5,235.2,1.055
123.14,1,-0.0,-0.008,0.025,-0.008,-0.002,0.02,-1.592,0.007,-1.218,121.74,100.8,40.496342,-3.382668,601.1,3,5,235.2,1.055
123.25,1,-0.012,0.001,0.029,-0.01,-0.002,0.025,-1.593,0.005,-1.218,121.74,100.8,40.496342,-3.382668,601.1,3,5,235.2,1.055
123.34,1,-0.025,-0.014,0.034,-0.016,-0.009,0.03,-1.595,0.005,-1.218,121.74,100.8,40.496342,-3.382668,601.1,3,5,235.2,1.055
123.44,1,-0.036,-0.006,0.042,-0.023,-0.01,0.037,-1.599,0.004,-1.217,121.74,100.8,40.496342,-3.382668,601.1,3,5,235.2,1.055
123.54,1,-0.012,0.006,0.052,-0.028,-0.0,0.04,-1.604,0.004,-1.217,122.75,100.3,40.496201,-3.382937,601.2,3,5,234.5,1.055
123.65,1,0.005,0.012,0.053,-0.006,0.005,0.05,-1.607,0.001,-1.217,122.75,100.3,40.496201,-3.382937,601.2,3,5,234.5,1.055
123.75,1,0.005,-0.017,0.028,0.005,-0.004,0.044,-1.61,0.0,-1.217,122.75,100.3,40.496201,-3.382937,601.2,3,5,234.5,1.055
123.85,1,-0.009,-0.045,0.015,-0.007,-0.021,0.026,-1.612,0.001,-1.216,122.75,100.3,40.496201,-3.382937,601.2,3,5,234.5,1.055
123.96,1,-0.004,-0.001,0.036,-0.01,-0.02,0.028,-1.615,-0.0,-1.216,122.75,100.3,40.496201,-3.382937,601.2,3,5,234.5,1.055
124.05,1,0.036,-0.009,0.041,0.011,-0.01,0.035,-1.616,0.001,-1.216,122.75,100.3,40.496201,-3.382937,601.2,3,5,234.5,1.055
124.15,1,-0.007,-0.032,-0.009,0.014,-0.019,0.02,-1.616,0.002,-1.215,122.75,100.3,40.496201,-3.382937,601.2,3,5,234.5,1.055
124.25,1,-0.024,0.003,-0.008,-0.003,-0.012,0.005,-1.615,0.006,-1.215,122.75,100.3,40.496201,-3.382937,601.2,3,5,234.5,1.055
124.35,1,-0.042,0.01,-0.006,-0.025,-0.002,-0.01,-1.614,0.007,-1.215,122.75,100.3,40.496201,-3.382937,601.2,3,5,234.5,1.055
124.45,1,0.017,-0.017,0.035,-0.013,-0.004,0.017,-1.616,0.01,-1.214,122.75,100.3,40.496201,-3.382937,601.2,3,5,234.5,1.055
124.55,1,0.005,-0.001,-0.034,0.002,-0.006,0.001,-1.615,0.013,-1.214,123.73,101.4,40.496052,-3.383209,600.3,3,5,234.5,0.703
124.65,1,-0.039,0.014,0.004,-0.016,0.004,-0.009,-1.615,0.012,-1.214,123.73,101.4,40.496052,-3.383209,600.3,3,5,234.5,0.703
124.75,1,-0.041,0.0,0.025,-0.033,0.005,0.006,-1.617,0.012,-1.214,123.73,101.4,40.496052,-3.383209,600.3,3,5,234.5,0.703
124.85,1,-0.024,0.027,0.006,-0.027,0.008,0.011,-1.617,0.014,-1.214,123.73,101.4,40.496052,-3.383209,600.3,3,5,234.5,0.703
124.95,1,0.003,0.019,-0.003,-0.014,0.021,0.005,-1.616,0.014,-1.215,123.73,101.4,40.496052,-3.383209,600.3,3,5,234.5,0.703
125.06,1,0.012,0.024,0.011,0.001,0.025,0.007,-1.616,0.011,-1.216,123.73,101.4,40.496052,-3.383209,600.3,3,5,234.5,0.703
125.16,1,-0.016,0.014,-0.01,-0.005,0.014,-0.005,-1.616,0.012,-1.217,123.73,101.4,40.496052,-3.383209,600.3,3,5,234.5,0.703
