Timestamp_Accel,SystemActivated,accelerometerXAxis,accelerometerYAxis,accelerometerZAxis,AccelX_KF,AccelY_KF,AccelZ_KF,gyroscopeXAxis,gyroscopeYAxis,gyroscopeZAxis,Timestamp_GPS,Speed,latitude,longitude,Altitude,VerticalAccuracy,HorizontalAccuracy,Course,Difcourse
31.84,1,-0.002,0.028,-0.0,-0.004,0.013,0.003,-1.682,-0.004,-2.459,31.87,65.7,40.584465,-3.557142,601.2,6,5,94.6,0.703
31.94,1,-0.006,0.01,-0.011,-0.001,0.011,-0.004,-1.681,-0.007,-2.458,31.87,65.7,40.584465,-3.557142,601.2,6,5,94.6,0.703
32.04,1,-0.024,0.012,-0.014,-0.009,0.018,-0.01,-1.68,-0.013,-2.458,31.87,65.7,40.584465,-3.557142,601.2,6,5,94.6,0.703
32.14,1,-0.014,-0.034,0.014,-0.017,-0.003,-0.001,-1.682,-0.015,-2.457,31.87,65.7,40.584465,-3.557142,601.2,6,5,94.6,0.703
32.25,1,-0.048,0.009,-0.011,-0.03,-0.006,-0.0,-1.683,-0.015,-2.456,31.87,65.7,40.584465,-3.557142,601.2,6,5,94.6,0.703
32.34,1,-0.013,0.04,0.01,-0.022,0.017,0.0,-1.686,-0.021,-2.455,31.87,65.7,40.584465,-3.557142,601.2,6,5,94.6,0.703
32.44,1,-0.006,0.018,-0.003,-0.022,0.019,0.005,-1.689,-0.021,-2.454,31.87,65.7,40.584465,-3.557142,601.2,6,5,94.6,0.703
32.54,1,-0.045,-0.036,-0.001,-0.023,-0.006,0.0,-1.689,-0.017,-2.453,31.87,65.7,40.584465,-3.557142,601.2,6,5,94.6,0.703
32.64,1,-0.007,0.013,0.002,-0.02,0.002,-0.005,-1.69,-0.016,-2.452,31.87,65.7,40.584465,-3.557142,601.2,6,5,94.6,0.703
32.74,1,-0.002,0.026,0.0,-0.01,0.014,0.006,-1.692,-0.02,-2.45,31.87,65.7,40.584465,-3.557142,601.2,6,5,94.6,0.703
32.85,1,0.03,0.016,-0.016,0.003,0.01,-0.009,-1.691,-0.021,-2.449,32.9,69.0,40.584446,-3.556929,602.4,6,5,94.2,1.055
32.94,1,0.01,-0.043,-0.007,0.018,-0.001,-0.007,-1.691,-0.021,-2.447,32.9,69.0,40.584446,-3.556929,602.4,6,5,94.2,1.055
33.05,1,-0.014,-0.005,-0.023,0.0,-0.014,-0.016,-1.69,-0.021,-2.444,32.9,69.0,40.584446,-3.556929,602.4,6,5,94.2,1.055
33.14,1,-0.037,-0.06,0.009,-0.015,-0.034,-0.007,-1.69,-0.021,-2.441,32.9,69.0,40.584446,-3.556929,602.4,6,5,94.2,1.055
33.24,1,-0.037,-0.065,-0.024,-0.029,-0.054,-0.01,-1.69,-0.022,-2.438,32.9,69.0,40.584446,-3.556929,602.4,6,5,94.2,1.055
33.35,1,-0.021,-0.029,-0.01,-0.031,-0.042,-0.014,-1.69,-0.024,-2.435,32.9,69.0,40.584446,-3.556929,602.4,6,5,94.2,1.055
33.45,1,-0.001,-0.033,0.001,-0.015,-0.033,-0.004,-1.689,-0.025,-2.433,32.9,69.0,40.584446,-3.556929,602.4,6,5,94.2,1.055
33.55,1,-0.009,-0.087,-0.002,-0.015,-0.058,-0.008,-1.687,-0.025,-2.43,32.9,69.0,40.584446,-3.556929,602.4,6,5,94.2,1.055
33.66,1,0.043,-0.045,0.005,0.014,-0.058,-0.0,-1.686,-0.024,-2.427,32.9,69.0,40.584446,-3.556929,602.4,6,5,94.2,1.055
33.75,1,0.029,-0.052,-0.01,0.034,-0.052,0.002,-1.683,-0.022,-2.424,32.9,69.0,40.584446,-3.556929,602.4,6,5,94.2,1.055
33.85,1,-0.006,-0.032,-0.017,0.011,-0.049,-0.011,-1.682,-0.013,-2.422,33.87,71.5,40.584435,-3.556698,603.4,6,5,93.2,1.406
33.95,1,-0.016,-0.019,0.013,-0.005,-0.035,-0.003,-1.681,-0.007,-2.42,33.87,71.5,40.584435,-3.556698,603.4,6,5,93.2,1.406
34.06,1,-0.005,0.003,-0.024,-0.001,-0.009,-0.009,-1.681,-0.007,-2.418,33.87,71.5,40.584435,-3.556698,603.4,6,5,93.2,1.406
34.15,1,0.007,0.023,-0.004,-0.008,0.003,-0.01,-1.681,-0.007,-2.417,33.87,71.5,40.584435,-3.556698,603.4,6,5,93.2,1.406
34.25,1,-0.007,-0.007,-0.009,0.001,0.003,-0.005,-1.68,-0.008,-2.415,33.87,71.5,40.584435,-3.556698,603.4,6,5,93.2,1.406
34.35,1,-0.032,-0.028,-0.036,-0.014,-0.011,-0.022,-1.677,-0.005,-2.413,33.87,71.5,40.584435,-3.556698,603.4,6,5,93.2,1.406
34.45,1,-0.036,-0.012,0.007,-0.028,-0.011,-0.014,-1.677,-0.003,-2.411,33.87,71.5,40.584435,-3.556698,603.4,6,5,93.2,1.406
34.55,1,-0.053,0.032,-0.027,-0.037,0.001,-0.013,-1.678,-0.003,-2.409,33.87,71.5,40.584435,-3.556698,603.4,6,5,93.2,1.406
34.65,1,-0.059,0.012,-0.022,-0.054,0.008,-0.021,-1.68,-0.002,-2.407,33.87,71.5,40.584435,-3.556698,603.4,6,5,93.2,1.406
34.75,1,0.001,-0.005,0.013,-0.038,0.006,-0.007,-1.681,-0.001,-2.404,33.87,71.5,40.584435,-3.556698,603.4,6,5,93.2,1.406
34.85,1,0.08,-0.068,0.015,0.022,-0.028,0.01,-1.679,-0.001,-2.402,34.89,74.7,40.584431,-3.556467,604.3,6,5,91.8,2.461
34.95,1,0.084,-0.012,-0.013,0.064,-0.024,0.003,-1.676,-0.001,-2.399,34.89,74.7,40.584431,-3.556467,604.3,6,5,91.8,2.461
35.05,1,-0.029,-0.007,-0.02,0.032,-0.015,-0.011,-1.674,0.001,-2.397,34.89,74.7,40.584431,-3.556467,604.3,6,5,91.8,2.461
35.15,1,-0.051,-0.037,-0.009,-0.018,-0.021,-0.015,-1.672,0.004,-2.393,34.89,74.7,40.584431,-3.556467,604.3,6,5,91.8,2.461
35.26,1,-0.017,-0.013,0.015,-0.029,-0.023,0.0,-1.67,0.005,-2.391,34.89,74.7,40.584431,-3.556467,604.3,6,5,91.8,2.461
35.36,1,0.012,-0.003,-0.009,-0.009,-0.02,-0.001,-1.668,0.006,-2.388,34.89,74.7,40.584431,-3.556467,604.3,6,5,91.8,2.461
35.45,1,0.06,-0.006,-0.02,0.027,-0.009,-0.013,-1.665,0.006,-2.384,34.89,74.7,40.584431,-3.556467,604.3,6,5,91.8,2.461
35.55,1,0.023,-0.061,0.014,0.029,-0.031,-0.001,-1.664,0.006,-2.381,34.89,74.7,40.584431,-3.556467,604.3,6,5,91.8,2.461
35.65,1,-0.023,-0.013,-0.033,0.012,-0.022,-0.01,-1.663,0.003,-2.377,34.89,74.7,40.584431,-3.556467,604.3,6,5,91.8,2.461
35.75,1,-0.044,-0.113,0.007,-0.023,-0.06,-0.013,-1.663,0.001,-2.374,34.89,74.7,40.584431,-3.556467,604.3,6,5,91.8,2.461
35.86,1,-0.107,-0.043,-0.016,-0.065,-0.06,-0.006,-1.665,0.001,-2.37,35.87,77.8,40.584435,-3.556209,605.9,6,5,90.7,2.461
35.96,1,-0.048,-0.017,-0.0,-0.064,-0.036,-0.009,-1.666,-0.0,-2.367,35.87,77.8,40.584435,-3.556209,605.9,6,5,90.7,2.461
36.06,1,0.058,0.015,-0.032,-0.007,-0.022,-0.007,-1.665,-0.003,-2.364,35.87,77.8,40.584435,-3.556209,605.9,6,5,90.7,2.461
36.16,1,0.054,-0.022,-0.133,0.035,-0.007,-0.07,-1.661,-0.005,-2.361,35.87,77.8,40.584435,-3.556209,605.9,6,5,90.7,2.461
36.27,1,0.019,-0.016,-0.131,0.035,-0.014,-0.106,-1.659,-0.006,-2.357,35.87,77.8,40.584435,-3.556209,605.9,6,5,90.7,2.461
36.36,1,-0.011,-0.002,-0.134,0.01,-0.014,-0.125,-1.649,-0.007,-2.354,35.87,77.8,40.584435,-3.556209,605.9,6,5,90.7,2.461
36.46,1,-0.009,-0.014,-0.111,-0.004,-0.012,-0.112,-1.627,-0.011,-2.351,35.87,77.8,40.584435,-3.556209,605.9,6,5,90.7,2.461
36.56,1,0.01,-0.02,-0.086,-0.001,-0.013,-0.109,-1.612,-0.014,-2.349,35.87,77.8,40.584435,-3.556209,605.9,6,5,90.7,2.461
36.66,1,0.03,0.001,-0.062,0.017,-0.008,-0.082,-1.61,-0.015,-2.348,35.87,77.8,40.584435,-3.556209,605.9,6,5,90.7,2.461
36.76,1,0.049,0.023,-0.073,0.028,0.008,-0.08,-1.609,-0.016,-2.347,35.87,77.8,40.584435,-3.556209,605.9,6,5,90.7,2.461
36.86,1,0.04,0.009,-0.04,0.042,0.004,-0.06,-1.608,-0.019,-2.347,36.88,79.5,40.584446,-3.555957,606.5,6,5,88.9,2.812
36.96,1,0.012,0.038,-0.032,0.03,0.019,-0.047,-1.605,-0.026,-2.347,36.88,79.5,40.584446,-3.555957,606.5,6,5,88.9,2.812
37.06,1,-0.022,0.056,-0.006,0.002,0.038,-0.023,-1.603,-0.029,-2.347,36.88,79.5,40.584446,-3.555957,606.5,6,5,88.9,2.812
37.16,1,0.015,0.022,-0.002,0.003,0.045,-0.012,-1.603,-0.028,-2.347,36.88,79.5,40.584446,-3.555957,606.5,6,5,88.9,2.812
37.26,1,-0.009,0.05,-0.031,0.001,0.042,-0.01,-1.601,-0.031,-2.347,36.88,79.5,40.584446,-3.555957,606.5,6,5,88.9,2.812
37.36,1,-0.088,0.038,-0.036,-0.027,0.031,-0.034,-1.603,-0.028,-2.347,36.88,79.5,40.584446,-3.555957,606.5,6,5,88.9,2.812
37.46,1,-0.136,0.007,0.01,-0.104,0.025,-0.017,-1.607,-0.023,-2.347,36.88,79.5,40.584446,-3.555957,606.5,6,5,88.9,2.812
37.56,1,-0.026,0.018,0.033,-0.08,0.025,0.013,-1.609,-0.016,-2.346,36.88,79.5,40.584446,-3.555957,606.5,6,5,88.9,2.812
37.66,1,0.029,0.001,-0.009,-0.017,0.008,0.002,-1.608,-0.016,-2.346,36.88,79.5,40.584446,-3.555957,606.5,6,5,88.9,2.812
37.78,1,0.037,0.022,0.028,0.02,0.019,0.014,-1.61,-0.017,-2.347,36.88,79.5,40.584446,-3.555957,606.5,6,5,88.9,2.812
37.87,1,0.045,0.044,0.015,0.028,0.031,0.017,-1.61,-0.02,-2.348,37.9,79.6,40.584438,-3.555694,606.6,6,5,87.5,3.164
37.96,1,0.052,0.027,0.01,0.046,0.032,0.017,-1.612,-0.02,-2.349,37.9,79.6,40.584438,-3.555694,606.6,6,5,87.5,3.164
38.06,1,0.032,0.026,-0.017,0.041,0.024,0.001,-1.61,-0.014,-2.35,37.9,79.6,40.584438,-3.555694,606.6,6,5,87.5,3.164
38.16,1,-0.033,-0.012,0.02,0.006,0.008,0.002,-1.609,-0.01,-2.352,37.9,79.6,40.584438,-3.555694,606.6,6,5,87.5,3.164
38.27,1,-0.034,-0.011,0.015,-0.018,-0.001,0.014,-1.61,-0.016,-2.353,37.9,79.6,40.584438,-3.555694,606.6,6,5,87.5,3.164
38.36,1,0.018,0.082,0.011,-0.008,0.038,0.006,-1.609,-0.013,-2.355,37.9,79.6,40.584438,-3.555694,606.6,6,5,87.5,3.164
38.46,1,0.059,0.047,0.014,0.027,0.044,0.018,-1.61,-0.013,-2.357,37.9,79.6,40.584438,-3.555694,606.6,6,5,87.5,3.164
38.57,1,0.012,0.077,-0.002,0.033,0.056,0.009,-1.608,-0.012,-2.36,37.9,79.6,40.584438,-3.555694,606.6,6,5,87.5,3.164
38.67,1,-0.095,0.084,-0.003,-0.02,0.068,0.001,-1.61,-0.016,-2.362,37.9,79.6,40.584438,-3.555694,606.6,6,5,87.5,3.164
38.77,1,-0.042,0.062,0.011,-0.055,0.074,0.002,-1.611,-0.019,-2.365,37.9,79.6,40.584438,-3.555694,606.6,6,5,87.5,3.164
38.87,1,-0.008,0.067,0.052,-0.037,0.065,0.029,-1.61,-0.022,-2.37,38.93,80.6,40.584442,-3.555427,607.2,6,5,87.9,1.055
38.98,1,0.074,0.066,0.018,0.019,0.068,0.027,-1.608,-0.021,-2.374,38.93,80.6,40.584442,-3.555427,607.2,6,5,87.9,1.055
39.07,1,0.082,0.045,0.023,0.059,0.06,0.023,-1.606,-0.021,-2.379,38.93,80.6,40.584442,-3.555427,607.2,6,5,87.9,1.055
39.17,1,-0.05,0.084,-0.004,0.024,0.062,0.013,-1.604,-0.026,-2.383,38.93,80.6,40.584442,-3.555427,607.2,6,5,87.9,1.055
39.27,1,-0.106,0.072,0.04,-0.044,0.074,0.02,-1.606,-0.024,-2.386,38.93,80.6,40.584442,-3.555427,607.2,6,5,87.9,1.055
39.37,1,0.008,0.121,0.028,-0.049,0.085,0.028,-1.606,-0.017,-2.389,38.93,80.6,40.584442,-3.555427,607.2,6,5,87.9,1.055
39.48,1,0.003,0.062,-0.017,-0.013,0.087,0.013,-1.604,-0.011,-2.392,38.93,80.6,40.584442,-3.555427,607.2,6,5,87.9,1.055
39.57,1,0.018,-0.008,0.017,0.005,0.046,0.002,-1.603,-0.007,-2.395,38.93,80.6,40.584442,-3.555427,607.2,6,5,87.9,1.055
39.67,1,0.02,0.05,0.025,0.016,0.034,0.018,-1.604,-0.006,-2.398,38.93,80.6,40.584442,-3.555427,607.2,6,5,87.9,1.055
39.77,1,-0.031,0.032,0.024,-0.006,0.047,0.021,-1.604,-0.009,-2.402,38.93,80.6,40.584442,-3.555427,607.2,6,5,87.9,1.055
39.87,1,0.005,0.095,0.026,-0.014,0.055,0.02,-1.603,-0.015,-2.406,39.86,82.4,40.584446,-3.555156,608.0,6,5,89.3,1.758
39.97,1,-0.015,0.023,0.008,-0.007,0.055,0.024,-1.605,-0.02,-2.409,39.86,82.4,40.584446,-3.555156,608.0,6,5,89.3,1.758
40.08,1,0.011,0.025,0.022,0.002,0.028,0.011,-1.605,-0.02,-2.413,39.86,82.4,40.584446,-3.555156,608.0,6,5,89.3,1.758
40.22,1,0.015,0.021,0.02,0.014,0.029,0.025,-1.604,-0.022,-2.417,39.86,82.4,40.584446,-3.555156,608.0,6,5,89.3,1.758
40.28,1,0.0,-0.085,0.035,0.003,-0.03,0.021,-1.603,-0.026,-2.422,39.86,82.4,40.584446,-3.555156,608.0,6,5,89.3,1.758
40.37,1,-0.032,0.005,0.032,-0.008,-0.027,0.038,-1.603,-0.029,-2.426,39.86,82.4,40.584446,-3.555156,608.0,6,5,89.3,1.758
40.47,1,-0.144,0.114,-0.027,-0.059,0.043,-0.002,-1.605,-0.032,-2.43,39.86,82.4,40.584446,-3.555156,608.0,6,5,89.3,1.758
40.58,1,-0.184,0.109,0.024,-0.137,0.084,0.009,-1.611,-0.03,-2.434,39.86,82.4,40.584446,-3.555156,608.0,6,5,89.3,1.758
40.67,1,-0.024,0.076,0.045,-0.114,0.095,0.026,-1.613,-0.025,-2.438,39.86,82.4,40.584446,-3.555156,608.0,6,5,89.3,1.758
40.77,1,0.089,0.152,0.016,-0.0,0.12,0.031,-1.612,-0.019,-2.441,39.86,82.4,40.584446,-3.555156,608.0,6,5,89.3,1.758
40.87,1,0.087,-0.038,0.058,0.058,0.064,0.029,-1.609,-0.016,-2.446,40.87,84.4,40.584454,-3.554883,608.2,6,5,91.1,3.164
41.08,1,-0.109,-0.008,0.015,0.008,0.009,0.011,-1.609,-0.014,-2.455,40.87,84.4,40.584454,-3.554883,608.2,6,5,91.1,3.164
41.18,1,-0.114,0.04,0.017,-0.071,0.023,0.015,-1.61,-0.014,-2.458,40.87,84.4,40.584454,-3.554883,608.2,6,5,91.1,3.164
41.29,1,-0.053,0.065,0.004,-0.074,0.041,0.013,-1.609,-0.015,-2.463,40.87,84.4,40.584454,-3.554883,608.2,6,5,91.1,3.164
41.38,1,-0.015,0.063,0.025,-0.04,0.051,0.015,-1.61,-0.016,-2.468,40.87,84.4,40.584454,-3.554883,608.2,6,5,91.1,3.164
41.48,1,-0.021,0.069,0.012,-0.031,0.066,0.017,-1.611,-0.019,-2.473,40.87,84.4,40.584454,-3.554883,608.2,6,5,91.1,3.164
41.58,1,-0.0,0.069,0.004,-0.022,0.059,0.013,-1.614,-0.018,-2.477,40.87,84.4,40.584454,-3.554883,608.2,6,5,91.1,3.164
41.68,1,-0.015,0.074,-0.003,-0.006,0.073,0.005,-1.617,-0.02,-2.482,40.87,84.4,40.584454,-3.554883,608.2,6,5,91.1,3.164
41.78,1,0.016,0.053,-0.003,-0.001,0.066,-0.005,-1.616,-0.022,-2.486,40.87,84.4,40.584454,-3.554883,608.2,6,5,91.1,3.164
41.89,1,-0.0,-0.001,0.006,0.006,0.043,0.007,-1.616,-0.022,-2.489,40.87,84.4,40.584454,-3.554883,608.2,6,5,91.1,3.164
41.98,1,-0.01,-0.044,0.016,-0.003,0.005,0.002,-1.615,-0.023,-2.492,41.89,86.1,40.584446,-3.554603,608.9,6,5,92.8,3.516
42.08,1,0.004,0.017,0.005,-0.0,-0.012,0.012,-1.615,-0.023,-2.495,41.89,86.1,40.584446,-3.554603,608.9,6,5,92.8,3.516
42.18,1,-0.009,-0.008,-0.003,-0.002,-0.002,-0.001,-1.616,-0.024,-2.498,41.89,86.1,40.584446,-3.554603,608.9,6,5,92.8,3.516
42.29,1,-0.004,0.011,0.002,-0.005,-0.009,0.007,-1.616,-0.024,-2.5,41.89,86.1,40.584446,-3.554603,608.9,6,5,92.8,3.516
42.39,1,-0.023,0.038,-0.049,-0.015,0.022,-0.018,-1.616,-0.024,-2.503,41.89,86.1,40.584446,-3.554603,608.9,6,5,92.8,3.516
42.49,1,0.005,0.022,-0.066,-0.007,0.026,-0.047,-1.616,-0.023,-2.505,41.89,86.1,40.584446,-3.554603,608.9,6,5,92.8,3.516
42.58,1,0.027,0.107,-0.092,0.008,0.056,-0.074,-1.615,-0.022,-2.508,41.89,86.1,40.584446,-3.554603,608.9,6,5,92.8,3.516
42.68,1,0.026,-0.001,-0.043,0.026,0.061,-0.059,-1.615,-0.02,-2.511,41.89,86.1,40.584446,-3.554603,608.9,6,5,92.8,3.516
42.78,1,0.008,0.01,-0.044,0.017,0.015,-0.054,-1.615,-0.019,-2.514,41.89,86.1,40.584446,-3.554603,608.9,6,5,92.8,3.516
42.89,1,-0.027,-0.01,-0.025,-0.004,-0.006,-0.038,-1.616,-0.019,-2.516,41.89,86.1,40.584446,-3.554603,608.9,6,5,92.8,3.516
42.98,1,-0.008,0.007,-0.033,-0.025,0.002,-0.035,-1.616,-0.019,-2.518,42.87,88.5,40.584442,-3.554298,609.3,6,5,95.3,4.219
43.09,1,0.049,0.043,0.003,0.016,0.023,-0.016,-1.616,-0.017,-2.52,42.87,88.5,40.584442,-3.554298,609.3,6,5,95.3,4.219
43.18,1,-0.038,-0.008,-0.045,0.02,0.014,-0.027,-1.614,-0.014,-2.522,42.87,88.5,40.584442,-3.554298,609.3,6,5,95.3,4.219
43.28,1,-0.058,-0.052,-0.054,-0.029,-0.02,-0.038,-1.615,-0.009,-2.524,42.87,88.5,40.584442,-3.554298,609.3,6,5,95.3,4.219
43.38,1,-0.079,-0.002,-0.029,-0.064,-0.021,-0.039,-1.616,-0.008,-2.526,42.87,88.5,40.584442,-3.554298,609.3,6,5,95.3,4.219
43.5,1,-0.004,-0.052,-0.031,-0.042,-0.013,-0.032,-1.616,-0.009,-2.528,42.87,88.5,40.584442,-3.554298,609.3,6,5,95.3,4.219
43.59,1,0.014,-0.037,-0.016,-0.015,-0.051,-0.024,-1.616,-0.01,-2.529,42.87,88.5,40.584442,-3.554298,609.3,6,5,95.3,4.219
43.69,1,0.016,0.049,-0.061,0.007,-0.009,-0.038,-1.616,-0.011,-2.531,42.87,88.5,40.584442,-3.554298,609.3,6,5,95.3,4.219
43.79,1,0.011,0.111,-0.047,0.012,0.065,-0.05,-1.618,-0.011,-2.533,42.87,88.5,40.584442,-3.554298,609.3,6,5,95.3,4.219
43.89,1,-0.021,0.022,0.008,-0.011,0.055,-0.02,-1.619,-0.011,-2.535,42.87,88.5,40.584442,-3.554298,609.3,6,5,95.3,4.219
44.0,1,0.001,-0.022,-0.033,-0.008,0.009,-0.024,-1.617,-0.011,-2.536,43.87,88.9,40.584415,-3.554011,609.7,6,5,96.7,3.867
44.09,1,0.006,-0.03,-0.016,0.01,-0.007,-0.022,-1.617,-0.012,-2.538,43.87,88.9,40.584415,-3.554011,609.7,6,5,96.7,3.867
44.2,1,0.041,0.045,-0.026,0.02,0.008,-0.026,-1.616,-0.013,-2.54,43.87,88.9,40.584415,-3.554011,609.7,6,5,96.7,3.867
44.29,1,-0.022,0.001,-0.047,0.009,0.018,-0.026,-1.617,-0.012,-2.543,43.87,88.9,40.584415,-3.554011,609.7,6,5,96.7,3.867
44.39,1,-0.067,-0.008,-0.025,-0.025,-0.001,-0.043,-1.619,-0.014,-2.544,43.87,88.9,40.584415,-3.554011,609.7,6,5,96.7,3.867
44.49,1,-0.018,0.046,-0.042,-0.042,0.016,-0.029,-1.619,-0.016,-2.546,43.87,88.9,40.584415,-3.554011,609.7,6,5,96.7,3.867
44.6,1,0.015,0.011,-0.028,-0.005,0.023,-0.033,-1.619,-0.017,-2.548,43.87,88.9,40.584415,-3.554011,609.7,6,5,96.7,3.867
44.7,1,0.022,0.057,-0.035,0.003,0.029,-0.037,-1.619,-0.017,-2.55,43.87,88.9,40.584415,-3.554011,609.7,6,5,96.7,3.867
44.79,1,0.033,0.028,-0.028,0.019,0.033,-0.026,-1.619,-0.015,-2.55,43.87,88.9,40.584415,-3.554011,609.7,6,5,96.7,3.867
44.89,1,-0.04,-0.006,-0.048,0.003,0.024,-0.039,-1.618,-0.014,-2.551,43.87,88.9,40.584415,-3.554011,609.7,6,5,96.7,3.867
44.99,1,-0.052,0.009,-0.034,-0.033,0.008,-0.036,-1.62,-0.01,-2.552,44.91,89.5,40.584389,-3.553714,610.1,6,5,97.4,2.109
45.09,1,0.02,0.006,-0.024,-0.01,0.008,-0.032,-1.614,-0.005,-2.553,44.91,89.5,40.584389,-3.553714,610.1,6,5,97.4,2.109
45.19,1,-0.027,-0.036,-0.028,-0.013,-0.006,-0.024,-1.611,-0.013,-2.554,44.91,89.5,40.584389,-3.553714,610.1,6,5,97.4,2.109
45.29,1,-0.004,-0.036,-0.008,-0.013,-0.023,-0.029,-1.608,-0.017,-2.555,44.91,89.5,40.584389,-3.553714,610.1,6,5,97.4,2.109
45.4,1,-0.042,-0.018,-0.029,-0.023,-0.027,-0.019,-1.606,-0.013,-2.556,44.91,89.5,40.584389,-3.553714,610.1,6,5,97.4,2.109
45.51,1,-0.033,0.005,-0.011,-0.028,-0.009,-0.016,-1.607,-0.011,-2.557,44.91,89.5,40.584389,-3.553714,610.1,6,5,97.4,2.109
45.59,1,-0.044,0.019,-0.026,-0.039,-0.003,-0.019,-1.607,-0.011,-2.558,44.91,89.5,40.584389,-3.553714,610.1,6,5,97.4,2.109
45.69,1,-0.015,-0.016,-0.004,-0.026,0.002,-0.013,-1.607,-0.01,-2.559,44.91,89.5,40.584389,-3.553714,610.1,6,5,97.4,2.109
45.79,1,0.037,0.024,-0.041,0.009,-0.003,-0.02,-1.607,-0.009,-2.561,44.91,89.5,40.584389,-3.553714,610.1,6,5,97.4,2.109
45.89,1,-0.006,-0.045,0.027,0.002,-0.003,-0.011,-1.608,-0.009,-2.562,44.91,89.5,40.584389,-3.553714,610.1,6,5,97.4,2.109
46.01,1,-0.026,-0.009,-0.027,-0.014,-0.018,-0.009,-1.607,-0.01,-2.563,45.87,89.9,40.584358,-3.553427,610.7,6,5,98.1,1.406
46.11,1,-0.01,0.062,-0.035,-0.013,0.008,-0.022,-1.605,-0.01,-2.564,45.87,89.9,40.584358,-3.553427,610.7,6,5,98.1,1.406
46.2,1,-0.015,0.066,-0.037,-0.012,0.058,-0.032,-1.605,-0.01,-2.567,45.87,89.9,40.584358,-3.553427,610.7,6,5,98.1,1.406
46.3,1,-0.079,0.076,-0.036,-0.04,0.056,-0.028,-1.606,-0.011,-2.568,45.87,89.9,40.584358,-3.553427,610.7,6,5,98.1,1.406
46.4,1,0.009,-0.008,0.019,-0.042,0.034,-0.021,-1.607,-0.012,-2.57,45.87,89.9,40.584358,-3.553427,610.7,6,5,98.1,1.406
46.5,1,0.005,0.026,-0.007,-0.016,0.015,0.003,-1.607,-0.014,-2.571,45.87,89.9,40.584358,-3.553427,610.7,6,5,98.1,1.406
46.6,1,0.029,0.043,-0.028,0.018,0.04,-0.021,-1.608,-0.014,-2.574,45.87,89.9,40.584358,-3.553427,610.7,6,5,98.1,1.406
46.7,1,0.002,0.024,0.0,0.017,0.031,-0.012,-1.609,-0.015,-2.577,45.87,89.9,40.584358,-3.553427,610.7,6,5,98.1,1.406
46.8,1,-0.016,0.045,-0.005,0.002,0.04,-0.004,-1.609,-0.019,-2.58,45.87,89.9,40.584358,-3.553427,610.7,6,5,98.1,1.406
46.9,1,0.0,0.057,-0.029,-0.001,0.046,-0.015,-1.605,-0.025,-2.583,45.87,89.9,40.584358,-3.553427,610.7,6,5,98.1,1.406
47.0,1,0.031,0.091,-0.005,0.015,0.066,-0.01,-1.603,-0.02,-2.586,46.87,91.7,40.584328,-3.553123,611.0,6,5,98.4,1.055
47.1,1,-0.024,0.04,-0.026,-0.005,0.065,-0.02,-1.605,-0.024,-2.59,46.87,91.7,40.584328,-3.553123,611.0,6,5,98.4,1.055
47.2,1,-0.062,0.03,-0.027,-0.03,0.049,-0.027,-1.602,-0.035,-2.593,46.87,91.7,40.584328,-3.553123,611.0,6,5,98.4,1.055
47.3,1,-0.14,0.036,-0.048,-0.076,0.035,-0.03,-1.601,-0.037,-2.595,46.87,91.7,40.584328,-3.553123,611.0,6,5,98.4,1.055
47.4,1,-0.105,0.049,0.002,-0.107,0.045,-0.027,-1.603,-0.036,-2.598,46.87,91.7,40.584328,-3.553123,611.0,6,5,98.4,1.055
47.5,1,-0.028,-0.011,-0.025,-0.076,0.018,-0.017,-1.604,-0.035,-2.6,46.87,91.7,40.584328,-3.553123,611.0,6,5,98.4,1.055
47.6,1,-0.01,0.032,-0.012,-0.043,0.017,-0.017,-1.604,-0.034,-2.602,46.87,91.7,40.584328,-3.553123,611.0,6,5,98.4,1.055
47.7,1,0.064,0.035,-0.008,0.016,0.026,-0.01,-1.604,-0.033,-2.604,46.87,91.7,40.584328,-3.553123,611.0,6,5,98.4,1.055
47.81,1,0.031,0.024,-0.025,0.029,0.027,-0.015,-1.603,-0.033,-2.606,46.87,91.7,40.584328,-3.553123,611.0,6,5,98.4,1.055
47.91,1,0.028,0.032,-0.004,0.029,0.03,-0.014,-1.602,-0.033,-2.608,46.87,91.7,40.584328,-3.553123,611.0,6,5,98.4,1.055
48.0,1,0.001,0.033,-0.031,0.024,0.036,-0.015,-1.6,-0.032,-2.611,47.88,92.3,40.584301,-3.552817,611.4,6,5,99.8,1.758
48.1,1,-0.074,0.033,-0.047,-0.019,0.036,-0.036,-1.596,-0.041,-2.613,47.88,92.3,40.584301,-3.552817,611.4,6,5,99.8,1.758
48.2,1,-0.163,0.053,-0.018,-0.094,0.035,-0.031,-1.597,-0.046,-2.616,47.88,92.3,40.584301,-3.552817,611.4,6,5,99.8,1.758
48.32,1,0.002,0.048,0.005,-0.085,0.045,-0.011,-1.598,-0.046,-2.619,47.88,92.3,40.584301,-3.552817,611.4,6,5,99.8,1.758
48.4,1,0.011,0.075,-0.028,0.003,0.061,-0.014,-1.6,-0.045,-2.622,47.88,92.3,40.584301,-3.552817,611.4,6,5,99.8,1.758
48.5,1,-0.089,0.054,-0.034,-0.054,0.06,-0.03,-1.604,-0.045,-2.626,47.88,92.3,40.584301,-3.552817,611.4,6,5,99.8,1.758
48.6,1,-0.03,0.12,-0.012,-0.057,0.084,-0.023,-1.605,-0.047,-2.63,47.88,92.3,40.584301,-3.552817,611.4,6,5,99.8,1.758
48.7,1,0.015,0.066,-0.012,-0.017,0.086,-0.015,-1.605,-0.047,-2.634,47.88,92.3,40.584301,-3.552817,611.4,6,5,99.8,1.758
48.81,1,0.023,0.067,-0.027,0.009,0.076,-0.019,-1.602,-0.046,-2.637,47.88,92.3,40.584301,-3.552817,611.4,6,5,99.8,1.758
48.92,1,0.041,0.015,-0.014,0.025,0.042,-0.019,-1.597,-0.052,-2.64,47.88,92.3,40.584301,-3.552817,611.4,6,5,99.8,1.758
49.02,1,0.035,-0.016,-0.05,0.037,0.015,-0.029,-1.596,-0.053,-2.643,48.92,93.0,40.584267,-3.552507,612.0,6,5,101.2,2.812
49.11,1,0.003,0.022,-0.073,0.02,0.006,-0.054,-1.594,-0.053,-2.646,48.92,93.0,40.584267,-3.552507,612.0,6,5,101.2,2.812
49.21,1,-0.024,-0.008,-0.08,-0.0,0.005,-0.069,-1.589,-0.057,-2.648,48.92,93.0,40.584267,-3.552507,612.0,6,5,101.2,2.812
49.31,1,-0.069,-0.02,-0.077,-0.036,0.0,-0.075,-1.579,-0.066,-2.651,48.92,93.0,40.584267,-3.552507,612.0,6,5,101.2,2.812
49.41,1,-0.091,0.002,-0.034,-0.063,-0.001,-0.06,-1.576,-0.063,-2.654,48.92,93.0,40.584267,-3.552507,612.0,6,5,101.2,2.812
49.52,1,0.017,-0.01,-0.035,-0.052,-0.011,-0.043,-1.577,-0.062,-2.657,48.92,93.0,40.584267,-3.552507,612.0,6,5,101.2,2.812
49.61,1,0.059,0.008,-0.039,0.021,-0.011,-0.039,-1.577,-0.06,-2.66,48.92,93.0,40.584267,-3.552507,612.0,6,5,101.2,2.812
49.71,1,0.037,0.052,-0.06,0.04,0.026,-0.047,-1.577,-0.058,-2.663,48.92,93.0,40.584267,-3.552507,612.0,6,5,101.2,2.812
49.81,1,-0.02,0.011,-0.034,0.011,0.021,-0.046,-1.579,-0.058,-2.666,48.92,93.0,40.584267,-3.552507,612.0,6,5,101.2,2.812
49.92,1,-0.021,0.014,-0.013,-0.012,0.021,-0.026,-1.578,-0.058,-2.669,48.92,93.0,40.584267,-3.552507,612.0,6,5,101.2,2.812
50.02,1,0.006,0.013,-0.035,-0.0,0.017,-0.031,-1.578,-0.057,-2.671,49.91,93.7,40.584217,-3.552207,612.3,6,5,102.7,2.812
50.11,1,-0.043,0.007,-0.019,-0.018,0.008,-0.023,-1.578,-0.056,-2.673,49.91,93.7,40.584217,-3.552207,612.3,6,5,102.7,2.812
50.21,1,-0.019,0.005,-0.005,-0.03,0.005,-0.016,-1.575,-0.051,-2.675,49.91,93.7,40.584217,-3.552207,612.3,6,5,102.7,2.812
50.31,1,-0.031,-0.0,-0.021,-0.023,0.005,-0.015,-1.571,-0.056,-2.677,49.91,93.7,40.584217,-3.552207,612.3,6,5,102.7,2.812
50.41,1,-0.011,0.019,-0.01,-0.015,0.011,-0.018,-1.568,-0.052,-2.679,49.91,93.7,40.584217,-3.552207,612.3,6,5,102.7,2.812
50.52,1,0.007,0.038,-0.004,-0.008,0.024,-0.009,-1.571,-0.05,-2.682,49.91,93.7,40.584217,-3.552207,612.3,6,5,102.7,2.812
50.62,1,-0.017,0.046,-0.007,-0.003,0.032,-0.006,-1.573,-0.052,-2.684,49.91,93.7,40.584217,-3.552207,612.3,6,5,102.7,2.812
50.73,1,-0.053,0.001,-0.01,-0.03,0.034,-0.01,-1.573,-0.052,-2.686,49.91,93.7,40.584217,-3.552207,612.3,6,5,102.7,2.812
50.81,1,-0.044,-0.045,0.004,-0.045,-0.017,-0.003,-1.573,-0.052,-2.689,49.91,93.7,40.584217,-3.552207,612.3,6,5,102.7,2.812
51.01,1,-0.005,0.041,0.002,-0.015,0.006,-0.002,-1.574,-0.052,-2.693,49.91,93.7,40.584217,-3.552207,612.3,6,5,102.7,2.812
51.11,1,0.007,0.008,-0.004,-0.001,0.014,-0.002,-1.574,-0.052,-2.696,50.86,92.8,40.58416,-3.551909,612.5,6,5,104.8,3.516
51.21,1,0.01,-0.005,0.009,0.009,0.004,0.002,-1.574,-0.052,-2.698,50.86,92.8,40.58416,-3.551909,612.5,6,5,104.8,3.516
51.32,1,-0.0,-0.008,0.017,0.004,-0.008,0.011,-1.574,-0.056,-2.7,50.86,92.8,40.58416,-3.551909,612.5,6,5,104.8,3.516
51.42,1,-0.027,-0.001,-0.0,-0.012,-0.002,0.006,-1.573,-0.059,-2.702,50.86,92.8,40.58416,-3.551909,612.5,6,5,104.8,3.516
51.52,1,0.004,0.015,0.002,-0.007,0.006,0.007,-1.573,-0.06,-2.705,50.86,92.8,40.58416,-3.551909,612.5,6,5,104.8,3.516
51.62,1,0.002,-0.001,0.008,0.0,0.008,0.003,-1.574,-0.064,-2.707,50.86,92.8,40.58416,-3.551909,612.5,6,5,104.8,3.516
51.72,1,-0.034,0.009,-0.013,-0.013,0.006,-0.002,-1.575,-0.067,-2.71,50.86,92.8,40.58416,-3.551909,612.5,6,5,104.8,3.516
51.82,1,-0.039,0.01,0.009,-0.027,0.008,-0.0,-1.575,-0.068,-2.713,50.86,92.8,40.58416,-3.551909,612.5,6,5,104.8,3.516
51.92,1,-0.038,-0.005,-0.008,-0.041,-0.001,-0.001,-1.575,-0.068,-2.715,50.86,92.8,40.58416,-3.551909,612.5,6,5,104.8,3.516
52.02,1,-0.032,0.006,-0.007,-0.036,-0.001,-0.008,-1.576,-0.069,-2.718,50.86,92.8,40.58416,-3.551909,612.5,6,5,104.8,3.516
52.12,1,-0.009,-0.0,-0.001,-0.022,-0.001,-0.005,-1.575,-0.073,-2.72,51.88,93.0,40.584095,-3.55162,612.7,6,5,106.5,3.867
52.22,1,-0.032,0.008,0.001,-0.021,0.014,0.002,-1.575,-0.08,-2.723,51.88,93.0,40.584095,-3.55162,612.7,6,5,106.5,3.867
52.33,1,-0.014,-0.038,-0.001,-0.022,-0.015,0.002,-1.577,-0.081,-2.725,51.88,93.0,40.584095,-3.55162,612.7,6,5,106.5,3.867
52.43,1,0.036,-0.019,0.002,0.006,-0.023,-0.0,-1.577,-0.076,-2.727,51.88,93.0,40.584095,-3.55162,612.7,6,5,106.5,3.867
52.52,1,-0.032,-0.012,-0.012,-0.002,-0.015,-0.003,-1.576,-0.074,-2.73,51.88,93.0,40.584095,-3.55162,612.7,6,5,106.5,3.867
52.62,1,-0.011,0.016,0.014,-0.018,-0.002,0.001,-1.576,-0.076,-2.732,51.88,93.0,40.584095,-3.55162,612.7,6,5,106.5,3.867
52.72,1,-0.012,-0.01,-0.005,-0.006,-0.006,0.003,-1.577,-0.081,-2.735,51.88,93.0,40.584095,-3.55162,612.7,6,5,106.5,3.867
52.82,1,-0.031,-0.006,0.007,-0.023,-0.005,0.001,-1.577,-0.081,-2.737,51.88,93.0,40.584095,-3.55162,612.7,6,5,106.5,3.867
52.92,1,-0.03,-0.017,-0.005,-0.025,-0.007,0.003,-1.577,-0.08,-2.739,51.88,93.0,40.584095,-3.55162,612.7,6,5,106.5,3.867
53.02,1,-0.019,0.0,-0.019,-0.024,-0.007,-0.009,-1.578,-0.079,-2.742,51.88,93.0,40.584095,-3.55162,612.7,6,5,106.5,3.867
53.12,1,-0.031,-0.02,0.003,-0.027,-0.012,-0.009,-1.579,-0.08,-2.744,52.93,93.6,40.584026,-3.551333,613.0,6,5,107.9,3.164
53.22,1,-0.024,-0.005,0.011,-0.03,-0.011,-0.0,-1.58,-0.082,-2.746,52.93,93.6,40.584026,-3.551333,613.0,6,5,107.9,3.164
53.32,1,0.03,0.018,0.006,-0.008,0.001,0.009,-1.579,-0.082,-2.749,52.93,93.6,40.584026,-3.551333,613.0,6,5,107.9,3.164
53.42,1,0.025,0.007,-0.023,0.016,0.009,-0.006,-1.578,-0.082,-2.751,52.93,93.6,40.584026,-3.551333,613.0,6,5,107.9,3.164
53.52,1,-0.0,-0.109,0.03,0.013,-0.035,-0.0,-1.578,-0.082,-2.753,52.93,93.6,40.584026,-3.551333,613.0,6,5,107.9,3.164
53.63,1,-0.034,0.0,-0.043,-0.01,-0.044,-0.005,-1.579,-0.083,-2.755,52.93,93.6,40.584026,-3.551333,613.0,6,5,107.9,3.164
53.72,1,-0.047,0.035,-0.01,-0.027,-0.0,-0.017,-1.58,-0.083,-2.756,52.93,93.6,40.584026,-3.551333,613.0,6,5,107.9,3.164
53.82,1,-0.049,-0.005,-0.003,-0.04,0.006,-0.01,-1.58,-0.083,-2.758,52.93,93.6,40.584026,-3.551333,613.0,6,5,107.9,3.164
53.92,1,0.009,-0.009,-0.01,-0.025,0.001,-0.006,-1.58,-0.082,-2.76,52.93,93.6,40.584026,-3.551333,613.0,6,5,107.9,3.164
54.03,1,-0.007,-0.034,-0.025,-0.005,-0.017,-0.012,-1.579,-0.079,-2.761,52.93,93.6,40.584026,-3.551333,613.0,6,5,107.9,3.164
54.13,1,-0.025,-0.048,0.007,-0.013,-0.035,-0.013,-1.577,-0.081,-2.762,53.89,93.5,40.583946,-3.551055,613.2,6,5,109.7,3.164
54.24,1,-0.003,-0.018,-0.006,-0.016,-0.027,-0.002,-1.577,-0.083,-2.764,53.89,93.5,40.583946,-3.551055,613.2,6,5,109.7,3.164
54.34,1,0.03,-0.019,-0.025,0.009,-0.026,-0.012,-1.575,-0.082,-2.765,53.89,93.5,40.583946,-3.551055,613.2,6,5,109.7,3.164
54.43,1,0.002,-0.034,-0.004,0.012,-0.027,-0.013,-1.573,-0.078,-2.766,53.89,93.5,40.583946,-3.551055,613.2,6,5,109.7,3.164
54.53,1,0.005,-0.031,-0.001,0.006,-0.028,-0.005,-1.573,-0.071,-2.768,53.89,93.5,40.583946,-3.551055,613.2,6,5,109.7,3.164
54.63,1,-0.021,0.013,-0.023,-0.007,-0.008,-0.014,-1.573,-0.065,-2.77,53.89,93.5,40.583946,-3.551055,613.2,6,5,109.7,3.164
54.75,1,-0.039,-0.005,-0.015,-0.025,-0.009,-0.013,-1.574,-0.063,-2.772,53.89,93.5,40.583946,-3.551055,613.2,6,5,109.7,3.164
54.83,1,-0.003,0.014,-0.043,-0.017,0.003,-0.025,-1.571,-0.061,-2.773,53.89,93.5,40.583946,-3.551055,613.2,6,5,109.7,3.164
54.93,1,-0.024,-0.003,-0.037,-0.016,-0.0,-0.037,-1.566,-0.061,-2.775,53.89,93.5,40.583946,-3.551055,613.2,6,5,109.7,3.164
55.03,1,-0.021,-0.027,-0.035,-0.024,-0.011,-0.033,-1.564,-0.068,-2.776,53.89,93.5,40.583946,-3.551055,613.2,6,5,109.7,3.164
55.13,1,-0.025,-0.022,-0.037,-0.022,-0.017,-0.035,-1.559,-0.067,-2.777,54.88,93.6,40.583858,-3.55077,613.4,6,5,111.4,3.516
55.26,1,-0.031,-0.016,-0.038,-0.025,-0.018,-0.038,-1.556,-0.063,-2.779,54.88,93.6,40.583858,-3.55077,613.4,6,5,111.4,3.516
55.33,1,-0.016,-0.017,-0.019,-0.027,-0.02,-0.029,-1.555,-0.062,-2.78,54.88,93.6,40.583858,-3.55077,613.4,6,5,111.4,3.516
55.43,1,0.001,0.009,-0.02,-0.009,-0.005,-0.023,-1.556,-0.067,-2.782,54.88,93.6,40.583858,-3.55077,613.4,6,5,111.4,3.516
55.54,1,-0.009,0.016,-0.019,-0.002,0.006,-0.019,-1.553,-0.067,-2.784,54.88,93.6,40.583858,-3.55077,613.4,6,5,111.4,3.516
55.63,1,-0.017,0.016,-0.02,-0.015,0.014,-0.024,-1.553,-0.065,-2.785,54.88,93.6,40.583858,-3.55077,613.4,6,5,111.4,3.516
55.73,1,-0.029,0.008,-0.007,-0.02,0.008,-0.012,-1.553,-0.065,-2.786,54.88,93.6,40.583858,-3.55077,613.4,6,5,111.4,3.516
55.83,1,-0.022,0.021,0.0,-0.026,0.011,-0.008,-1.552,-0.061,-2.788,54.88,93.6,40.583858,-3.55077,613.4,6,5,111.4,3.516
55.93,1,-0.011,-0.011,0.005,-0.02,0.008,-0.001,-1.552,-0.062,-2.79,54.88,93.6,40.583858,-3.55077,613.4,6,5,111.4,3.516
56.03,1,0.017,-0.022,0.02,-0.001,-0.005,0.01,-1.552,-0.063,-2.792,54.88,93.6,40.583858,-3.55077,613.4,6,5,111.4,3.516
56.13,1,-0.012,-0.014,-0.008,0.001,-0.014,0.006,-1.552,-0.063,-2.794,55.86,93.6,40.583767,-3.550485,613.6,8,5,113.9,4.219
56.23,1,-0.018,0.016,0.011,-0.011,-0.004,0.002,-1.553,-0.064,-2.795,55.86,93.6,40.583767,-3.550485,613.6,8,5,113.9,4.219
56.33,1,-0.002,0.0,0.031,-0.007,0.007,0.019,-1.553,-0.063,-2.796,55.86,93.6,40.583767,-3.550485,613.6,8,5,113.9,4.219
56.44,1,-0.022,-0.023,0.019,-0.014,-0.013,0.02,-1.553,-0.064,-2.798,55.86,93.6,40.583767,-3.550485,613.6,8,5,113.9,4.219
56.53,1,-0.004,-0.033,0.011,-0.007,-0.023,0.017,-1.553,-0.07,-2.799,55.86,93.6,40.583767,-3.550485,613.6,8,5,113.9,4.219
56.63,1,-0.007,-0.021,0.012,-0.005,-0.019,0.012,-1.553,-0.069,-2.8,55.86,93.6,40.583767,-3.550485,613.6,8,5,113.9,4.219
56.74,1,-0.027,-0.013,0.014,-0.016,-0.018,0.013,-1.555,-0.064,-2.801,55.86,93.6,40.583767,-3.550485,613.6,8,5,113.9,4.219
56.84,1,-0.056,0.005,-0.005,-0.042,-0.008,0.006,-1.556,-0.062,-2.802,55.86,93.6,40.583767,-3.550485,613.6,8,5,113.9,4.219
56.94,1,-0.037,0.037,0.01,-0.043,0.011,0.008,-1.559,-0.059,-2.803,55.86,93.6,40.583767,-3.550485,613.6,8,5,113.9,4.219
57.04,1,-0.009,-0.003,-0.005,-0.022,0.017,-0.002,-1.559,-0.059,-2.804,55.86,93.6,40.583767,-3.550485,613.6,8,5,113.9,4.219
57.14,1,-0.009,-0.03,0.01,-0.014,-0.01,0.005,-1.559,-0.059,-2.805,56.88,92.4,40.583675,-3.550195,613.7,8,5,114.6,3.164
57.24,1,-0.032,-0.029,0.014,-0.019,-0.022,0.01,-1.561,-0.057,-2.807,56.88,92.4,40.583675,-3.550195,613.7,8,5,114.6,3.164
57.34,1,-0.027,-0.023,0.008,-0.028,-0.027,0.008,-1.563,-0.05,-2.808,56.88,92.4,40.583675,-3.550195,613.7,8,5,114.6,3.164
57.44,1,-0.032,-0.002,-0.002,-0.03,-0.019,0.005,-1.563,-0.049,-2.809,56.88,92.4,40.583675,-3.550195,613.7,8,5,114.6,3.164
57.54,1,-0.035,-0.012,0.008,-0.031,-0.01,0.007,-1.563,-0.048,-2.81,56.88,92.4,40.583675,-3.550195,613.7,8,5,114.6,3.164
57.64,1,-0.002,0.023,0.001,-0.023,-0.001,0.004,-1.563,-0.048,-2.811,56.88,92.4,40.583675,-3.550195,613.7,8,5,114.6,3.164
57.74,1,-0.05,-0.006,-0.002,-0.023,0.009,0.0,-1.563,-0.049,-2.813,56.88,92.4,40.583675,-3.550195,613.7,8,5,114.6,3.164
57.84,1,0.004,0.007,0.01,-0.022,0.003,0.002,-1.562,-0.057,-2.814,56.88,92.4,40.583675,-3.550195,613.7,8,5,114.6,3.164
57.94,1,-0.016,0.028,-0.001,-0.01,0.014,0.006,-1.562,-0.064,-2.816,56.88,92.4,40.583675,-3.550195,613.7,8,5,114.6,3.164
58.04,1,-0.036,0.021,-0.0,-0.022,0.022,-0.004,-1.565,-0.061,-2.817,56.88,92.4,40.583675,-3.550195,613.7,8,5,114.6,3.164
58.14,1,-0.026,0.044,0.01,-0.031,0.031,0.009,-1.567,-0.063,-2.819,57.86,92.4,40.583584,-3.549939,614.0,6,5,116.4,2.461
58.24,1,0.003,-0.008,0.011,-0.02,0.018,0.009,-1.566,-0.068,-2.82,57.86,92.4,40.583584,-3.549939,614.0,6,5,116.4,2.461
58.35,1,0.003,-0.015,0.001,0.001,-0.0,0.005,-1.566,-0.068,-2.821,57.86,92.4,40.583584,-3.549939,614.0,6,5,116.4,2.461
58.44,1,-0.017,0.048,0.008,-0.011,0.006,0.005,-1.568,-0.065,-2.823,57.86,92.4,40.583584,-3.549939,614.0,6,5,116.4,2.461
58.54,1,0.007,0.055,0.001,-0.0,0.043,0.005,-1.569,-0.064,-2.824,57.86,92.4,40.583584,-3.549939,614.0,6,5,116.4,2.461
58.65,1,-0.023,0.012,-0.008,-0.005,0.035,-0.004,-1.568,-0.063,-2.826,57.86,92.4,40.583584,-3.549939,614.0,6,5,116.4,2.461
58.74,1,-0.022,0.014,0.014,-0.021,0.017,0.004,-1.568,-0.063,-2.827,57.86,92.4,40.583584,-3.549939,614.0,6,5,116.4,2.461
58.84,1,-0.001,0.011,-0.003,-0.013,0.011,0.005,-1.568,-0.06,-2.828,57.86,92.4,40.583584,-3.549939,614.0,6,5,116.4,2.461
58.95,1,-0.018,-0.017,0.001,-0.01,0.003,0.002,-1.567,-0.06,-2.829,57.86,92.4,40.583584,-3.549939,614.0,6,5,116.4,2.461
59.05,1,-0.029,-0.031,0.012,-0.016,-0.01,0.002,-1.568,-0.06,-2.83,57.86,92.4,40.583584,-3.549939,614.0,6,5,116.4,2.461
59.14,1,-0.029,-0.016,0.009,-0.028,-0.026,0.011,-1.569,-0.059,-2.83,58.89,92.3,40.583481,-3.549666,614.4,6,5,117.8,3.164
59.24,1,-0.008,-0.021,-0.005,-0.017,-0.014,0.004,-1.569,-0.059,-2.83,58.89,92.3,40.583481,-3.549666,614.4,6,5,117.8,3.164
59.34,1,-0.011,-0.026,0.003,-0.013,-0.021,0.002,-1.57,-0.058,-2.83,58.89,92.3,40.583481,-3.549666,614.4,6,5,117.8,3.164
59.45,1,-0.002,-0.045,0.022,-0.009,-0.029,0.008,-1.568,-0.061,-2.83,58.89,92.3,40.583481,-3.549666,614.4,6,5,117.8,3.164
59.55,1,0.014,-0.023,0.016,0.001,-0.033,0.015,-1.568,-0.063,-2.83,58.89,92.3,40.583481,-3.549666,614.4,6,5,117.8,3.164
59.65,1,0.012,-0.001,-0.004,0.012,-0.021,0.008,-1.565,-0.064,-2.831,58.89,92.3,40.583481,-3.549666,614.4,6,5,117.8,3.164
59.75,1,-0.015,-0.016,0.014,-0.002,-0.011,0.006,-1.566,-0.06,-2.831,58.89,92.3,40.583481,-3.549666,614.4,6,5,117.8,3.164
59.85,1,-0.029,-0.004,0.013,-0.016,-0.008,0.014,-1.568,-0.059,-2.832,58.89,92.3,40.583481,-3.549666,614.4,6,5,117.8,3.164
59.95,1,-0.037,-0.025,0.002,-0.025,-0.021,0.009,-1.567,-0.06,-2.833,58.89,92.3,40.583481,-3.549666,614.4,6,5,117.8,3.164
60.06,1,-0.012,0.001,0.003,-0.024,-0.01,0.005,-1.567,-0.059,-2.833,58.89,92.3,40.583481,-3.549666,614.4,6,5,117.8,3.164
60.16,1,-0.016,-0.018,0.009,-0.015,-0.008,0.007,-1.568,-0.06,-2.834,59.88,92.4,40.58337,-3.549402,614.4,6,5,119.9,3.516
60.26,1,-0.022,0.02,0.002,-0.019,-0.002,0.004,-1.57,-0.056,-2.835,59.88,92.4,40.58337,-3.549402,614.4,6,5,119.9,3.516
60.35,1,-0.008,0.063,-0.008,-0.018,0.028,-0.002,-1.571,-0.057,-2.835,59.88,92.4,40.58337,-3.549402,614.4,6,5,119.9,3.516
60.45,1,-0.015,0.028,0.013,-0.013,0.037,0.004,-1.571,-0.056,-2.836,59.88,92.4,40.58337,-3.549402,614.4,6,5,119.9,3.516
60.55,1,-0.012,0.012,-0.0,-0.014,0.024,0.004,-1.571,-0.056,-2.837,59.88,92.4,40.58337,-3.549402,614.4,6,5,119.9,3.516
60.65,1,-0.002,0.03,-0.0,-0.012,0.025,-0.002,-1.572,-0.056,-2.838,59.88,92.4,40.58337,-3.549402,614.4,6,5,119.9,3.516
60.76,1,0.011,0.008,0.009,0.002,0.016,0.008,-1.573,-0.059,-2.839,59.88,92.4,40.58337,-3.549402,614.4,6,5,119.9,3.516
60.85,1,0.017,-0.003,0.006,0.014,0.006,0.007,-1.571,-0.061,-2.84,59.88,92.4,40.58337,-3.549402,614.4,6,5,119.9,3.516
61.05,1,-0.017,-0.019,0.007,-0.02,-0.004,0.004,-1.57,-0.066,-2.841,59.88,92.4,40.58337,-3.549402,614.4,6,5,119.9,3.516
61.15,1,0.003,0.001,0.006,-0.004,-0.002,0.008,-1.571,-0.062,-2.842,59.88,92.4,40.58337,-3.549402,614.4,6,5,119.9,3.516
61.25,1,-0.034,-0.006,0.004,-0.016,-0.0,0.005,-1.572,-0.062,-2.843,60.87,93.0,40.583244,-3.549139,614.8,6,5,121.3,3.516
61.36,1,-0.035,-0.002,0.013,-0.032,-0.003,0.008,-1.573,-0.063,-2.843,60.87,93.0,40.583244,-3.549139,614.8,6,5,121.3,3.516
61.46,1,-0.0,0.016,0.007,-0.018,0.005,0.01,-1.574,-0.064,-2.844,60.87,93.0,40.583244,-3.549139,614.8,6,5,121.3,3.516
61.55,1,-0.007,-0.033,0.001,-0.006,-0.007,0.005,-1.574,-0.065,-2.845,60.87,93.0,40.583244,-3.549139,614.8,6,5,121.3,3.516
61.65,1,0.011,0.011,0.013,-0.002,-0.004,0.006,-1.575,-0.065,-2.845,60.87,93.0,40.583244,-3.549139,614.8,6,5,121.3,3.516
61.76,1,-0.0,0.016,0.009,0.001,0.003,0.01,-1.575,-0.063,-2.846,60.87,93.0,40.583244,-3.549139,614.8,6,5,121.3,3.516
61.85,1,-0.002,-0.009,0.016,-0.0,0.006,0.011,-1.576,-0.058,-2.846,60.87,93.0,40.583244,-3.549139,614.8,6,5,121.3,3.516
61.96,1,-0.01,-0.055,-0.002,-0.004,-0.026,0.006,-1.576,-0.051,-2.845,60.87,93.0,40.583244,-3.549139,614.8,6,5,121.3,3.516
62.06,1,-0.009,-0.024,-0.0,-0.009,-0.031,0.0,-1.576,-0.047,-2.845,60.87,93.0,40.583244,-3.549139,614.8,6,5,121.3,3.516
62.16,1,-0.014,-0.005,0.007,-0.01,-0.022,0.006,-1.577,-0.043,-2.845,60.87,93.0,40.583244,-3.549139,614.8,6,5,121.3,3.516
62.26,1,-0.023,-0.002,0.007,-0.017,-0.011,0.007,-1.577,-0.046,-2.845,61.86,93.1,40.583122,-3.548878,615.1,6,5,123.0,3.164
62.36,1,-0.002,0.02,-0.011,-0.01,0.001,-0.001,-1.577,-0.049,-2.846,61.86,93.1,40.583122,-3.548878,615.1,6,5,123.0,3.164
62.46,1,-0.057,-0.054,0.003,-0.026,-0.007,-0.002,-1.578,-0.051,-2.846,61.86,93.1,40.583122,-3.548878,615.1,6,5,123.0,3.164
62.56,1,-0.027,0.007,0.019,-0.035,-0.01,0.005,-1.579,-0.053,-2.846,61.86,93.1,40.583122,-3.548878,615.1,6,5,123.0,3.164
62.66,1,0.038,0.079,0.003,0.0,0.027,0.014,-1.578,-0.053,-2.846,61.86,93.1,40.583122,-3.548878,615.1,6,5,123.0,3.164
62.76,1,0.012,0.03,-0.021,0.008,0.034,-0.008,-1.578,-0.052,-2.847,61.86,93.1,40.583122,-3.548878,615.1,6,5,123.0,3.164
62.86,1,0.039,0.054,0.013,0.025,0.05,-0.003,-1.578,-0.052,-2.847,61.86,93.1,40.583122,-3.548878,615.1,6,5,123.0,3.164
62.96,1,0.01,-0.023,0.014,0.02,0.019,0.009,-1.578,-0.053,-2.849,61.86,93.1,40.583122,-3.548878,615.1,6,5,123.0,3.164
63.06,1,-0.035,-0.05,0.005,-0.003,-0.022,0.009,-1.578,-0.053,-2.849,61.86,93.1,40.583122,-3.548878,615.1,6,5,123.0,3.164
63.17,1,-0.058,-0.026,0.014,-0.034,-0.029,0.01,-1.579,-0.054,-2.85,61.86,93.1,40.583122,-3.548878,615.1,6,5,123.0,3.164
63.26,1,0.027,0.052,-0.001,-0.016,0.003,0.007,-1.579,-0.055,-2.85,62.86,93.5,40.582996,-3.548643,615.0,6,5,124.8,3.516
63.36,1,0.026,0.036,0.001,0.008,0.028,0.004,-1.578,-0.055,-2.851,62.86,93.5,40.582996,-3.548643,615.0,6,5,124.8,3.516
63.46,1,0.014,0.021,-0.004,0.019,0.024,-0.002,-1.579,-0.054,-2.852,62.86,93.5,40.582996,-3.548643,615.0,6,5,124.8,3.516
63.57,1,-0.049,0.029,0.008,-0.014,0.026,0.003,-1.581,-0.058,-2.853,62.86,93.5,40.582996,-3.548643,615.0,6,5,124.8,3.516
63.66,1,-0.009,0.002,0.008,-0.021,0.02,0.006,-1.583,-0.059,-2.853,62.86,93.5,40.582996,-3.548643,615.0,6,5,124.8,3.516
63.77,1,-0.005,-0.004,-0.001,-0.01,0.003,0.002,-1.582,-0.054,-2.854,62.86,93.5,40.582996,-3.548643,615.0,6,5,124.8,3.516
63.86,1,-0.0,0.041,0.002,-0.004,0.018,0.004,-1.584,-0.058,-2.855,62.86,93.5,40.582996,-3.548643,615.0,6,5,124.8,3.516
63.96,1,-0.0,0.043,-0.013,-0.002,0.031,-0.006,-1.585,-0.063,-2.856,62.86,93.5,40.582996,-3.548643,615.0,6,5,124.8,3.516
64.06,1,-0.039,-0.002,-0.007,-0.017,0.024,-0.007,-1.582,-0.059,-2.856,62.86,93.5,40.582996,-3.548643,615.0,6,5,124.8,3.516
64.17,1,-0.021,0.004,-0.003,-0.025,0.011,-0.006,-1.582,-0.057,-2.857,62.86,93.5,40.582996,-3.548643,615.0,6,5,124.8,3.516
64.26,1,-0.023,0.008,-0.015,-0.023,0.005,-0.01,-1.581,-0.056,-2.857,63.86,93.9,40.582867,-3.548389,615.6,6,5,126.2,3.164
64.37,1,-0.006,0.014,0.004,-0.016,0.011,-0.006,-1.581,-0.06,-2.858,63.86,93.9,40.582867,-3.548389,615.6,6,5,126.2,3.164
64.46,1,-0.012,0.031,-0.004,-0.01,0.02,-0.001,-1.579,-0.062,-2.859,63.86,93.9,40.582867,-3.548389,615.6,6,5,126.2,3.164
64.56,1,-0.001,0.008,-0.01,-0.007,0.017,-0.007,-1.579,-0.062,-2.86,63.86,93.9,40.582867,-3.548389,615.6,6,5,126.2,3.164
64.66,1,-0.023,-0.033,0.007,-0.009,-0.003,-0.004,-1.578,-0.066,-2.86,63.86,93.9,40.582867,-3.548389,615.6,6,5,126.2,3.164
64.77,1,-0.025,0.012,-0.011,-0.023,-0.006,-0.002,-1.576,-0.069,-2.861,63.86,93.9,40.582867,-3.548389,615.6,6,5,126.2,3.164
64.88,1,-0.021,0.029,-0.009,-0.026,0.013,-0.007,-1.575,-0.067,-2.861,63.86,93.9,40.582867,-3.548389,615.6,6,5,126.2,3.164
64.98,1,-0.012,0.033,-0.001,-0.017,0.02,-0.005,-1.575,-0.067,-2.862,63.86,93.9,40.582867,-3.548389,615.6,6,5,126.2,3.164
65.07,1,-0.033,0.037,-0.004,-0.02,0.034,-0.003,-1.575,-0.068,-2.863,63.86,93.9,40.582867,-3.548389,615.6,6,5,126.2,3.164
65.17,1,-0.026,0.037,-0.006,-0.024,0.038,-0.006,-1.576,-0.068,-2.865,63.86,93.9,40.582867,-3.548389,615.6,6,5,126.2,3.164
65.27,1,-0.029,0.009,-0.003,-0.031,0.022,-0.003,-1.577,-0.07,-2.866,64.89,94.0,40.582722,-3.54815,616.1,6,5,128.0,3.164
65.37,1,-0.021,-0.001,0.0,-0.029,0.01,-0.002,-1.577,-0.077,-2.867,64.89,94.0,40.582722,-3.54815,616.1,6,5,128.0,3.164
65.47,1,-0.001,-0.013,-0.003,-0.017,-0.001,-0.003,-1.576,-0.08,-2.868,64.89,94.0,40.582722,-3.54815,616.1,6,5,128.0,3.164
65.58,1,0.019,-0.0,0.018,0.005,-0.001,0.007,-1.574,-0.08,-2.869,64.89,94.0,40.582722,-3.54815,616.1,6,5,128.0,3.164
65.67,1,0.001,0.01,-0.01,0.008,0.0,0.003,-1.573,-0.081,-2.87,64.89,94.0,40.582722,-3.54815,616.1,6,5,128.0,3.164
65.77,1,-0.033,0.016,0.002,-0.008,0.01,-0.002,-1.572,-0.083,-2.871,64.89,94.0,40.582722,-3.54815,616.1,6,5,128.0,3.164
65.87,1,-0.019,0.001,0.002,-0.021,0.008,0.003,-1.573,-0.085,-2.872,64.89,94.0,40.582722,-3.54815,616.1,6,5,128.0,3.164
65.98,1,-0.025,-0.001,0.005,-0.024,0.003,0.003,-1.573,-0.083,-2.872,64.89,94.0,40.582722,-3.54815,616.1,6,5,128.0,3.164
66.07,1,-0.028,-0.016,0.01,-0.023,-0.004,0.003,-1.572,-0.078,-2.872,64.89,94.0,40.582722,-3.54815,616.1,6,5,128.0,3.164
66.17,1,-0.012,-0.027,0.012,-0.02,-0.016,0.01,-1.572,-0.076,-2.871,64.89,94.0,40.582722,-3.54815,616.1,6,5,128.0,3.164
66.27,1,-0.02,-0.033,0.006,-0.017,-0.029,0.01,-1.573,-0.076,-2.871,65.89,94.6,40.582569,-3.547907,616.7,6,5,129.7,3.516
66.37,1,0.009,-0.039,0.009,-0.007,-0.032,0.006,-1.573,-0.073,-2.87,65.89,94.6,40.582569,-3.547907,616.7,6,5,129.7,3.516
66.47,1,-0.022,-0.023,-0.003,-0.006,-0.026,0.003,-1.574,-0.069,-2.87,65.89,94.6,40.582569,-3.547907,616.7,6,5,129.7,3.516
66.58,1,-0.011,-0.013,0.002,-0.023,-0.028,0.002,-1.573,-0.066,-2.869,65.89,94.6,40.582569,-3.547907,616.7,6,5,129.7,3.516
66.68,1,0.03,-0.017,0.01,0.006,-0.017,0.007,-1.574,-0.065,-2.868,65.89,94.6,40.582569,-3.547907,616.7,6,5,129.7,3.516
66.77,1,0.005,-0.018,0.007,0.017,-0.02,0.007,-1.573,-0.063,-2.868,65.89,94.6,40.582569,-3.547907,616.7,6,5,129.7,3.516
66.87,1,0.006,-0.013,-0.007,0.004,-0.015,-0.001,-1.573,-0.06,-2.867,65.89,94.6,40.582569,-3.547907,616.7,6,5,129.7,3.516
66.97,1,0.031,-0.031,0.002,0.018,-0.024,0.002,-1.574,-0.058,-2.866,65.89,94.6,40.582569,-3.547907,616.7,6,5,129.7,3.516
67.07,1,-0.024,0.007,-0.03,0.001,-0.009,-0.012,-1.575,-0.057,-2.865,65.89,94.6,40.582569,-3.547907,616.7,6,5,129.7,3.516
67.17,1,-0.026,0.017,0.01,-0.016,0.001,-0.007,-1.574,-0.056,-2.864,65.89,94.6,40.582569,-3.547907,616.7,6,5,129.7,3.516
67.28,1,-0.015,-0.021,0.013,-0.014,-0.006,0.007,-1.573,-0.058,-2.863,66.88,94.9,40.582405,-3.547669,617.1,6,5,131.8,3.867
67.38,1,-0.012,-0.011,-0.008,-0.013,-0.003,-0.0,-1.573,-0.058,-2.862,66.88,94.9,40.582405,-3.547669,617.1,6,5,131.8,3.867
67.48,1,-0.012,-0.038,0.003,-0.012,-0.024,-0.001,-1.573,-0.059,-2.861,66.88,94.9,40.582405,-3.547669,617.1,6,5,131.8,3.867
67.58,1,-0.028,-0.058,0.019,-0.02,-0.037,0.007,-1.574,-0.056,-2.859,66.88,94.9,40.582405,-3.547669,617.1,6,5,131.8,3.867
67.68,1,-0.037,-0.061,-0.0,-0.035,-0.054,0.008,-1.576,-0.055,-2.858,66.88,94.9,40.582405,-3.547669,617.1,6,5,131.8,3.867
67.78,1,-0.047,-0.039,-0.012,-0.034,-0.048,0.0,-1.577,-0.053,-2.857,66.88,94.9,40.582405,-3.547669,617.1,6,5,131.8,3.867
67.88,1,-0.024,-0.019,-0.007,-0.035,-0.034,-0.005,-1.577,-0.053,-2.855,66.88,94.9,40.582405,-3.547669,617.1,6,5,131.8,3.867
67.98,1,-0.023,-0.03,0.006,-0.019,-0.031,-0.005,-1.579,-0.056,-2.854,66.88,94.9,40.582405,-3.547669,617.1,6,5,131.8,3.867
68.08,1,-0.006,0.025,-0.007,-0.025,-0.013,-0.002,-1.579,-0.058,-2.853,66.88,94.9,40.582405,-3.547669,617.1,6,5,131.8,3.867
68.18,1,0.019,0.016,-0.005,0.002,0.011,-0.005,-1.577,-0.06,-2.852,66.88,94.9,40.582405,-3.547669,617.1,6,5,131.8,3.867
68.29,1,0.031,0.016,0.0,0.02,0.016,-0.001,-1.576,-0.06,-2.851,67.89,95.0,40.582241,-3.54744,617.5,6,5,132.9,3.164
68.39,1,-0.018,-0.0,-0.01,0.01,0.016,-0.004,-1.576,-0.06,-2.849,67.89,95.0,40.582241,-3.54744,617.5,6,5,132.9,3.164
68.48,1,-0.072,-0.052,0.014,-0.036,-0.024,0.0,-1.577,-0.06,-2.848,67.89,95.0,40.582241,-3.54744,617.5,6,5,132.9,3.164
68.58,1,-0.027,0.012,-0.011,-0.041,-0.015,0.003,-1.576,-0.061,-2.846,67.89,95.0,40.582241,-3.54744,617.5,6,5,132.9,3.164
68.68,1,-0.031,0.004,-0.011,-0.031,-0.0,-0.007,-1.576,-0.061,-2.845,67.89,95.0,40.582241,-3.54744,617.5,6,5,132.9,3.164
68.78,1,0.011,0.011,0.004,-0.015,0.006,-0.007,-1.578,-0.055,-2.844,67.89,95.0,40.582241,-3.54744,617.5,6,5,132.9,3.164
68.88,1,-0.025,0.0,-0.015,-0.013,0.002,-0.004,-1.578,-0.054,-2.842,67.89,95.0,40.582241,-3.54744,617.5,6,5,132.9,3.164
68.98,1,-0.021,-0.017,-0.001,-0.02,-0.002,-0.008,-1.576,-0.056,-2.841,67.89,95.0,40.582241,-3.54744,617.5,6,5,132.9,3.164
69.1,1,-0.034,-0.022,0.005,-0.027,-0.013,-0.001,-1.576,-0.057,-2.839,67.89,95.0,40.582241,-3.54744,617.5,6,5,132.9,3.164
69.18,1,-0.015,-0.033,0.01,-0.027,-0.029,0.007,-1.576,-0.058,-2.837,67.89,95.0,40.582241,-3.54744,617.5,6,5,132.9,3.164
69.28,1,-0.021,-0.033,-0.004,-0.016,-0.029,0.003,-1.576,-0.053,-2.835,68.92,95.6,40.582081,-3.547202,617.6,6,5,133.6,1.758
69.38,1,-0.026,-0.015,-0.01,-0.021,-0.024,-0.004,-1.578,-0.043,-2.833,68.92,95.6,40.582081,-3.547202,617.6,6,5,133.6,1.758
69.49,1,-0.024,-0.006,-0.016,-0.024,-0.013,-0.01,-1.578,-0.04,-2.831,68.92,95.6,40.582081,-3.547202,617.6,6,5,133.6,1.758
69.58,1,-0.005,-0.008,-0.003,-0.023,-0.011,-0.01,-1.579,-0.041,-2.828,68.92,95.6,40.582081,-3.547202,617.6,6,5,133.6,1.758
69.68,1,0.003,-0.031,0.004,-0.002,-0.018,-0.001,-1.581,-0.043,-2.826,68.92,95.6,40.582081,-3.547202,617.6,6,5,133.6,1.758
69.78,1,0.01,-0.009,-0.008,0.006,-0.018,-0.003,-1.581,-0.038,-2.824,68.92,95.6,40.582081,-3.547202,617.6,6,5,133.6,1.758
69.88,1,0.006,-0.005,-0.023,0.005,-0.009,-0.012,-1.581,-0.032,-2.821,68.92,95.6,40.582081,-3.547202,617.6,6,5,133.6,1.758
69.98,1,-0.011,-0.042,0.004,-0.001,-0.023,-0.008,-1.582,-0.032,-2.819,68.92,95.6,40.582081,-3.547202,617.6,6,5,133.6,1.758
70.09,1,-0.025,-0.029,-0.004,-0.011,-0.031,-0.002,-1.584,-0.031,-2.816,68.92,95.6,40.582081,-3.547202,617.6,6,5,133.6,1.758
70.19,1,-0.06,-0.022,-0.014,-0.031,-0.023,-0.009,-1.583,-0.031,-2.814,68.92,95.6,40.582081,-3.547202,617.6,6,5,133.6,1.758
70.3,1,-0.026,0.011,-0.009,-0.041,-0.011,-0.011,-1.582,-0.032,-2.811,69.9,95.8,40.581913,-3.546971,617.8,6,5,134.3,1.406
70.39,1,0.019,-0.007,-0.031,-0.015,-0.004,-0.016,-1.577,-0.028,-2.809,69.9,95.8,40.581913,-3.546971,617.8,6,5,134.3,1.406
70.49,1,0.002,0.005,-0.014,-0.0,-0.002,-0.021,-1.574,-0.029,-2.807,69.9,95.8,40.581913,-3.546971,617.8,6,5,134.3,1.406
70.59,1,-0.017,-0.003,-0.021,-0.006,0.002,-0.021,-1.572,-0.032,-2.804,69.9,95.8,40.581913,-3.546971,617.8,6,5,134.3,1.406
70.69,1,-0.017,-0.001,-0.017,-0.009,-0.0,-0.015,-1.57,-0.032,-2.802,69.9,95.8,40.581913,-3.546971,617.8,6,5,134.3,1.406
70.79,1,-0.012,-0.017,-0.004,-0.014,-0.012,-0.017,-1.567,-0.032,-2.799,69.9,95.8,40.581913,-3.546971,617.8,6,5,134.3,1.406
70.89,1,-0.023,0.001,-0.008,-0.016,-0.006,-0.009,-1.567,-0.031,-2.797,69.9,95.8,40.581913,-3.546971,617.8,6,5,134.3,1.406
70.99,1,0.008,-0.004,-0.02,-0.01,-0.001,-0.007,-1.567,-0.03,-2.795,69.9,95.8,40.581913,-3.546971,617.8,6,5,134.3,1.406
71.09,1,-0.045,-0.005,-0.048,-0.016,-0.002,-0.031,-1.561,-0.029,-2.793,69.9,95.8,40.581913,-3.546971,617.8,6,5,134.3,1.406
71.19,1,-0.041,-0.015,-0.025,-0.037,-0.01,-0.034,-1.557,-0.028,-2.79,69.9,95.8,40.581913,-3.546971,617.8,6,5,134.3,1.406
71.29,1,0.025,0.007,-0.042,-0.016,-0.003,-0.034,-1.554,-0.029,-2.788,70.86,96.4,40.581741,-3.546746,618.4,6,5,134.6,1.055
71.39,1,0.003,-0.011,-0.037,0.007,-0.006,-0.039,-1.55,-0.027,-2.786,70.86,96.4,40.581741,-3.546746,618.4,6,5,134.6,1.055
71.5,1,-0.006,-0.003,-0.036,0.003,-0.009,-0.035,-1.547,-0.024,-2.784,70.86,96.4,40.581741,-3.546746,618.4,6,5,134.6,1.055
71.59,1,-0.016,0.014,-0.008,-0.01,0.006,-0.021,-1.546,-0.024,-2.781,70.86,96.4,40.581741,-3.546746,618.4,6,5,134.6,1.055
71.69,1,-0.009,0.003,-0.003,-0.014,0.01,-0.014,-1.545,-0.027,-2.779,70.86,96.4,40.581741,-3.546746,618.4,6,5,134.6,1.055
71.79,1,0.014,-0.01,0.007,-0.001,-0.005,-0.005,-1.542,-0.028,-2.777,70.86,96.4,40.581741,-3.546746,618.4,6,5,134.6,1.055
71.89,1,-0.001,-0.017,-0.012,0.005,-0.01,-0.001,-1.542,-0.027,-2.774,70.86,96.4,40.581741,-3.546746,618.4,6,5,134.6,1.055
71.99,1,0.009,-0.011,0.007,0.005,-0.007,-0.003,-1.541,-0.024,-2.772,70.86,96.4,40.581741,-3.546746,618.4,6,5,134.6,1.055
72.09,1,-0.009,0.004,-0.007,0.002,-0.008,0.0,-1.541,-0.025,-2.77,70.86,96.4,40.581741,-3.546746,618.4,6,5,134.6,1.055
72.19,1,-0.042,-0.015,0.011,-0.02,-0.006,0.001,-1.541,-0.025,-2.767,70.86,96.4,40.581741,-3.546746,618.4,6,5,134.6,1.055
72.29,1,-0.038,-0.042,0.019,-0.034,-0.024,0.011,-1.541,-0.025,-2.765,71.86,95.8,40.58157,-3.546527,619.2,6,5,135.0,0.703
72.39,1,0.012,-0.035,0.016,-0.016,-0.035,0.013,-1.541,-0.023,-2.762,71.86,95.8,40.58157,-3.546527,619.2,6,5,135.0,0.703
72.5,1,0.023,-0.014,0.002,0.009,-0.026,0.008,-1.542,-0.02,-2.76,71.86,95.8,40.58157,-3.546527,619.2,6,5,135.0,0.703
72.6,1,-0.009,-0.008,0.011,0.006,-0.014,0.01,-1.545,-0.017,-2.757,71.86,95.8,40.58157,-3.546527,619.2,6,5,135.0,0.703
72.7,1,-0.02,-0.016,0.008,-0.01,-0.016,0.008,-1.545,-0.02,-2.755,71.86,95.8,40.58157,-3.546527,619.2,6,5,135.0,0.703
72.79,1,-0.006,-0.001,0.019,-0.012,-0.008,0.013,-1.547,-0.018,-2.752,71.86,95.8,40.58157,-3.546527,619.2,6,5,135.0,0.703
72.9,1,0.009,-0.04,0.025,-0.003,-0.016,0.021,-1.548,-0.013,-2.749,71.86,95.8,40.58157,-3.546527,619.2,6,5,135.0,0.703
73.0,1,0.013,-0.023,0.005,0.005,-0.028,0.013,-1.549,-0.007,-2.746,71.86,95.8,40.58157,-3.546527,619.2,6,5,135.0,0.703
73.1,1,-0.012,-0.031,0.016,0.003,-0.026,0.01,-1.551,-0.007,-2.743,71.86,95.8,40.58157,-3.546527,619.2,6,5,135.0,0.703
73.2,1,-0.012,0.007,0.001,-0.009,-0.017,0.01,-1.552,-0.003,-2.74,71.86,95.8,40.58157,-3.546527,619.2,6,5,135.0,0.703
73.3,1,-0.027,0.018,-0.002,-0.015,0.005,0.002,-1.553,-0.001,-2.738,72.88,94.7,40.581402,-3.546313,619.5,6,5,135.0,0.352
73.4,1,-0.022,-0.014,0.017,-0.021,0.002,0.006,-1.554,-0.002,-2.735,72.88,94.7,40.581402,-3.546313,619.5,6,5,135.0,0.352
73.5,1,-0.004,0.004,0.017,-0.01,-0.003,0.014,-1.557,-0.001,-2.732,72.88,94.7,40.581402,-3.546313,619.5,6,5,135.0,0.352
73.6,1,-0.03,-0.002,0.019,-0.016,-0.002,0.021,-1.557,-0.0,-2.73,72.88,94.7,40.581402,-3.546313,619.5,6,5,135.0,0.352
73.7,1,-0.049,0.009,0.008,-0.039,0.003,0.012,-1.559,-0.003,-2.727,72.88,94.7,40.581402,-3.546313,619.5,6,5,135.0,0.352
73.81,1,0.011,0.037,0.02,-0.024,0.017,0.015,-1.563,-0.004,-2.725,72.88,94.7,40.581402,-3.546313,619.5,6,5,135.0,0.352
73.91,1,0.029,0.042,0.014,0.011,0.034,0.015,-1.563,-0.008,-2.723,72.88,94.7,40.581402,-3.546313,619.5,6,5,135.0,0.352
74.0,1,0.006,-0.006,-0.003,0.013,0.017,0.01,-1.563,-0.007,-2.721,72.88,94.7,40.581402,-3.546313,619.5,6,5,135.0,0.352
74.1,1,-0.029,0.015,0.007,-0.008,0.013,0.006,-1.563,-0.007,-2.718,72.88,94.7,40.581402,-3.546313,619.5,6,5,135.0,0.352
74.2,1,-0.051,0.045,-0.006,-0.027,0.03,-0.003,-1.563,-0.007,-2.716,72.88,94.7,40.581402,-3.546313,619.5,6,5,135.0,0.352
74.31,1,-0.04,0.025,0.02,-0.039,0.034,0.006,-1.564,-0.007,-2.715,73.86,94.5,40.581226,-3.546108,619.9,6,5,134.6,0.352
74.4,1,0.004,0.019,0.027,-0.021,0.02,0.02,-1.565,-0.007,-2.713,73.86,94.5,40.581226,-3.546108,619.9,6,5,134.6,0.352
74.5,1,-0.011,-0.002,-0.005,-0.012,0.012,0.01,-1.566,-0.009,-2.711,73.86,94.5,40.581226,-3.546108,619.9,6,5,134.6,0.352
74.6,1,-0.029,-0.025,0.003,-0.016,-0.005,0.005,-1.566,-0.012,-2.709,73.86,94.5,40.581226,-3.546108,619.9,6,5,134.6,0.352
74.7,1,-0.042,-0.027,0.017,-0.031,-0.023,0.008,-1.567,-0.013,-2.707,73.86,94.5,40.581226,-3.546108,619.9,6,5,134.6,0.352
74.8,1,-0.027,-0.014,0.004,-0.033,-0.022,0.011,-1.569,-0.007,-2.705,73.86,94.5,40.581226,-3.546108,619.9,6,5,134.6,0.352
74.9,1,-0.034,-0.03,0.004,-0.027,-0.018,0.005,-1.57,-0.006,-2.703,73.86,94.5,40.581226,-3.546108,619.9,6,5,134.6,0.352
75.01,1,-0.015,0.01,0.004,-0.028,-0.011,0.003,-1.57,-0.006,-2.7,73.86,94.5,40.581226,-3.546108,619.9,6,5,134.6,0.352
75.12,1,-0.001,-0.017,0.003,-0.013,-0.009,0.005,-1.569,-0.008,-2.698,73.86,94.5,40.581226,-3.546108,619.9,6,5,134.6,0.352
75.2,1,0.004,-0.017,0.0,-0.006,-0.013,0.0,-1.571,-0.004,-2.696,73.86,94.5,40.581226,-3.546108,619.9,6,5,134.6,0.352
75.3,1,-0.008,0.004,0.008,-0.003,-0.007,0.004,-1.571,0.002,-2.693,74.87,94.5,40.581062,-3.54589,620.3,4,5,134.3,0.703
75.4,1,-0.038,-0.003,-0.015,-0.019,-0.01,-0.0,-1.572,0.003,-2.691,74.87,94.5,40.581062,-3.54589,620.3,4,5,134.3,0.703
75.51,1,-0.032,0.014,0.006,-0.03,0.007,-0.001,-1.572,0.002,-2.688,74.87,94.5,40.581062,-3.54589,620.3,4,5,134.3,0.703
75.61,1,-0.025,0.034,0.0,-0.03,0.025,0.001,-1.574,0.002,-2.686,74.87,94.5,40.581062,-3.54589,620.3,4,5,134.3,0.703
75.71,1,-0.017,-0.029,0.011,-0.024,0.002,0.003,-1.575,0.004,-2.684,74.87,94.5,40.581062,-3.54589,620.3,4,5,134.3,0.703
75.81,1,-0.017,-0.031,-0.013,-0.019,-0.023,-0.004,-1.575,0.003,-2.681,74.87,94.5,40.581062,-3.54589,620.3,4,5,134.3,0.703
75.91,1,-0.023,0.003,0.003,-0.021,-0.011,-0.002,-1.576,0.003,-2.679,74.87,94.5,40.581062,-3.54589,620.3,4,5,134.3,0.703
76.02,1,0.002,0.019,-0.012,-0.012,0.007,-0.005,-1.576,0.001,-2.676,74.87,94.5,40.581062,-3.54589,620.3,4,5,134.3,0.703
76.11,1,0.008,0.01,0.003,0.002,0.008,-0.003,-1.577,-0.002,-2.674,74.87,94.5,40.581062,-3.54589,620.3,4,5,134.3,0.703
76.21,1,-0.013,0.006,0.004,-0.005,0.01,0.003,-1.577,-0.007,-2.672,74.87,94.5,40.581062,-3.54589,620.3,4,5,134.3,0.703
76.31,1,-0.014,0.004,0.002,-0.011,0.007,0.001,-1.577,-0.005,-2.67,75.86,94.8,40.580902,-3.545662,620.4,4,5,134.3,0.352
76.41,1,-0.01,-0.01,-0.012,-0.007,-0.002,-0.004,-1.575,-0.005,-2.668,75.86,94.8,40.580902,-3.545662,620.4,4,5,134.3,0.352
76.51,1,-0.032,-0.004,0.011,-0.017,-0.005,0.003,-1.577,-0.005,-2.666,75.86,94.8,40.580902,-3.545662,620.4,4,5,134.3,0.352
76.61,1,-0.009,-0.005,0.002,-0.018,-0.004,0.004,-1.579,-0.008,-2.664,75.86,94.8,40.580902,-3.545662,620.4,4,5,134.3,0.352
76.72,1,-0.0,-0.01,0.008,-0.011,-0.008,0.003,-1.577,-0.01,-2.661,75.86,94.8,40.580902,-3.545662,620.4,4,5,134.3,0.352
76.81,1,0.006,0.005,-0.013,0.003,-0.004,-0.001,-1.577,-0.01,-2.659,75.86,94.8,40.580902,-3.545662,620.4,4,5,134.3,0.352
76.91,1,-0.037,-0.015,0.004,-0.019,-0.013,-0.001,-1.578,-0.008,-2.657,75.86,94.8,40.580902,-3.545662,620.4,4,5,134.3,0.352
77.01,1,-0.045,0.028,-0.031,-0.027,0.006,-0.011,-1.578,-0.011,-2.655,75.86,94.8,40.580902,-3.545662,620.4,4,5,134.3,0.352
77.11,1,-0.014,0.033,-0.014,-0.036,0.03,-0.019,-1.579,-0.011,-2.653,75.86,94.8,40.580902,-3.545662,620.4,4,5,134.3,0.352
77.21,1,0.003,-0.005,-0.01,-0.011,0.012,-0.013,-1.578,-0.01,-2.651,75.86,94.8,40.580902,-3.545662,620.4,4,5,134.3,0.352
77.31,1,-0.019,-0.05,0.017,-0.007,-0.011,-0.004,-1.578,-0.011,-2.649,76.86,95.1,40.580734,-3.545431,620.5,6,5,133.6,0.703
77.41,1,-0.002,-0.029,0.004,-0.011,-0.033,0.008,-1.578,-0.011,-2.646,76.86,95.1,40.580734,-3.545431,620.5,6,5,133.6,0.703
77.51,1,-0.018,-0.02,0.001,-0.015,-0.028,0.001,-1.577,-0.013,-2.644,76.86,95.1,40.580734,-3.545431,620.5,6,5,133.6,0.703
77.61,1,-0.013,-0.028,-0.007,-0.011,-0.028,0.002,-1.579,-0.012,-2.642,76.86,95.1,40.580734,-3.545431,620.5,6,5,133.6,0.703
77.71,1,-0.034,0.006,0.001,-0.021,-0.015,-0.002,-1.579,-0.006,-2.64,76.86,95.1,40.580734,-3.545431,620.5,6,5,133.6,0.703
77.81,1,-0.01,0.005,-0.001,-0.018,0.003,-0.004,-1.58,0.0,-2.638,76.86,95.1,40.580734,-3.545431,620.5,6,5,133.6,0.703
77.91,1,-0.015,0.008,-0.014,-0.011,-0.0,-0.003,-1.581,0.002,-2.636,76.86,95.1,40.580734,-3.545431,620.5,6,5,133.6,0.703
78.01,1,-0.004,-0.013,-0.002,-0.011,0.001,-0.005,-1.582,0.004,-2.634,76.86,95.1,40.580734,-3.545431,620.5,6,5,133.6,0.703
78.11,1,-0.038,-0.013,-0.002,-0.022,-0.008,-0.005,-1.583,0.003,-2.632,76.86,95.1,40.580734,-3.545431,620.5,6,5,133.6,0.703
78.22,1,-0.019,-0.008,-0.009,-0.032,-0.007,-0.008,-1.582,0.003,-2.63,76.86,95.1,40.580734,-3.545431,620.5,6,5,133.6,0.703
78.31,1,-0.006,-0.016,-0.003,-0.014,-0.015,-0.005,-1.582,0.004,-2.628,77.9,95.4,40.580566,-3.545199,620.8,6,5,133.2,1.055
78.42,1,0.002,0.027,-0.01,-0.001,0.002,-0.003,-1.583,0.003,-2.626,77.9,95.4,40.580566,-3.545199,620.8,6,5,133.2,1.055
78.52,1,0.004,0.026,-0.014,-0.004,0.017,-0.011,-1.585,-0.002,-2.624,77.9,95.4,40.580566,-3.545199,620.8,6,5,133.2,1.055
78.63,1,0.007,0.007,-0.011,0.004,0.018,-0.012,-1.587,-0.002,-2.622,77.9,95.4,40.580566,-3.545199,620.8,6,5,133.2,1.055
78.72,1,-0.012,-0.021,-0.015,-0.003,0.0,-0.013,-1.587,-0.002,-2.62,77.9,95.4,40.580566,-3.545199,620.8,6,5,133.2,1.055
78.82,1,-0.016,-0.015,-0.028,-0.01,-0.016,-0.016,-1.586,-0.002,-2.618,77.9,95.4,40.580566,-3.545199,620.8,6,5,133.2,1.055
78.92,1,-0.025,0.008,-0.047,-0.015,-0.005,-0.036,-1.58,-0.002,-2.616,77.9,95.4,40.580566,-3.545199,620.8,6,5,133.2,1.055
79.02,1,-0.033,-0.009,-0.044,-0.028,-0.002,-0.039,-1.573,-0.003,-2.613,77.9,95.4,40.580566,-3.545199,620.8,6,5,133.2,1.055
79.12,1,-0.023,-0.007,-0.07,-0.03,-0.008,-0.05,-1.567,0.0,-2.611,77.9,95.4,40.580566,-3.545199,620.8,6,5,133.2,1.055
79.22,1,-0.01,-0.035,-0.034,-0.017,-0.018,-0.05,-1.562,-0.002,-2.609,77.9,95.4,40.580566,-3.545199,620.8,6,5,133.2,1.055
79.32,1,0.0,-0.031,-0.024,-0.01,-0.024,-0.038,-1.56,-0.001,-2.607,78.87,95.4,40.580402,-3.544975,621.3,6,5,132.5,1.055
79.42,1,-0.027,-0.002,-0.017,-0.016,-0.017,-0.025,-1.559,0.003,-2.605,78.87,95.4,40.580402,-3.544975,621.3,6,5,132.5,1.055
79.52,1,-0.007,0.015,-0.014,-0.013,-0.003,-0.021,-1.558,0.006,-2.603,78.87,95.4,40.580402,-3.544975,621.3,6,5,132.5,1.055
79.62,1,0.004,0.006,-0.012,-0.006,0.007,-0.015,-1.558,0.006,-2.601,78.87,95.4,40.580402,-3.544975,621.3,6,5,132.5,1.055
79.72,1,-0.011,0.047,-0.032,-0.005,0.023,-0.02,-1.558,0.005,-2.6,78.87,95.4,40.580402,-3.544975,621.3,6,5,132.5,1.055
79.83,1,0.008,-0.015,0.014,0.0,0.009,-0.01,-1.558,0.009,-2.599,78.87,95.4,40.580402,-3.544975,621.3,6,5,132.5,1.055
79.92,1,-0.011,0.024,-0.011,-0.002,0.015,-0.005,-1.557,0.006,-2.597,78.87,95.4,40.580402,-3.544975,621.3,6,5,132.5,1.055
80.02,1,-0.019,0.022,-0.002,-0.015,0.015,-0.005,-1.557,0.008,-2.596,78.87,95.4,40.580402,-3.544975,621.3,6,5,132.5,1.055
80.12,1,-0.005,-0.008,0.022,-0.006,0.013,0.004,-1.557,0.008,-2.594,78.87,95.4,40.580402,-3.544975,621.3,6,5,132.5,1.055
80.23,1,-0.002,-0.002,-0.005,-0.005,0.005,0.006,-1.557,0.008,-2.593,78.87,95.4,40.580402,-3.544975,621.3,6,5,132.5,1.055
80.33,1,-0.031,-0.018,0.0,-0.015,-0.013,0.002,-1.557,0.008,-2.591,79.86,95.2,40.580238,-3.544737,621.8,6,5,132.2,1.055
80.42,1,-0.046,0.027,0.012,-0.034,0.006,0.007,-1.558,0.008,-2.59,79.86,95.2,40.580238,-3.544737,621.8,6,5,132.2,1.055
80.52,1,-0.013,0.052,0.013,-0.028,0.027,0.01,-1.558,0.007,-2.589,79.86,95.2,40.580238,-3.544737,621.8,6,5,132.2,1.055
80.62,1,0.042,0.084,0.008,0.011,0.05,0.013,-1.557,0.009,-2.587,79.86,95.2,40.580238,-3.544737,621.8,6,5,132.2,1.055
80.72,1,0.032,0.002,0.014,0.024,0.041,0.011,-1.561,0.012,-2.586,79.86,95.2,40.580238,-3.544737,621.8,6,5,132.2,1.055
80.83,1,-0.019,0.008,-0.002,0.004,0.022,0.007,-1.561,0.012,-2.585,79.86,95.2,40.580238,-3.544737,621.8,6,5,132.2,1.055
80.93,1,-0.015,0.001,-0.005,-0.008,0.013,-0.005,-1.561,0.011,-2.584,79.86,95.2,40.580238,-3.544737,621.8,6,5,132.2,1.055
81.02,1,-0.024,0.026,0.004,-0.013,0.011,-0.0,-1.561,0.011,-2.584,79.86,95.2,40.580238,-3.544737,621.8,6,5,132.2,1.055
81.13,1,-0.008,0.045,-0.009,-0.015,0.031,0.0,-1.56,0.012,-2.583,79.86,95.2,40.580238,-3.544737,621.8,6,5,132.2,1.055
81.23,1,-0.03,0.052,0.006,-0.021,0.041,-0.001,-1.561,0.009,-2.583,79.86,95.2,40.580238,-3.544737,621.8,6,5,132.2,1.055
81.33,1,-0.01,0.018,0.004,-0.02,0.035,0.002,-1.56,-0.001,-2.582,80.86,93.8,40.580074,-3.544507,621.9,6,5,131.1,1.406
81.44,1,0.01,0.04,0.008,-0.002,0.035,0.005,-1.56,-0.004,-2.581,80.86,93.8,40.580074,-3.544507,621.9,6,5,131.1,1.406
81.53,1,0.005,0.017,-0.001,0.002,0.026,0.003,-1.559,-0.004,-2.579,80.86,93.8,40.580074,-3.544507,621.9,6,5,131.1,1.406
81.63,1,-0.013,0.019,0.006,0.001,0.02,0.006,-1.559,-0.004,-2.578,80.86,93.8,40.580074,-3.544507,621.9,6,5,131.1,1.406
81.73,1,-0.05,-0.004,-0.002,-0.026,0.015,-0.002,-1.559,-0.007,-2.577,80.86,93.8,40.580074,-3.544507,621.9,6,5,131.1,1.406
81.83,1,-0.07,-0.011,-0.024,-0.052,-0.006,-0.006,-1.563,-0.007,-2.575,80.86,93.8,40.580074,-3.544507,621.9,6,5,131.1,1.406
81.93,1,-0.062,-0.041,0.026,-0.056,-0.021,-0.0,-1.565,-0.003,-2.574,80.86,93.8,40.580074,-3.544507,621.9,6,5,131.1,1.406
82.03,1,0.002,-0.02,0.007,-0.041,-0.021,0.007,-1.565,-0.001,-2.572,80.86,93.8,40.580074,-3.544507,621.9,6,5,131.1,1.406
82.13,1,0.03,-0.027,0.003,0.003,-0.026,0.011,-1.564,0.002,-2.569,80.86,93.8,40.580074,-3.544507,621.9,6,5,131.1,1.406
82.23,1,0.038,-0.038,0.016,0.034,-0.032,0.013,-1.563,0.004,-2.567,80.86,93.8,40.580074,-3.544507,621.9,6,5,131.1,1.406
82.33,1,-0.029,-0.042,0.002,-0.0,-0.032,0.004,-1.561,0.007,-2.564,81.86,93.5,40.57991,-3.544279,622.1,6,5,130.8,1.406
82.43,1,-0.024,-0.018,-0.0,-0.02,-0.034,0.008,-1.563,0.006,-2.562,81.86,93.5,40.57991,-3.544279,622.1,6,5,130.8,1.406
82.53,1,0.01,0.014,-0.001,-0.015,-0.014,-0.002,-1.565,0.0,-2.56,81.86,93.5,40.57991,-3.544279,622.1,6,5,130.8,1.406
82.64,1,0.012,0.038,0.011,0.007,0.017,0.002,-1.564,-0.001,-2.558,81.86,93.5,40.57991,-3.544279,622.1,6,5,130.8,1.406
82.73,1,-0.001,-0.003,-0.003,0.009,0.022,0.002,-1.563,-0.0,-2.556,81.86,93.5,40.57991,-3.544279,622.1,6,5,130.8,1.406
82.83,1,-0.023,-0.018,0.018,-0.012,-0.012,0.008,-1.564,0.001,-2.554,81.86,93.5,40.57991,-3.544279,622.1,6,5,130.8,1.406
82.93,1,0.027,0.024,0.013,0.002,0.004,0.013,-1.563,0.002,-2.553,81.86,93.5,40.57991,-3.544279,622.1,6,5,130.8,1.406
83.03,1,-0.013,0.021,-0.006,0.004,0.013,0.006,-1.562,0.002,-2.551,81.86,93.5,40.57991,-3.544279,622.1,6,5,130.8,1.406
83.13,1,-0.041,0.014,-0.004,-0.016,0.018,-0.001,-1.562,0.002,-2.55,81.86,93.5,40.57991,-3.544279,622.1,6,5,130.8,1.406
83.24,1,-0.016,0.003,0.025,-0.024,0.013,0.009,-1.563,-0.002,-2.549,81.86,93.5,40.57991,-3.544279,622.1,6,5,130.8,1.406
83.34,1,0.006,0.033,0.014,-0.012,0.011,0.016,-1.565,-0.006,-2.549,82.88,93.3,40.579758,-3.544057,622.5,6,5,130.1,1.055
83.44,1,0.015,0.03,0.023,0.007,0.036,0.017,-1.564,-0.013,-2.549,82.88,93.3,40.579758,-3.544057,622.5,6,5,130.1,1.055
83.54,1,0.044,-0.001,0.025,0.021,0.015,0.023,-1.564,-0.02,-2.549,82.88,93.3,40.579758,-3.544057,622.5,6,5,130.1,1.055
83.64,1,0.025,0.001,0.01,0.031,0.005,0.019,-1.564,-0.021,-2.548,82.88,93.3,40.579758,-3.544057,622.5,6,5,130.1,1.055
83.73,1,0.004,-0.003,0.012,0.016,-0.003,0.012,-1.565,-0.023,-2.548,82.88,93.3,40.579758,-3.544057,622.5,6,5,130.1,1.055
83.84,1,-0.006,-0.005,0.015,0.006,-0.004,0.013,-1.564,-0.021,-2.548,82.88,93.3,40.579758,-3.544057,622.5,6,5,130.1,1.055
83.94,1,-0.046,0.0,0.012,-0.014,0.004,0.012,-1.567,-0.019,-2.547,82.88,93.3,40.579758,-3.544057,622.5,6,5,130.1,1.055
84.04,1,-0.081,-0.038,0.027,-0.054,-0.014,0.023,-1.568,-0.013,-2.546,82.88,93.3,40.579758,-3.544057,622.5,6,5,130.1,1.055
84.14,1,-0.014,-0.026,0.007,-0.048,-0.034,0.015,-1.567,-0.012,-2.545,82.88,93.3,40.579758,-3.544057,622.5,6,5,130.1,1.055
84.24,1,0.036,-0.002,0.016,0.001,-0.014,0.012,-1.567,-0.012,-2.544,82.88,93.3,40.579758,-3.544057,622.5,6,5,130.1,1.055
84.35,1,0.027,-0.012,0.013,0.022,-0.008,0.014,-1.567,-0.012,-2.543,83.9,93.1,40.579597,-3.543824,623.0,6,5,129.0,1.758
84.44,1,-0.013,-0.045,0.027,0.005,-0.031,0.02,-1.568,-0.01,-2.543,83.9,93.1,40.579597,-3.543824,623.0,6,5,129.0,1.758
84.55,1,-0.02,-0.06,0.019,-0.01,-0.039,0.022,-1.568,-0.01,-2.542,83.9,93.1,40.579597,-3.543824,623.0,6,5,129.0,1.758
84.64,1,0.004,-0.011,0.008,-0.005,-0.033,0.014,-1.567,-0.011,-2.541,83.9,93.1,40.579597,-3.543824,623.0,6,5,129.0,1.758
84.74,1,0.013,0.035,0.002,0.004,-0.007,0.01,-1.566,-0.011,-2.54,83.9,93.1,40.579597,-3.543824,623.0,6,5,129.0,1.758
84.84,1,-0.027,-0.006,-0.004,-0.01,0.007,-0.0,-1.566,-0.009,-2.538,83.9,93.1,40.579597,-3.543824,623.0,6,5,129.0,1.758
84.94,1,-0.027,-0.021,0.019,-0.018,0.002,0.007,-1.566,-0.007,-2.537,83.9,93.1,40.579597,-3.543824,623.0,6,5,129.0,1.758
85.05,1,-0.034,-0.055,0.028,-0.028,-0.032,0.018,-1.567,-0.007,-2.535,83.9,93.1,40.579597,-3.543824,623.0,6,5,129.0,1.758
85.14,1,-0.014,-0.006,0.003,-0.024,-0.036,0.015,-1.566,-0.007,-2.533,83.9,93.1,40.579597,-3.543824,623.0,6,5,129.0,1.758
85.24,1,0.009,0.009,-0.001,-0.007,-0.003,0.004,-1.566,-0.006,-2.531,83.9,93.1,40.579597,-3.543824,623.0,6,5,129.0,1.758
85.34,1,-0.026,-0.013,0.005,-0.01,-0.006,0.002,-1.567,-0.006,-2.53,84.91,93.6,40.579449,-3.543588,623.1,6,5,129.0,1.055
85.44,1,0.004,0.001,0.009,-0.006,-0.003,0.005,-1.57,-0.003,-2.528,84.91,93.6,40.579449,-3.543588,623.1,6,5,129.0,1.055
85.54,1,-0.002,-0.026,-0.001,-0.002,-0.01,0.007,-1.572,-0.005,-2.526,84.91,93.6,40.579449,-3.543588,623.1,6,5,129.0,1.055
85.64,1,0.004,-0.032,0.001,-0.003,-0.022,0.0,-1.572,-0.004,-2.524,84.91,93.6,40.579449,-3.543588,623.1,6,5,129.0,1.055
85.75,1,-0.015,-0.021,0.001,-0.003,-0.028,0.002,-1.573,-0.001,-2.522,84.91,93.6,40.579449,-3.543588,623.1,6,5,129.0,1.055
85.84,1,-0.057,-0.041,0.006,-0.027,-0.027,0.005,-1.574,-0.0,-2.521,84.91,93.6,40.579449,-3.543588,623.1,6,5,129.0,1.055
85.94,1,-0.052,-0.047,0.012,-0.046,-0.04,0.005,-1.574,-0.001,-2.519,84.91,93.6,40.579449,-3.543588,623.1,6,5,129.0,1.055
86.04,1,-0.006,-0.01,0.004,-0.036,-0.039,0.009,-1.574,-0.003,-2.517,84.91,93.6,40.579449,-3.543588,623.1,6,5,129.0,1.055
86.14,1,-0.005,-0.046,-0.0,-0.016,-0.026,0.001,-1.574,-0.003,-2.516,84.91,93.6,40.579449,-3.543588,623.1,6,5,129.0,1.055
86.24,1,0.031,-0.014,0.01,0.007,-0.024,0.002,-1.574,-0.003,-2.514,84.91,93.6,40.579449,-3.543588,623.1,6,5,129.0,1.055
86.34,1,0.001,-0.014,-0.01,0.012,-0.02,0.002,-1.573,-0.003,-2.513,85.87,94.1,40.579311,-3.543336,623.6,6,5,128.0,1.055
86.45,1,-0.002,0.0,0.008,0.004,-0.012,0.004,-1.574,-0.004,-2.512,85.87,94.1,40.579311,-3.543336,623.6,6,5,128.0,1.055
86.55,1,-0.034,0.011,-0.006,-0.011,-0.0,0.002,-1.575,-0.004,-2.511,85.87,94.1,40.579311,-3.543336,623.6,6,5,128.0,1.055
86.65,1,0.003,0.029,-0.011,-0.014,0.015,-0.012,-1.577,-0.004,-2.511,85.87,94.1,40.579311,-3.543336,623.6,6,5,128.0,1.055
86.75,1,0.029,0.016,0.005,0.011,0.019,-0.002,-1.578,-0.004,-2.51,85.87,94.1,40.579311,-3.543336,623.6,6,5,128.0,1.055
86.85,1,-0.019,0.007,0.01,0.01,0.013,0.007,-1.577,-0.002,-2.509,85.87,94.1,40.579311,-3.543336,623.6,6,5,128.0,1.055
86.95,1,-0.016,-0.003,0.007,-0.015,0.007,0.005,-1.576,-0.004,-2.509,85.87,94.1,40.579311,-3.543336,623.6,6,5,128.0,1.055
87.05,1,-0.035,-0.009,0.002,-0.028,-0.001,0.001,-1.574,-0.011,-2.508,85.87,94.1,40.579311,-3.543336,623.6,6,5,128.0,1.055
87.15,1,0.011,-0.004,0.009,-0.01,-0.008,0.008,-1.573,-0.013,-2.508,85.87,94.1,40.579311,-3.543336,623.6,6,5,128.0,1.055
87.25,1,-0.045,-0.003,-0.012,-0.023,-0.007,0.001,-1.572,-0.016,-2.508,85.87,94.1,40.579311,-3.543336,623.6,6,5,128.0,1.055
87.35,1,-0.046,0.005,0.004,-0.042,0.004,-0.005,-1.572,-0.019,-2.507,86.87,94.3,40.579174,-3.543081,624.0,6,5,126.6,2.461
87.45,1,-0.023,0.045,0.002,-0.033,0.016,0.004,-1.574,-0.02,-2.508,86.87,94.3,40.579174,-3.543081,624.0,6,5,126.6,2.461
87.55,1,-0.013,0.032,0.004,-0.019,0.029,0.002,-1.573,-0.024,-2.508,86.87,94.3,40.579174,-3.543081,624.0,6,5,126.6,2.461
87.65,1,-0.007,0.044,-0.001,-0.011,0.039,0.001,-1.574,-0.023,-2.509,86.87,94.3,40.579174,-3.543081,624.0,6,5,126.6,2.461
87.75,1,0.035,0.028,-0.003,0.014,0.035,-0.002,-1.574,-0.023,-2.509,86.87,94.3,40.579174,-3.543081,624.0,6,5,126.6,2.461
87.85,1,-0.006,0.015,0.01,0.007,0.025,0.004,-1.574,-0.023,-2.51,86.87,94.3,40.579174,-3.543081,624.0,6,5,126.6,2.461
87.95,1,-0.033,-0.003,0.013,-0.011,0.015,0.009,-1.575,-0.022,-2.51,86.87,94.3,40.579174,-3.543081,624.0,6,5,126.6,2.461
88.05,1,-0.023,0.002,0.006,-0.017,0.003,0.009,-1.574,-0.022,-2.51,86.87,94.3,40.579174,-3.543081,624.0,6,5,126.6,2.461
88.16,1,-0.026,0.002,0.003,-0.031,0.002,0.006,-1.574,-0.023,-2.511,86.87,94.3,40.579174,-3.543081,624.0,6,5,126.6,2.461
88.25,1,-0.039,-0.001,-0.021,-0.026,0.001,-0.004,-1.575,-0.023,-2.511,86.87,94.3,40.579174,-3.543081,624.0,6,5,126.6,2.461
88.35,1,-0.002,0.004,0.001,-0.027,0.004,-0.008,-1.576,-0.023,-2.511,87.87,94.8,40.579037,-3.542819,624.2,6,5,125.9,2.109
88.45,1,0.024,0.025,0.012,0.001,0.015,0.003,-1.576,-0.022,-2.511,87.87,94.8,40.579037,-3.542819,624.2,6,5,125.9,2.109
88.56,1,-0.032,0.004,-0.002,-0.005,0.012,0.001,-1.575,-0.02,-2.511,87.87,94.8,40.579037,-3.542819,624.2,6,5,125.9,2.109
88.65,1,-0.042,-0.052,0.002,-0.025,-0.018,0.002,-1.574,-0.019,-2.51,87.87,94.8,40.579037,-3.542819,624.2,6,5,125.9,2.109
88.75,1,0.01,-0.056,0.005,-0.017,-0.041,0.004,-1.575,-0.021,-2.509,87.87,94.8,40.579037,-3.542819,624.2,6,5,125.9,2.109
88.85,1,-0.016,-0.048,-0.002,-0.009,-0.048,0.0,-1.573,-0.017,-2.508,87.87,94.8,40.579037,-3.542819,624.2,6,5,125.9,2.109
88.95,1,-0.035,-0.036,0.015,-0.027,-0.051,0.009,-1.574,-0.015,-2.507,87.87,94.8,40.579037,-3.542819,624.2,6,5,125.9,2.109
89.05,1,-0.011,-0.052,0.018,-0.019,-0.045,0.011,-1.574,-0.014,-2.505,87.87,94.8,40.579037,-3.542819,624.2,6,5,125.9,2.109
89.16,1,-0.006,-0.024,-0.0,-0.01,-0.035,0.008,-1.577,-0.009,-2.504,87.87,94.8,40.579037,-3.542819,624.2,6,5,125.9,2.109
89.25,1,-0.006,0.013,-0.015,-0.009,-0.013,-0.001,-1.578,-0.003,-2.502,87.87,94.8,40.579037,-3.542819,624.2,6,5,125.9,2.109
89.37,1,-0.013,0.01,-0.023,-0.009,0.005,-0.016,-1.577,-0.002,-2.501,88.87,95.3,40.578896,-3.542566,624.5,6,5,125.9,0.703
89.46,1,-0.002,-0.009,-0.004,-0.005,0.003,-0.014,-1.578,-0.002,-2.5,88.87,95.3,40.578896,-3.542566,624.5,6,5,125.9,0.703
89.56,1,-0.023,-0.008,-0.01,-0.014,-0.008,-0.008,-1.578,-0.002,-2.499,88.87,95.3,40.578896,-3.542566,624.5,6,5,125.9,0.703
89.66,1,-0.014,-0.027,0.004,-0.017,-0.016,-0.003,-1.578,-0.002,-2.497,88.87,95.3,40.578896,-3.542566,624.5,6,5,125.9,0.703
89.76,1,-0.003,-0.046,0.007,-0.013,-0.033,0.001,-1.578,-0.005,-2.496,88.87,95.3,40.578896,-3.542566,624.5,6,5,125.9,0.703
89.86,1,-0.027,-0.029,-0.01,-0.011,-0.037,-0.003,-1.577,-0.007,-2.494,88.87,95.3,40.578896,-3.542566,624.5,6,5,125.9,0.703
89.96,1,-0.013,0.013,-0.008,-0.012,-0.01,-0.007,-1.576,-0.0,-2.493,88.87,95.3,40.578896,-3.542566,624.5,6,5,125.9,0.703
90.06,1,-0.023,0.01,-0.0,-0.02,0.008,-0.003,-1.577,0.007,-2.492,88.87,95.3,40.578896,-3.542566,624.5,6,5,125.9,0.703
90.16,1,-0.012,0.003,-0.0,-0.017,0.002,0.002,-1.576,0.007,-2.49,88.87,95.3,40.578896,-3.542566,624.5,6,5,125.9,0.703
90.26,1,0.0,-0.031,-0.009,-0.014,-0.014,-0.005,-1.576,0.008,-2.489,88.87,95.3,40.578896,-3.542566,624.5,6,5,125.9,0.703
90.36,1,0.004,-0.05,0.003,-0.001,-0.032,-0.004,-1.576,0.008,-2.487,89.87,95.5,40.578766,-3.542305,625.1,6,5,125.2,0.703
90.46,1,0.014,-0.056,-0.004,0.01,-0.039,-0.003,-1.576,0.009,-2.486,89.87,95.5,40.578766,-3.542305,625.1,6,5,125.2,0.703
90.56,1,-0.013,0.013,-0.033,-0.009,-0.021,-0.017,-1.576,0.009,-2.485,89.87,95.5,40.578766,-3.542305,625.1,6,5,125.2,0.703
90.66,1,-0.005,0.03,-0.012,-0.004,-0.003,-0.015,-1.575,0.008,-2.484,89.87,95.5,40.578766,-3.542305,625.1,6,5,125.2,0.703
90.76,1,-0.01,-0.004,-0.016,-0.005,0.008,-0.016,-1.575,0.008,-2.483,89.87,95.5,40.578766,-3.542305,625.1,6,5,125.2,0.703
90.86,1,0.024,0.022,-0.012,0.005,0.012,-0.012,-1.575,0.008,-2.482,89.87,95.5,40.578766,-3.542305,625.1,6,5,125.2,0.703
90.97,1,-0.036,-0.009,-0.017,-0.007,0.006,-0.017,-1.575,0.008,-2.481,89.87,95.5,40.578766,-3.542305,625.1,6,5,125.2,0.703
91.07,1,-0.057,-0.004,-0.013,-0.035,0.002,-0.017,-1.575,0.011,-2.481,89.87,95.5,40.578766,-3.542305,625.1,6,5,125.2,0.703
91.16,1,-0.022,0.01,-0.005,-0.039,0.004,-0.012,-1.576,0.003,-2.48,89.87,95.5,40.578766,-3.542305,625.1,6,5,125.2,0.703
91.26,1,0.029,0.018,-0.022,-0.002,0.006,-0.012,-1.575,-0.007,-2.48,89.87,95.5,40.578766,-3.542305,625.1,6,5,125.2,0.703
91.36,1,0.002,0.018,-0.014,0.007,0.014,-0.015,-1.574,-0.008,-2.48,90.87,95.5,40.57864,-3.542057,625.3,6,5,124.1,1.758
91.46,1,-0.015,0.048,-0.016,-0.002,0.032,-0.018,-1.574,-0.008,-2.48,90.87,95.5,40.57864,-3.542057,625.3,6,5,124.1,1.758
91.56,1,0.006,0.075,-0.009,-0.004,0.054,-0.015,-1.574,-0.008,-2.481,90.87,95.5,40.57864,-3.542057,625.3,6,5,124.1,1.758
91.67,1,-0.021,0.073,-0.01,-0.009,0.064,-0.008,-1.574,-0.008,-2.482,90.87,95.5,40.57864,-3.542057,625.3,6,5,124.1,1.758
91.76,1,-0.005,0.031,-0.011,-0.009,0.048,-0.014,-1.574,-0.008,-2.483,90.87,95.5,40.57864,-3.542057,625.3,6,5,124.1,1.758
91.86,1,-0.001,0.018,-0.009,-0.006,0.042,-0.01,-1.575,-0.008,-2.483,90.87,95.5,40.57864,-3.542057,625.3,6,5,124.1,1.758
91.96,1,-0.047,-0.035,-0.028,-0.019,0.006,-0.019,-1.573,-0.011,-2.484,90.87,95.5,40.57864,-3.542057,625.3,6,5,124.1,1.758
92.07,1,0.001,0.037,0.0,-0.018,0.007,-0.01,-1.572,-0.012,-2.484,90.87,95.5,40.57864,-3.542057,625.3,6,5,124.1,1.758
92.17,1,-0.002,-0.005,-0.012,-0.006,0.004,-0.009,-1.572,-0.011,-2.485,90.87,95.5,40.57864,-3.542057,625.3,6,5,124.1,1.758
92.27,1,-0.005,0.054,-0.015,-0.004,0.023,-0.013,-1.572,-0.011,-2.486,90.87,95.5,40.57864,-3.542057,625.3,6,5,124.1,1.758
92.37,1,-0.045,0.026,-0.008,-0.022,0.034,-0.01,-1.572,-0.011,-2.486,91.89,96.4,40.578506,-3.541797,625.5,6,5,123.0,2.109
92.47,1,-0.034,-0.02,-0.008,-0.034,0.007,-0.006,-1.572,-0.011,-2.487,91.89,96.4,40.578506,-3.541797,625.5,6,5,123.0,2.109
92.57,1,-0.013,-0.026,0.007,-0.024,-0.008,-0.004,-1.572,-0.011,-2.487,91.89,96.4,40.578506,-3.541797,625.5,6,5,123.0,2.109
92.67,1,-0.012,-0.0,-0.01,-0.019,-0.012,-0.004,-1.572,-0.011,-2.488,91.89,96.4,40.578506,-3.541797,625.5,6,5,123.0,2.109
92.77,1,0.019,0.012,0.001,-0.005,-0.0,-0.005,-1.572,-0.01,-2.488,91.89,96.4,40.578506,-3.541797,625.5,6,5,123.0,2.109
92.87,1,0.014,-0.019,-0.008,0.014,-0.006,-0.001,-1.572,-0.008,-2.488,91.89,96.4,40.578506,-3.541797,625.5,6,5,123.0,2.109
92.97,1,-0.015,-0.012,-0.011,0.002,-0.01,-0.01,-1.573,-0.007,-2.488,91.89,96.4,40.578506,-3.541797,625.5,6,5,123.0,2.109
93.07,1,-0.034,-0.053,-0.0,-0.015,-0.024,-0.004,-1.573,-0.008,-2.488,91.89,96.4,40.578506,-3.541797,625.5,6,5,123.0,2.109
93.17,1,-0.0,-0.018,0.007,-0.018,-0.042,0.004,-1.573,-0.008,-2.488,91.89,96.4,40.578506,-3.541797,625.5,6,5,123.0,2.109
93.27,1,-0.003,-0.032,-0.003,-0.007,-0.028,0.001,-1.572,-0.008,-2.487,91.89,96.4,40.578506,-3.541797,625.5,6,5,123.0,2.109
93.37,1,0.014,-0.027,-0.019,0.004,-0.019,-0.01,-1.572,-0.008,-2.487,92.91,96.6,40.578384,-3.541529,625.6,6,5,122.3,1.758
93.47,1,0.01,-0.003,-0.011,0.01,-0.016,-0.013,-1.572,-0.008,-2.486,92.91,96.6,40.578384,-3.541529,625.6,6,5,122.3,1.758
93.57,1,-0.013,0.005,-0.011,0.0,-0.008,-0.011,-1.572,-0.005,-2.486,92.91,96.6,40.578384,-3.541529,625.6,6,5,122.3,1.758
93.67,1,-0.036,0.016,-0.013,-0.021,0.007,-0.012,-1.577,0.002,-2.485,92.91,96.6,40.578384,-3.541529,625.6,6,5,122.3,1.758
93.78,1,-0.053,0.006,-0.02,-0.039,0.008,-0.015,-1.573,0.003,-2.484,92.91,96.6,40.578384,-3.541529,625.6,6,5,122.3,1.758
93.87,1,-0.025,-0.036,-0.008,-0.039,-0.012,-0.018,-1.572,0.005,-2.483,92.91,96.6,40.578384,-3.541529,625.6,6,5,122.3,1.758
93.98,1,-0.02,-0.025,0.0,-0.024,-0.029,-0.005,-1.571,0.007,-2.482,92.91,96.6,40.578384,-3.541529,625.6,6,5,122.3,1.758
94.08,1,0.02,0.003,-0.004,-0.004,-0.007,-0.004,-1.571,0.004,-2.481,92.91,96.6,40.578384,-3.541529,625.6,6,5,122.3,1.758
94.18,1,0.031,-0.013,-0.023,0.016,-0.009,-0.011,-1.572,0.003,-2.48,92.91,96.6,40.578384,-3.541529,625.6,6,5,122.3,1.758
94.27,1,-0.008,0.01,-0.019,0.007,-0.003,-0.016,-1.572,0.003,-2.479,92.91,96.6,40.578384,-3.541529,625.6,6,5,122.3,1.758
94.37,1,-0.018,0.007,-0.0,-0.007,0.008,-0.01,-1.573,0.01,-2.478,93.88,96.2,40.578259,-3.54126,625.7,6,5,122.3,0.703
94.47,1,0.023,0.032,-0.011,0.004,0.016,-0.009,-1.572,0.014,-2.477,93.88,96.2,40.578259,-3.54126,625.7,6,5,122.3,0.703
94.57,1,-0.002,0.033,-0.013,0.01,0.024,-0.013,-1.572,0.023,-2.476,93.88,96.2,40.578259,-3.54126,625.7,6,5,122.3,0.703
94.67,1,-0.011,-0.024,-0.018,-0.004,0.008,-0.014,-1.571,0.026,-2.475,93.88,96.2,40.578259,-3.54126,625.7,6,5,122.3,0.703
94.78,1,-0.035,-0.022,-0.014,-0.02,-0.013,-0.015,-1.57,0.025,-2.473,93.88,96.2,40.578259,-3.54126,625.7,6,5,122.3,0.703
94.88,1,-0.017,-0.002,-0.009,-0.023,-0.011,-0.01,-1.571,0.03,-2.472,93.88,96.2,40.578259,-3.54126,625.7,6,5,122.3,0.703
94.98,1,0.01,0.026,-0.01,-0.009,0.007,-0.013,-1.572,0.032,-2.472,93.88,96.2,40.578259,-3.54126,625.7,6,5,122.3,0.703
95.09,1,-0.02,0.02,-0.016,-0.004,0.017,-0.015,-1.572,0.03,-2.471,93.88,96.2,40.578259,-3.54126,625.7,6,5,122.3,0.703
95.18,1,-0.017,0.042,-0.008,-0.017,0.024,-0.008,-1.573,0.027,-2.471,93.88,96.2,40.578259,-3.54126,625.7,6,5,122.3,0.703
95.28,1,-0.011,0.033,-0.014,-0.014,0.033,-0.012,-1.569,0.027,-2.47,93.88,96.2,40.578259,-3.54126,625.7,6,5,122.3,0.703
95.38,1,-0.012,-0.006,-0.002,-0.006,0.023,-0.005,-1.566,0.027,-2.469,94.87,96.1,40.57814,-3.541012,626.1,6,5,121.6,0.703
95.48,1,-0.028,0.008,-0.01,-0.02,0.005,-0.011,-1.566,0.028,-2.469,94.87,96.1,40.57814,-3.541012,626.1,6,5,121.6,0.703
95.58,1,0.014,-0.009,-0.008,-0.01,-0.0,-0.008,-1.564,0.019,-2.468,94.87,96.1,40.57814,-3.541012,626.1,6,5,121.6,0.703
95.69,1,0.002,0.02,-0.008,0.004,0.009,-0.007,-1.564,0.016,-2.468,94.87,96.1,40.57814,-3.541012,626.1,6,5,121.6,0.703
95.78,1,-0.021,0.035,-0.003,-0.005,0.022,-0.007,-1.563,0.015,-2.468,94.87,96.1,40.57814,-3.541012,626.1,6,5,121.6,0.703
95.88,1,-0.017,0.041,-0.001,-0.019,0.032,-0.001,-1.562,0.017,-2.467,94.87,96.1,40.57814,-3.541012,626.1,6,5,121.6,0.703
95.98,1,-0.017,0.022,-0.004,-0.017,0.033,-0.006,-1.562,0.017,-2.467,94.87,96.1,40.57814,-3.541012,626.1,6,5,121.6,0.703
96.08,1,-0.01,-0.009,-0.002,-0.017,0.013,-0.004,-1.562,0.014,-2.467,94.87,96.1,40.57814,-3.541012,626.1,6,5,121.6,0.703
96.18,1,0.01,-0.018,0.005,-0.001,-0.005,-0.001,-1.56,0.013,-2.466,94.87,96.1,40.57814,-3.541012,626.1,6,5,121.6,0.703
96.29,1,-0.008,-0.026,-0.02,0.001,-0.015,-0.003,-1.559,0.013,-2.466,94.87,96.1,40.57814,-3.541012,626.1,6,5,121.6,0.703
96.38,1,-0.047,-0.017,-0.001,-0.02,-0.018,-0.01,-1.56,0.015,-2.465,95.88,96.1,40.578014,-3.540748,626.2,6,5,120.2,2.109
96.49,1,-0.027,-0.034,-0.002,-0.031,-0.024,-0.003,-1.56,0.016,-2.464,95.88,96.1,40.578014,-3.540748,626.2,6,5,120.2,2.109
96.58,1,0.01,0.051,-0.01,-0.017,0.01,-0.006,-1.56,0.017,-2.463,95.88,96.1,40.578014,-3.540748,626.2,6,5,120.2,2.109
96.68,1,0.046,0.056,-0.017,0.015,0.023,-0.01,-1.559,0.018,-2.462,95.88,96.1,40.578014,-3.540748,626.2,6,5,120.2,2.109
96.78,1,-0.026,0.036,-0.022,0.008,0.037,-0.017,-1.559,0.018,-2.462,95.88,96.1,40.578014,-3.540748,626.2,6,5,120.2,2.109
96.89,1,0.001,0.043,-0.016,-0.005,0.041,-0.018,-1.56,0.017,-2.46,95.88,96.1,40.578014,-3.540748,626.2,6,5,120.2,2.109
97.0,1,-0.003,0.037,-0.007,-0.001,0.04,-0.012,-1.56,0.016,-2.461,95.88,96.1,40.578014,-3.540748,626.2,6,5,120.2,2.109
97.08,1,0.014,0.03,-0.013,0.007,0.034,-0.014,-1.56,0.015,-2.46,95.88,96.1,40.578014,-3.540748,626.2,6,5,120.2,2.109
97.18,1,-0.012,0.029,-0.009,0.0,0.031,-0.011,-1.559,0.016,-2.461,95.88,96.1,40.578014,-3.540748,626.2,6,5,120.2,2.109
97.29,1,-0.026,0.04,-0.018,-0.016,0.043,-0.012,-1.559,0.015,-2.461,95.88,96.1,40.578014,-3.540748,626.2,6,5,120.2,2.109
97.38,1,-0.006,0.069,-0.004,-0.017,0.05,-0.01,-1.559,0.015,-2.461,96.88,95.8,40.577896,-3.540483,626.3,6,5,119.2,2.461
97.49,1,-0.015,0.047,0.0,-0.012,0.05,-0.009,-1.559,0.014,-2.462,96.88,95.8,40.577896,-3.540483,626.3,6,5,119.2,2.461
97.58,1,0.022,0.021,-0.003,0.004,0.042,-0.002,-1.558,0.011,-2.462,96.88,95.8,40.577896,-3.540483,626.3,6,5,119.2,2.461
97.7,1,0.011,0.018,-0.004,0.013,0.024,-0.004,-1.558,0.006,-2.463,96.88,95.8,40.577896,-3.540483,626.3,6,5,119.2,2.461
97.79,1,-0.011,0.02,-0.005,0.003,0.017,-0.004,-1.558,0.001,-2.463,96.88,95.8,40.577896,-3.540483,626.3,6,5,119.2,2.461
97.89,1,-0.005,0.011,-0.005,-0.007,0.02,-0.006,-1.558,-0.005,-2.464,96.88,95.8,40.577896,-3.540483,626.3,6,5,119.2,2.461
97.99,1,-0.03,-0.007,-0.01,-0.016,0.009,-0.003,-1.558,-0.006,-2.464,96.88,95.8,40.577896,-3.540483,626.3,6,5,119.2,2.461
98.09,1,-0.012,-0.018,0.004,-0.02,-0.003,-0.01,-1.558,-0.01,-2.465,96.88,95.8,40.577896,-3.540483,626.3,6,5,119.2,2.461
98.19,1,0.002,0.022,-0.021,-0.007,0.001,-0.009,-1.555,-0.014,-2.465,96.88,95.8,40.577896,-3.540483,626.3,6,5,119.2,2.461
98.29,1,-0.002,0.008,-0.014,0.002,0.005,-0.015,-1.557,-0.014,-2.465,96.88,95.8,40.577896,-3.540483,626.3,6,5,119.2,2.461
98.39,1,-0.036,0.012,-0.006,-0.012,0.008,-0.008,-1.56,-0.015,-2.466,97.87,95.8,40.577774,-3.540208,626.8,6,5,118.1,2.109
98.49,1,-0.048,-0.003,-0.005,-0.036,0.006,-0.005,-1.56,-0.015,-2.466,97.87,95.8,40.577774,-3.540208,626.8,6,5,118.1,2.109
98.59,1,-0.011,-0.0,0.001,-0.034,0.004,-0.004,-1.56,-0.015,-2.466,97.87,95.8,40.577774,-3.540208,626.8,6,5,118.1,2.109
98.69,1,0.01,-0.022,-0.006,-0.008,-0.01,-0.005,-1.56,-0.011,-2.467,97.87,95.8,40.577774,-3.540208,626.8,6,5,118.1,2.109
98.79,1,-0.031,-0.057,0.0,-0.007,-0.03,-0.006,-1.559,-0.012,-2.467,97.87,95.8,40.577774,-3.540208,626.8,6,5,118.1,2.109
98.9,1,-0.042,-0.015,-0.015,-0.029,-0.028,-0.007,-1.559,-0.012,-2.467,97.87,95.8,40.577774,-3.540208,626.8,6,5,118.1,2.109
98.99,1,-0.012,0.042,-0.014,-0.025,0.007,-0.011,-1.56,-0.012,-2.467,97.87,95.8,40.577774,-3.540208,626.8,6,5,118.1,2.109
99.09,1,-0.003,-0.015,-0.001,-0.019,-0.004,-0.006,-1.56,-0.011,-2.467,97.87,95.8,40.577774,-3.540208,626.8,6,5,118.1,2.109
99.19,1,0.002,0.024,-0.017,-0.003,0.008,-0.011,-1.559,-0.01,-2.467,97.87,95.8,40.577774,-3.540208,626.8,6,5,118.1,2.109
99.3,1,0.01,-0.02,-0.014,0.004,-0.0,-0.015,-1.56,-0.009,-2.467,97.87,95.8,40.577774,-3.540208,626.8,6,5,118.1,2.109
99.4,1,0.01,0.014,0.002,0.008,0.005,-0.007,-1.559,-0.009,-2.467,98.88,95.5,40.577656,-3.539946,627.5,6,5,117.8,1.406
99.49,1,-0.015,-0.007,0.002,-0.002,-0.007,0.0,-1.559,-0.008,-2.467,98.88,95.5,40.577656,-3.539946,627.5,6,5,117.8,1.406
99.59,1,-0.016,-0.009,-0.003,-0.01,-0.004,-0.001,-1.559,-0.008,-2.467,98.88,95.5,40.577656,-3.539946,627.5,6,5,117.8,1.406
99.69,1,-0.012,-0.001,-0.001,-0.016,-0.001,-0.0,-1.559,-0.008,-2.467,98.88,95.5,40.577656,-3.539946,627.5,6,5,117.8,1.406
99.79,1,0.026,0.004,-0.004,0.002,-0.001,-0.003,-1.557,-0.008,-2.467,98.88,95.5,40.577656,-3.539946,627.5,6,5,117.8,1.406
99.9,1,0.003,-0.008,-0.007,0.012,-0.004,-0.004,-1.557,-0.009,-2.468,98.88,95.5,40.577656,-3.539946,627.5,6,5,117.8,1.406
99.99,1,-0.026,-0.002,-0.011,-0.006,-0.004,-0.012,-1.555,-0.012,-2.468,98.88,95.5,40.577656,-3.539946,627.5,6,5,117.8,1.406
100.11,1,-0.031,-0.012,-0.008,-0.023,-0.009,-0.008,-1.554,-0.008,-2.468,98.88,95.5,40.577656,-3.539946,627.5,6,5,117.8,1.406
100.19,1,-0.033,0.01,-0.015,-0.026,-0.003,-0.009,-1.556,-0.003,-2.469,98.88,95.5,40.577656,-3.539946,627.5,6,5,117.8,1.406
100.29,1,-0.028,0.006,0.011,-0.028,0.008,-0.004,-1.558,-0.002,-2.47,98.88,95.5,40.577656,-3.539946,627.5,6,5,117.8,1.406
100.4,1,-0.025,0.017,-0.014,-0.031,0.017,-0.0,-1.557,-0.003,-2.47,99.93,95.0,40.577541,-3.539668,627.8,6,5,117.1,1.055
100.5,1,-0.009,-0.013,0.003,-0.022,0.01,-0.007,-1.557,-0.001,-2.471,99.93,95.0,40.577541,-3.539668,627.8,6,5,117.1,1.055
100.6,1,0.002,0.026,-0.027,-0.005,0.002,-0.013,-1.557,0.0,-2.471,99.93,95.0,40.577541,-3.539668,627.8,6,5,117.1,1.055
100.7,1,0.017,0.01,-0.02,0.003,0.001,-0.016,-1.557,0.0,-2.471,99.93,95.0,40.577541,-3.539668,627.8,6,5,117.1,1.055
100.8,1,0.025,0.052,-0.02,0.015,0.024,-0.019,-1.557,-0.0,-2.471,99.93,95.0,40.577541,-3.539668,627.8,6,5,117.1,1.055
100.9,1,-0.016,0.063,-0.015,0.009,0.055,-0.018,-1.557,-0.0,-2.471,99.93,95.0,40.577541,-3.539668,627.8,6,5,117.1,1.055
101.1,1,-0.033,-0.03,0.001,-0.038,-0.018,-0.006,-1.558,0.002,-2.472,99.93,95.0,40.577541,-3.539668,627.8,6,5,117.1,1.055
101.2,1,-0.023,-0.035,0.011,-0.025,-0.019,0.0,-1.558,0.002,-2.473,99.93,95.0,40.577541,-3.539668,627.8,6,5,117.1,1.055
101.3,1,0.011,0.012,-0.002,-0.009,-0.01,0.002,-1.558,0.002,-2.474,99.93,95.0,40.577541,-3.539668,627.8,6,5,117.1,1.055
101.4,1,0.013,0.065,-0.002,0.005,0.027,-0.004,-1.557,0.002,-2.477,99.93,95.0,40.577541,-3.539668,627.8,6,5,117.1,1.055
101.5,1,0.01,0.019,0.011,0.008,0.025,0.004,-1.557,0.003,-2.479,100.93,95.1,40.577438,-3.539388,628.0,6,5,115.7,2.109
101.6,1,0.014,0.001,-0.008,0.009,0.017,0.003,-1.557,0.004,-2.479,100.93,95.1,40.577438,-3.539388,628.0,6,5,115.7,2.109
101.7,1,-0.034,-0.001,0.004,-0.004,0.004,0.002,-1.557,0.006,-2.479,100.93,95.1,40.577438,-3.539388,628.0,6,5,115.7,2.109
101.81,1,-0.035,-0.011,0.008,-0.024,0.0,0.001,-1.557,0.011,-2.479,100.93,95.1,40.577438,-3.539388,628.0,6,5,115.7,2.109
101.9,1,-0.015,0.004,0.007,-0.027,-0.002,0.007,-1.558,0.015,-2.479,100.93,95.1,40.577438,-3.539388,628.0,6,5,115.7,2.109
102.0,1,-0.012,0.001,0.009,-0.015,0.0,0.008,-1.559,0.017,-2.479,100.93,95.1,40.577438,-3.539388,628.0,6,5,115.7,2.109
102.1,1,-0.027,-0.004,0.004,-0.022,-0.003,0.004,-1.56,0.014,-2.479,100.93,95.1,40.577438,-3.539388,628.0,6,5,115.7,2.109
102.2,1,-0.013,-0.022,0.002,-0.019,-0.007,0.006,-1.561,0.009,-2.479,100.93,95.1,40.577438,-3.539388,628.0,6,5,115.7,2.109
102.3,1,-0.012,-0.017,0.018,-0.015,-0.016,0.01,-1.562,0.013,-2.479,100.93,95.1,40.577438,-3.539388,628.0,6,5,115.7,2.109
102.41,1,0.007,-0.008,0.019,-0.006,-0.014,0.012,-1.563,0.019,-2.478,100.93,95.1,40.577438,-3.539388,628.0,6,5,115.7,2.109
102.51,1,0.02,-0.019,0.021,0.008,-0.015,0.02,-1.563,0.019,-2.478,101.92,94.1,40.577343,-3.539114,627.9,6,5,115.7,1.406
102.6,1,0.046,-0.006,0.022,0.031,-0.01,0.02,-1.564,0.02,-2.478,101.92,94.1,40.577343,-3.539114,627.9,6,5,115.7,1.406
102.7,1,0.009,-0.009,-0.002,0.022,-0.011,0.015,-1.563,0.015,-2.477,101.92,94.1,40.577343,-3.539114,627.9,6,5,115.7,1.406
102.8,1,-0.024,-0.047,0.0,0.005,-0.022,0.006,-1.563,0.015,-2.476,101.92,94.1,40.577343,-3.539114,627.9,6,5,115.7,1.406
102.9,1,-0.048,0.013,-0.0,-0.022,-0.016,-0.004,-1.564,0.016,-2.476,101.92,94.1,40.577343,-3.539114,627.9,6,5,115.7,1.406
103.01,1,-0.059,0.005,0.01,-0.048,-0.0,0.006,-1.565,0.016,-2.475,101.92,94.1,40.577343,-3.539114,627.9,6,5,115.7,1.406
103.11,1,-0.026,0.01,0.006,-0.049,0.002,0.005,-1.566,0.018,-2.475,101.92,94.1,40.577343,-3.539114,627.9,6,5,115.7,1.406
103.2,1,0.038,-0.011,0.019,-0.0,0.008,0.014,-1.567,0.021,-2.474,101.92,94.1,40.577343,-3.539114,627.9,6,5,115.7,1.406
103.31,1,0.035,-0.021,0.0,0.028,-0.016,0.007,-1.565,0.019,-2.474,101.92,94.1,40.577343,-3.539114,627.9,6,5,115.7,1.406
103.41,1,-0.05,-0.037,0.026,-0.015,-0.033,0.014,-1.564,0.017,-2.474,101.92,94.1,40.577343,-3.539114,627.9,6,5,115.7,1.406
103.51,1,-0.007,-0.033,0.037,-0.019,-0.024,0.028,-1.564,0.017,-2.473,102.87,93.9,40.577244,-3.538828,627.8,6,5,115.7,0.0
103.62,1,0.101,0.07,0.018,0.041,0.013,0.024,-1.563,0.018,-2.474,102.87,93.9,40.577244,-3.538828,627.8,6,5,115.7,0.0
103.72,1,-0.016,0.049,-0.016,0.036,0.036,0.008,-1.561,0.018,-2.475,102.87,93.9,40.577244,-3.538828,627.8,6,5,115.7,0.0
103.81,1,-0.07,-0.017,0.006,-0.017,0.021,-0.004,-1.562,0.017,-2.476,102.87,93.9,40.577244,-3.538828,627.8,6,5,115.7,0.0
103.91,1,0.019,-0.016,0.026,-0.02,0.003,0.016,-1.564,0.017,-2.476,102.87,93.9,40.577244,-3.538828,627.8,6,5,115.7,0.0
104.01,1,0.017,0.025,-0.001,0.005,-0.006,0.013,-1.564,0.02,-2.477,102.87,93.9,40.577244,-3.538828,627.8,6,5,115.7,0.0
104.11,1,-0.078,0.001,-0.0,-0.03,0.008,-0.002,-1.565,0.02,-2.478,102.87,93.9,40.577244,-3.538828,627.8,6,5,115.7,0.0
104.21,1,-0.048,0.031,0.008,-0.044,0.019,0.003,-1.567,0.017,-2.479,102.87,93.9,40.577244,-3.538828,627.8,6,5,115.7,0.0
104.31,1,-0.075,0.069,-0.037,-0.063,0.044,-0.014,-1.567,0.017,-2.481,102.87,93.9,40.577244,-3.538828,627.8,6,5,115.7,0.0
104.41,1,-0.056,0.042,0.014,-0.06,0.051,-0.003,-1.568,0.017,-2.482,102.87,93.9,40.577244,-3.538828,627.8,6,5,115.7,0.0
104.51,1,0.026,0.03,-0.002,-0.026,0.033,-0.003,-1.568,0.012,-2.483,103.87,94.6,40.577152,-3.538543,628.0,6,5,115.0,0.703
104.61,1,0.036,0.003,0.017,0.013,0.025,0.009,-1.57,0.015,-2.484,103.87,94.6,40.577152,-3.538543,628.0,6,5,115.0,0.703
104.71,1,0.027,0.033,0.008,0.025,0.019,0.005,-1.57,0.013,-2.485,103.87,94.6,40.577152,-3.538543,628.0,6,5,115.0,0.703
104.81,1,-0.017,0.007,-0.003,0.006,0.021,0.002,-1.568,0.008,-2.486,103.87,94.6,40.577152,-3.538543,628.0,6,5,115.0,0.703
104.91,1,-0.03,0.025,-0.006,-0.012,0.014,0.002,-1.568,0.005,-2.488,103.87,94.6,40.577152,-3.538543,628.0,6,5,115.0,0.703
105.01,1,-0.044,0.024,-0.007,-0.028,0.025,-0.005,-1.569,0.007,-2.489,103.87,94.6,40.577152,-3.538543,628.0,6,5,115.0,0.703
105.11,1,-0.003,0.015,-0.003,-0.029,0.018,-0.002,-1.569,0.009,-2.49,103.87,94.6,40.577152,-3.538543,628.0,6,5,115.0,0.703
105.22,1,0.047,0.037,-0.028,0.014,0.031,-0.013,-1.568,0.011,-2.492,103.87,94.6,40.577152,-3.538543,628.0,6,5,115.0,0.703
105.32,1,0.021,0.025,-0.03,0.027,0.022,-0.02,-1.565,0.013,-2.493,103.87,94.6,40.577152,-3.538543,628.0,6,5,115.0,0.703
105.42,1,-0.035,0.036,-0.059,0.0,0.034,-0.044,-1.561,0.012,-2.495,103.87,94.6,40.577152,-3.538543,628.0,6,5,115.0,0.703
105.52,1,-0.037,0.078,-0.036,-0.028,0.051,-0.041,-1.559,0.004,-2.496,104.89,94.8,40.577053,-3.538246,628.2,6,5,115.3,0.352
105.61,1,0.008,0.083,-0.047,-0.014,0.072,-0.043,-1.558,0.003,-2.498,104.89,94.8,40.577053,-3.538246,628.2,6,5,115.3,0.352
105.71,1,-0.018,0.065,-0.04,-0.009,0.074,-0.045,-1.559,0.004,-2.5,104.89,94.8,40.577053,-3.538246,628.2,6,5,115.3,0.352
105.82,1,-0.005,-0.01,0.0,-0.013,0.029,-0.025,-1.56,0.005,-2.501,104.89,94.8,40.577053,-3.538246,628.2,6,5,115.3,0.352
105.91,1,-0.02,-0.031,-0.012,-0.013,0.004,-0.014,-1.559,0.006,-2.502,104.89,94.8,40.577053,-3.538246,628.2,6,5,115.3,0.352
106.03,1,0.019,0.026,-0.01,0.003,0.009,-0.011,-1.559,0.007,-2.503,104.89,94.8,40.577053,-3.538246,628.2,6,5,115.3,0.352
106.12,1,-0.018,0.036,-0.016,-0.005,0.008,-0.011,-1.559,0.008,-2.504,104.89,94.8,40.577053,-3.538246,628.2,6,5,115.3,0.352
106.22,1,0.006,0.039,-0.006,-0.006,0.036,-0.012,-1.559,0.007,-2.505,104.89,94.8,40.577053,-3.538246,628.2,6,5,115.3,0.352
106.32,1,0.003,0.02,0.0,0.003,0.034,-0.006,-1.559,0.007,-2.506,104.89,94.8,40.577053,-3.538246,628.2,6,5,115.3,0.352
106.42,1,-0.003,0.015,0.002,0.002,0.018,0.003,-1.559,0.007,-2.506,104.89,94.8,40.577053,-3.538246,628.2,6,5,115.3,0.352
106.52,1,-0.043,-0.021,0.003,-0.018,0.003,-0.001,-1.56,0.012,-2.506,105.9,94.8,40.576958,-3.537951,629.6,6,5,114.3,1.055
106.63,1,-0.055,-0.007,0.003,-0.042,-0.01,0.005,-1.562,0.014,-2.506,105.9,94.8,40.576958,-3.537951,629.6,6,5,114.3,1.055
106.72,1,-0.021,0.002,0.018,-0.034,0.0,0.007,-1.562,0.013,-2.507,105.9,94.8,40.576958,-3.537951,629.6,6,5,114.3,1.055
106.82,1,0.008,-0.027,0.007,-0.018,-0.016,0.01,-1.562,0.013,-2.507,105.9,94.8,40.576958,-3.537951,629.6,6,5,114.3,1.055
106.92,1,0.011,-0.032,0.022,0.003,-0.026,0.013,-1.562,0.01,-2.507,105.9,94.8,40.576958,-3.537951,629.6,6,5,114.3,1.055
107.02,1,-0.039,-0.029,-0.008,-0.008,-0.025,0.006,-1.562,0.009,-2.507,105.9,94.8,40.576958,-3.537951,629.6,6,5,114.3,1.055
107.12,1,-0.086,-0.027,0.017,-0.046,-0.024,0.01,-1.563,0.009,-2.507,105.9,94.8,40.576958,-3.537951,629.6,6,5,114.3,1.055
107.23,1,-0.053,0.018,0.008,-0.066,-0.013,0.008,-1.562,0.003,-2.507,105.9,94.8,40.576958,-3.537951,629.6,6,5,114.3,1.055
107.32,1,0.053,-0.006,0.027,-0.01,0.002,0.019,-1.562,0.001,-2.507,105.9,94.8,40.576958,-3.537951,629.6,6,5,114.3,1.055
107.42,1,0.025,-0.015,0.004,0.021,-0.008,0.013,-1.562,0.005,-2.507,105.9,94.8,40.576958,-3.537951,629.6,6,5,114.3,1.055
107.52,1,0.016,0.002,0.011,0.014,-0.007,0.009,-1.562,0.007,-2.507,106.89,93.7,40.576866,-3.537666,629.6,6,5,114.3,1.055
107.63,1,0.009,-0.01,0.018,0.015,-0.01,0.016,-1.567,0.012,-2.506,106.89,93.7,40.576866,-3.537666,629.6,6,5,114.3,1.055
107.72,1,-0.021,-0.01,0.003,0.002,-0.008,0.013,-1.567,0.018,-2.507,106.89,93.7,40.576866,-3.537666,629.6,6,5,114.3,1.055
107.83,1,-0.01,-0.014,-0.01,-0.015,-0.008,-0.001,-1.566,0.016,-2.507,106.89,93.7,40.576866,-3.537666,629.6,6,5,114.3,1.055
107.92,1,0.014,-0.01,-0.014,-0.003,-0.009,-0.01,-1.565,0.015,-2.508,106.89,93.7,40.576866,-3.537666,629.6,6,5,114.3,1.055
108.03,1,-0.034,-0.001,-0.014,-0.002,-0.012,-0.014,-1.565,0.013,-2.508,106.89,93.7,40.576866,-3.537666,629.6,6,5,114.3,1.055
108.12,1,-0.034,0.046,-0.03,-0.031,0.013,-0.018,-1.564,0.008,-2.51,106.89,93.7,40.576866,-3.537666,629.6,6,5,114.3,1.055
108.23,1,0.019,0.055,-0.004,-0.01,0.041,-0.015,-1.561,0.006,-2.511,106.89,93.7,40.576866,-3.537666,629.6,6,5,114.3,1.055
108.33,1,0.037,0.043,-0.017,0.015,0.046,-0.012,-1.561,0.001,-2.513,106.89,93.7,40.576866,-3.537666,629.6,6,5,114.3,1.055
108.43,1,0.022,0.003,0.002,0.027,0.025,-0.008,-1.559,-0.004,-2.514,106.89,93.7,40.576866,-3.537666,629.6,6,5,114.3,1.055
108.52,1,-0.023,0.02,-0.024,0.008,0.019,-0.011,-1.557,-0.008,-2.516,107.88,94.1,40.576771,-3.537384,630.2,6,5,113.9,0.352
108.62,1,-0.114,0.023,-0.009,-0.05,0.023,-0.018,-1.557,-0.009,-2.518,107.88,94.1,40.576771,-3.537384,630.2,6,5,113.9,0.352
108.72,1,-0.098,0.016,0.012,-0.091,0.02,-0.003,-1.559,-0.01,-2.519,107.88,94.1,40.576771,-3.537384,630.2,6,5,113.9,0.352
108.83,1,0.045,0.02,0.017,-0.038,0.016,0.014,-1.561,-0.009,-2.521,107.88,94.1,40.576771,-3.537384,630.2,6,5,113.9,0.352
108.93,1,0.061,0.008,0.01,0.029,0.016,0.01,-1.561,-0.008,-2.523,107.88,94.1,40.576771,-3.537384,630.2,6,5,113.9,0.352
109.03,1,0.026,0.012,0.003,0.036,0.015,0.008,-1.562,-0.009,-2.524,107.88,94.1,40.576771,-3.537384,630.2,6,5,113.9,0.352
109.13,1,-0.039,0.009,0.026,0.002,0.012,0.011,-1.565,-0.011,-2.526,107.88,94.1,40.576771,-3.537384,630.2,6,5,113.9,0.352
109.23,1,-0.057,-0.005,-0.001,-0.036,0.004,0.008,-1.568,-0.013,-2.528,107.88,94.1,40.576771,-3.537384,630.2,6,5,113.9,0.352
109.33,1,-0.031,-0.022,0.002,-0.04,-0.011,0.004,-1.57,-0.011,-2.529,107.88,94.1,40.576771,-3.537384,630.2,6,5,113.9,0.352
109.43,1,-0.001,0.033,-0.014,-0.015,0.007,0.001,-1.569,-0.017,-2.531,107.88,94.1,40.576771,-3.537384,630.2,6,5,113.9,0.352
109.53,1,-0.02,0.035,-0.022,-0.02,0.022,-0.015,-1.569,-0.016,-2.533,108.88,93.9,40.576683,-3.537102,630.3,6,5,113.2,1.055
109.63,1,-0.014,0.052,0.001,-0.017,0.037,-0.008,-1.57,-0.016,-2.535,108.88,93.9,40.576683,-3.537102,630.3,6,5,113.2,1.055
109.73,1,-0.011,0.027,0.008,-0.014,0.035,0.002,-1.57,-0.015,-2.536,108.88,93.9,40.576683,-3.537102,630.3,6,5,113.2,1.055
109.83,1,-0.028,0.001,-0.004,-0.017,0.02,-0.0,-1.57,-0.015,-2.538,108.88,93.9,40.576683,-3.537102,630.3,6,5,113.2,1.055
109.93,1,-0.052,-0.048,-0.003,-0.032,-0.012,-0.003,-1.571,-0.016,-2.541,108.88,93.9,40.576683,-3.537102,630.3,6,5,113.2,1.055
110.04,1,-0.046,0.018,0.008,-0.048,-0.007,0.001,-1.572,-0.016,-2.544,108.88,93.9,40.576683,-3.537102,630.3,6,5,113.2,1.055
110.14,1,-0.014,0.027,0.005,-0.031,0.013,0.004,-1.57,-0.018,-2.543,108.88,93.9,40.576683,-3.537102,630.3,6,5,113.2,1.055
110.23,1,-0.019,-0.016,-0.007,-0.018,0.003,0.002,-1.57,-0.019,-2.545,108.88,93.9,40.576683,-3.537102,630.3,6,5,113.2,1.055
110.33,1,-0.038,-0.042,-0.01,-0.026,-0.018,-0.007,-1.568,-0.017,-2.546,108.88,93.9,40.576683,-3.537102,630.3,6,5,113.2,1.055
110.43,1,-0.072,-0.038,0.013,-0.045,-0.033,-0.001,-1.567,-0.015,-2.548,108.88,93.9,40.576683,-3.537102,630.3,6,5,113.2,1.055
110.53,1,-0.008,-0.044,0.039,-0.045,-0.037,0.02,-1.569,-0.019,-2.55,109.88,94.0,40.576591,-3.536811,630.2,6,5,113.6,0.352
110.64,1,0.009,0.028,-0.004,-0.013,-0.006,0.018,-1.569,-0.02,-2.552,109.88,94.0,40.576591,-3.536811,630.2,6,5,113.6,0.352
110.73,1,-0.063,-0.009,0.023,-0.02,-0.001,0.01,-1.571,-0.02,-2.554,109.88,94.0,40.576591,-3.536811,630.2,6,5,113.6,0.352
110.84,1,0.013,-0.032,0.035,-0.019,-0.022,0.026,-1.572,-0.027,-2.555,109.88,94.0,40.576591,-3.536811,630.2,6,5,113.6,0.352
110.93,1,0.031,-0.024,-0.002,0.007,-0.027,0.014,-1.572,-0.027,-2.557,109.88,94.0,40.576591,-3.536811,630.2,6,5,113.6,0.352
111.03,1,0.0,-0.001,0.008,0.01,-0.013,0.01,-1.572,-0.03,-2.559,109.88,94.0,40.576591,-3.536811,630.2,6,5,113.6,0.352
111.13,1,-0.036,-0.004,0.008,-0.015,-0.011,0.01,-1.571,-0.036,-2.562,109.88,94.0,40.576591,-3.536811,630.2,6,5,113.6,0.352
111.24,1,-0.029,0.071,-0.011,-0.023,0.025,-0.001,-1.571,-0.037,-2.565,109.88,94.0,40.576591,-3.536811,630.2,6,5,113.6,0.352
111.34,1,-0.046,0.05,0.006,-0.033,0.056,-0.0,-1.572,-0.038,-2.569,109.88,94.0,40.576591,-3.536811,630.2,6,5,113.6,0.352
111.44,1,-0.017,0.071,-0.001,-0.032,0.055,-0.001,-1.572,-0.038,-2.572,109.88,94.0,40.576591,-3.536811,630.2,6,5,113.6,0.352
111.54,1,-0.022,0.088,-0.0,-0.025,0.063,0.003,-1.573,-0.037,-2.575,110.87,94.2,40.576492,-3.536527,630.7,6,5,113.9,0.703
111.64,1,-0.023,0.002,0.001,-0.027,0.057,-0.003,-1.574,-0.035,-2.577,110.87,94.2,40.576492,-3.536527,630.7,6,5,113.9,0.703
111.74,1,0.022,0.089,0.004,-0.003,0.051,0.003,-1.574,-0.035,-2.58,110.87,94.2,40.576492,-3.536527,630.7,6,5,113.9,0.703
111.84,1,0.0,0.098,-0.006,0.008,0.081,-0.002,-1.574,-0.035,-2.583,110.87,94.2,40.576492,-3.536527,630.7,6,5,113.9,0.703
111.94,1,-0.03,0.01,0.012,-0.009,0.065,0.002,-1.574,-0.034,-2.586,110.87,94.2,40.576492,-3.536527,630.7,6,5,113.9,0.703
112.04,1,-0.014,-0.009,0.008,-0.017,0.014,0.009,-1.574,-0.033,-2.588,110.87,94.2,40.576492,-3.536527,630.7,6,5,113.9,0.703
112.14,1,-0.004,0.02,0.004,-0.009,0.01,0.01,-1.574,-0.033,-2.591,110.87,94.2,40.576492,-3.536527,630.7,6,5,113.9,0.703
112.24,1,-0.02,0.006,0.022,-0.015,0.003,0.009,-1.575,-0.033,-2.594,110.87,94.2,40.576492,-3.536527,630.7,6,5,113.9,0.703
112.34,1,-0.026,0.026,0.002,-0.026,0.018,0.011,-1.575,-0.033,-2.596,110.87,94.2,40.576492,-3.536527,630.7,6,5,113.9,0.703
112.45,1,-0.022,-0.006,0.019,-0.022,0.01,0.013,-1.576,-0.037,-2.599,110.87,94.2,40.576492,-3.536527,630.7,6,5,113.9,0.703
112.54,1,-0.012,0.002,-0.01,-0.016,0.005,0.005,-1.578,-0.034,-2.601,111.88,94.2,40.576393,-3.536242,630.4,6,5,114.6,1.055
112.65,1,-0.008,-0.002,-0.007,-0.009,0.002,-0.003,-1.579,-0.034,-2.602,111.88,94.2,40.576393,-3.536242,630.4,6,5,114.6,1.055
112.74,1,-0.067,0.012,-0.017,-0.034,0.01,-0.011,-1.579,-0.03,-2.604,111.88,94.2,40.576393,-3.536242,630.4,6,5,114.6,1.055
112.84,1,-0.037,0.005,0.019,-0.045,0.009,0.0,-1.579,-0.026,-2.606,111.88,94.2,40.576393,-3.536242,630.4,6,5,114.6,1.055
112.94,1,-0.007,0.02,-0.012,-0.023,0.007,-0.001,-1.579,-0.025,-2.607,111.88,94.2,40.576393,-3.536242,630.4,6,5,114.6,1.055
113.04,1,0.015,0.003,-0.003,-0.008,0.005,-0.004,-1.58,-0.026,-2.609,111.88,94.2,40.576393,-3.536242,630.4,6,5,114.6,1.055
113.14,1,0.001,-0.029,0.016,0.002,-0.007,0.001,-1.579,-0.031,-2.611,111.88,94.2,40.576393,-3.536242,630.4,6,5,114.6,1.055
113.24,1,-0.038,-0.004,0.008,-0.017,-0.012,0.01,-1.58,-0.033,-2.613,111.88,94.2,40.576393,-3.536242,630.4,6,5,114.6,1.055
113.34,1,-0.04,-0.006,0.008,-0.024,-0.004,0.011,-1.58,-0.035,-2.615,111.88,94.2,40.576393,-3.536242,630.4,6,5,114.6,1.055
113.44,1,-0.052,0.074,-0.04,-0.044,0.02,-0.011,-1.58,-0.028,-2.616,111.88,94.2,40.576393,-3.536242,630.4,6,5,114.6,1.055
113.54,1,0.008,0.02,-0.003,-0.021,0.038,-0.016,-1.58,-0.028,-2.619,112.86,94.5,40.576294,-3.535955,631.1,6,5,115.7,1.758
113.65,1,0.029,0.019,-0.004,0.008,0.026,-0.007,-1.58,-0.028,-2.62,112.86,94.5,40.576294,-3.535955,631.1,6,5,115.7,1.758
113.74,1,-0.024,-0.021,-0.005,-0.004,0.001,-0.004,-1.581,-0.027,-2.622,112.86,94.5,40.576294,-3.535955,631.1,6,5,115.7,1.758
113.85,1,-0.067,-0.035,0.006,-0.033,-0.015,-0.004,-1.582,-0.029,-2.624,112.86,94.5,40.576294,-3.535955,631.1,6,5,115.7,1.758
113.94,1,-0.051,-0.036,0.015,-0.052,-0.035,0.006,-1.583,-0.029,-2.625,112.86,94.5,40.576294,-3.535955,631.1,6,5,115.7,1.758
114.04,1,-0.016,0.066,-0.02,-0.035,0.012,-0.001,-1.583,-0.029,-2.627,112.86,94.5,40.576294,-3.535955,631.1,6,5,115.7,1.758
114.14,1,0.008,0.041,-0.007,-0.014,0.037,-0.006,-1.583,-0.029,-2.629,112.86,94.5,40.576294,-3.535955,631.1,6,5,115.7,1.758
114.24,1,0.008,0.023,0.006,-0.001,0.032,-0.004,-1.584,-0.031,-2.631,112.86,94.5,40.576294,-3.535955,631.1,6,5,115.7,1.758
114.35,1,-0.036,0.02,-0.003,-0.009,0.023,0.001,-1.585,-0.032,-2.633,112.86,94.5,40.576294,-3.535955,631.1,6,5,115.7,1.758
114.44,1,-0.039,0.011,-0.013,-0.031,0.02,-0.007,-1.584,-0.033,-2.636,112.86,94.5,40.576294,-3.535955,631.1,6,5,115.7,1.758
114.55,1,-0.016,0.023,0.011,-0.025,0.018,-0.001,-1.585,-0.036,-2.639,113.86,94.9,40.576191,-3.53568,631.5,6,5,116.7,2.109
114.65,1,-0.008,0.022,0.001,-0.014,0.019,0.006,-1.585,-0.039,-2.642,113.86,94.9,40.576191,-3.53568,631.5,6,5,116.7,2.109
114.75,1,0.022,-0.01,0.029,-0.0,0.012,0.011,-1.584,-0.041,-2.644,113.86,94.9,40.576191,-3.53568,631.5,6,5,116.7,2.109
114.85,1,0.013,0.018,-0.034,0.008,0.01,-0.0,-1.584,-0.039,-2.646,113.86,94.9,40.576191,-3.53568,631.5,6,5,116.7,2.109
114.96,1,-0.011,0.039,0.002,0.001,0.022,-0.008,-1.585,-0.039,-2.649,113.86,94.9,40.576191,-3.53568,631.5,6,5,116.7,2.109
115.06,1,0.01,0.028,0.006,0.004,0.026,-0.001,-1.585,-0.04,-2.651,113.86,94.9,40.576191,-3.53568,631.5,6,5,116.7,2.109
115.16,1,0.011,0.003,-0.0,0.008,0.021,0.001,-1.584,-0.041,-2.654,113.86,94.9,40.576191,-3.53568,631.5,6,5,116.7,2.109
115.25,1,-0.019,-0.005,0.006,-0.002,0.004,0.001,-1.584,-0.041,-2.656,113.86,94.9,40.576191,-3.53568,631.5,6,5,116.7,2.109
115.35,1,-0.004,-0.036,0.02,-0.007,-0.014,0.011,-1.583,-0.041,-2.658,113.86,94.9,40.576191,-3.53568,631.5,6,5,116.7,2.109
115.45,1,-0.036,-0.067,-0.038,-0.016,-0.042,-0.005,-1.583,-0.041,-2.661,113.86,94.9,40.576191,-3.53568,631.5,6,5,116.7,2.109
115.55,1,-0.067,-0.03,-0.027,-0.039,-0.045,-0.026,-1.583,-0.043,-2.663,114.96,95.0,40.576073,-3.535407,631.9,6,5,117.1,1.406
115.65,1,0.013,0.011,-0.051,-0.027,-0.017,-0.034,-1.582,-0.042,-2.665,114.96,95.0,40.576073,-3.535407,631.9,6,5,117.1,1.406
115.75,1,0.036,0.081,-0.08,0.003,0.02,-0.054,-1.582,-0.041,-2.667,114.96,95.0,40.576073,-3.535407,631.9,6,5,117.1,1.406
115.85,1,-0.046,0.026,-0.064,-0.001,0.042,-0.067,-1.582,-0.04,-2.669,114.96,95.0,40.576073,-3.535407,631.9,6,5,117.1,1.406
115.95,1,-0.041,0.023,-0.053,-0.032,0.037,-0.063,-1.583,-0.041,-2.672,114.96,95.0,40.576073,-3.535407,631.9,6,5,117.1,1.406
116.05,1,-0.019,-0.01,-0.045,-0.029,0.016,-0.046,-1.584,-0.041,-2.674,114.96,95.0,40.576073,-3.535407,631.9,6,5,117.1,1.406
116.15,1,0.036,-0.011,-0.035,-0.0,-0.003,-0.043,-1.583,-0.04,-2.675,114.96,95.0,40.576073,-3.535407,631.9,6,5,117.1,1.406
116.25,1,0.045,0.006,-0.032,0.033,0.002,-0.039,-1.578,-0.037,-2.677,114.96,95.0,40.576073,-3.535407,631.9,6,5,117.1,1.406
116.36,1,-0.037,0.04,-0.032,0.002,0.008,-0.035,-1.572,-0.043,-2.679,114.96,95.0,40.576073,-3.535407,631.9,6,5,117.1,1.406
116.45,1,-0.038,-0.035,0.025,-0.018,0.009,-0.008,-1.57,-0.049,-2.68,114.96,95.0,40.576073,-3.535407,631.9,6,5,117.1,1.406
116.55,1,0.006,0.001,0.002,-0.019,-0.012,0.005,-1.57,-0.049,-2.682,115.95,95.3,40.575954,-3.535125,632.7,6,5,118.1,1.406
116.65,1,0.021,0.024,-0.003,-0.004,0.0,-0.001,-1.57,-0.05,-2.683,115.95,95.3,40.575954,-3.535125,632.7,6,5,118.1,1.406
116.76,1,0.005,0.011,0.026,0.009,0.016,0.012,-1.57,-0.05,-2.685,115.95,95.3,40.575954,-3.535125,632.7,6,5,118.1,1.406
116.85,1,0.001,-0.012,0.017,0.009,0.003,0.013,-1.57,-0.05,-2.687,115.95,95.3,40.575954,-3.535125,632.7,6,5,118.1,1.406
116.95,1,-0.001,0.008,0.013,0.004,-0.002,0.016,-1.57,-0.051,-2.689,115.95,95.3,40.575954,-3.535125,632.7,6,5,118.1,1.406
117.05,1,-0.013,0.023,0.018,0.002,0.016,0.013,-1.571,-0.052,-2.69,115.95,95.3,40.575954,-3.535125,632.7,6,5,118.1,1.406
117.15,1,0.028,-0.033,0.016,0.001,0.0,0.018,-1.571,-0.052,-2.692,115.95,95.3,40.575954,-3.535125,632.7,6,5,118.1,1.406
117.26,1,0.032,-0.035,0.014,0.024,-0.024,0.019,-1.571,-0.053,-2.693,115.95,95.3,40.575954,-3.535125,632.7,6,5,118.1,1.406
117.37,1,-0.029,-0.017,0.014,0.0,-0.023,0.015,-1.574,-0.05,-2.695,115.95,95.3,40.575954,-3.535125,632.7,6,5,118.1,1.406
117.47,1,-0.025,-0.042,0.022,-0.022,-0.027,0.016,-1.577,-0.048,-2.696,115.95,95.3,40.575954,-3.535125,632.7,6,5,118.1,1.406
117.56,1,0.001,-0.033,0.004,-0.013,-0.037,0.015,-1.58,-0.046,-2.698,116.91,93.7,40.575832,-3.534864,633.3,6,5,119.2,2.109
117.66,1,-0.02,0.013,0.024,-0.008,-0.011,0.014,-1.583,-0.051,-2.699,116.91,93.7,40.575832,-3.534864,633.3,6,5,119.2,2.109
117.76,1,-0.028,0.001,-0.013,-0.024,-0.002,0.005,-1.584,-0.046,-2.701,116.91,93.7,40.575832,-3.534864,633.3,6,5,119.2,2.109
117.86,1,-0.02,-0.01,-0.02,-0.02,-0.004,-0.013,-1.586,-0.041,-2.702,116.91,93.7,40.575832,-3.534864,633.3,6,5,119.2,2.109
117.96,1,-0.024,0.029,-0.003,-0.021,0.005,-0.006,-1.587,-0.042,-2.703,116.91,93.7,40.575832,-3.534864,633.3,6,5,119.2,2.109
118.06,1,0.026,0.013,0.018,-0.004,0.014,0.004,-1.587,-0.043,-2.705,116.91,93.7,40.575832,-3.534864,633.3,6,5,119.2,2.109
118.16,1,-0.01,-0.023,-0.018,0.005,0.003,-0.004,-1.587,-0.043,-2.706,116.91,93.7,40.575832,-3.534864,633.3,6,5,119.2,2.109
118.26,1,0.01,-0.019,0.013,0.004,-0.017,0.003,-1.588,-0.044,-2.708,116.91,93.7,40.575832,-3.534864,633.3,6,5,119.2,2.109
118.37,1,-0.005,-0.012,-0.007,-0.008,-0.016,0.0,-1.586,-0.047,-2.709,116.91,93.7,40.575832,-3.534864,633.3,6,5,119.2,2.109
118.46,1,0.015,-0.027,-0.003,0.011,-0.015,-0.001,-1.585,-0.049,-2.71,116.91,93.7,40.575832,-3.534864,633.3,6,5,119.2,2.109
118.57,1,0.005,-0.001,-0.003,0.007,-0.015,-0.003,-1.585,-0.052,-2.712,117.94,93.6,40.575722,-3.534606,633.8,6,5,119.9,1.758
118.67,1,-0.017,-0.01,-0.027,-0.002,-0.009,-0.012,-1.583,-0.055,-2.713,117.94,93.6,40.575722,-3.534606,633.8,6,5,119.9,1.758
118.76,1,-0.052,-0.017,-0.013,-0.025,-0.012,-0.022,-1.582,-0.052,-2.714,117.94,93.6,40.575722,-3.534606,633.8,6,5,119.9,1.758
118.86,1,-0.064,-0.001,0.002,-0.051,-0.01,-0.007,-1.583,-0.053,-2.715,117.94,93.6,40.575722,-3.534606,633.8,6,5,119.9,1.758
118.96,1,-0.033,0.033,-0.009,-0.043,0.008,-0.004,-1.586,-0.054,-2.717,117.94,93.6,40.575722,-3.534606,633.8,6,5,119.9,1.758
119.06,1,0.037,0.01,-0.001,-0.015,0.015,-0.004,-1.588,-0.049,-2.718,117.94,93.6,40.575722,-3.534606,633.8,6,5,119.9,1.758
119.17,1,0.076,0.0,-0.024,0.035,0.004,-0.011,-1.584,-0.05,-2.719,117.94,93.6,40.575722,-3.534606,633.8,6,5,119.9,1.758
119.26,1,0.021,-0.02,-0.025,0.047,0.001,-0.021,-1.58,-0.048,-2.719,117.94,93.6,40.575722,-3.534606,633.8,6,5,119.9,1.758
119.36,1,-0.042,0.007,-0.023,0.006,0.001,-0.026,-1.58,-0.048,-2.72,117.94,93.6,40.575722,-3.534606,633.8,6,5,119.9,1.758
119.46,1,-0.055,-0.003,-0.013,-0.041,-0.006,-0.019,-1.58,-0.049,-2.72,117.94,93.6,40.575722,-3.534606,633.8,6,5,119.9,1.758
119.56,1,0.037,-0.024,-0.01,-0.007,-0.01,-0.007,-1.579,-0.049,-2.721,118.86,94.0,40.575603,-3.534346,634.4,6,5,120.6,1.406
119.66,1,0.06,-0.0,-0.013,0.031,-0.011,-0.013,-1.577,-0.048,-2.721,118.86,94.0,40.575603,-3.534346,634.4,6,5,120.6,1.406
119.77,1,-0.046,-0.021,-0.069,0.022,-0.012,-0.029,-1.572,-0.048,-2.721,118.86,94.0,40.575603,-3.534346,634.4,6,5,120.6,1.406
119.87,1,-0.189,-0.03,0.029,-0.096,-0.02,-0.025,-1.573,-0.048,-2.722,118.86,94.0,40.575603,-3.534346,634.4,6,5,120.6,1.406
119.96,1,-0.056,-0.034,0.049,-0.118,-0.03,0.024,-1.575,-0.051,-2.722,118.86,94.0,40.575603,-3.534346,634.4,6,5,120.6,1.406
120.06,1,0.155,-0.029,0.016,0.024,-0.029,0.023,-1.572,-0.051,-2.722,118.86,94.0,40.575603,-3.534346,634.4,6,5,120.6,1.406
120.17,1,0.066,-0.05,-0.041,0.074,-0.037,-0.004,-1.568,-0.05,-2.722,118.86,94.0,40.575603,-3.534346,634.4,6,5,120.6,1.406
120.27,1,-0.059,0.017,-0.003,0.012,-0.023,-0.016,-1.57,-0.04,-2.722,118.86,94.0,40.575603,-3.534346,634.4,6,5,120.6,1.406
120.37,1,-0.085,0.03,0.006,-0.044,0.007,-0.001,-1.573,-0.04,-2.722,118.86,94.0,40.575603,-3.534346,634.4,6,5,120.6,1.406
120.47,1,-0.04,0.005,0.005,-0.051,0.016,0.0,-1.572,-0.04,-2.723,118.86,94.0,40.575603,-3.534346,634.4,6,5,120.6,1.406
120.57,1,-0.004,-0.024,0.005,-0.028,-0.002,0.006,-1.571,-0.04,-2.723,119.88,93.9,40.575481,-3.534082,635.5,6,5,121.6,1.758
120.67,1,0.012,-0.037,0.001,0.0,-0.025,0.005,-1.57,-0.038,-2.723,119.88,93.9,40.575481,-3.534082,635.5,6,5,121.6,1.758
120.77,1,0.029,-0.06,0.012,0.014,-0.042,0.002,-1.569,-0.032,-2.723,119.88,93.9,40.575481,-3.534082,635.5,6,5,121.6,1.758
120.87,1,-0.012,-0.017,0.018,0.003,-0.036,0.013,-1.571,-0.035,-2.723,119.88,93.9,40.575481,-3.534082,635.5,6,5,121.6,1.758
121.07,1,-0.021,0.003,-0.004,-0.019,-0.003,0.013,-1.57,-0.037,-2.725,119.88,93.9,40.575481,-3.534082,635.5,6,5,121.6,1.758
121.17,1,-0.012,0.017,0.007,-0.016,0.006,0.005,-1.572,-0.037,-2.726,119.88,93.9,40.575481,-3.534082,635.5,6,5,121.6,1.758
121.27,1,-0.024,-0.003,0.004,-0.018,0.006,0.004,-1.575,-0.037,-2.727,119.88,93.9,40.575481,-3.534082,635.5,6,5,121.6,1.758
121.37,1,-0.066,-0.046,0.01,-0.039,-0.015,0.005,-1.576,-0.032,-2.727,119.88,93.9,40.575481,-3.534082,635.5,6,5,121.6,1.758
121.47,1,-0.026,-0.013,0.025,-0.046,-0.027,0.014,-1.575,-0.029,-2.727,119.88,93.9,40.575481,-3.534082,635.5,6,5,121.6,1.758
121.58,1,0.015,0.054,0.013,-0.013,0.006,0.021,-1.574,-0.03,-2.728,119.88,93.9,40.575481,-3.534082,635.5,6,5,121.6,1.758
121.67,1,0.046,0.069,-0.004,0.02,0.05,0.006,-1.573,-0.03,-2.729,120.88,93.7,40.575363,-3.533816,635.9,6,5,121.6,1.055
121.77,1,0.017,0.05,-0.009,0.027,0.055,-0.003,-1.573,-0.029,-2.73,120.88,93.7,40.575363,-3.533816,635.9,6,5,121.6,1.055
121.87,1,-0.037,0.034,0.011,-0.001,0.044,0.001,-1.573,-0.029,-2.73,120.88,93.7,40.575363,-3.533816,635.9,6,5,121.6,1.055
121.98,1,-0.051,-0.02,0.024,-0.036,0.012,0.015,-1.574,-0.03,-2.73,120.88,93.7,40.575363,-3.533816,635.9,6,5,121.6,1.055
122.07,1,-0.005,0.044,-0.004,-0.025,0.022,0.01,-1.573,-0.031,-2.73,120.88,93.7,40.575363,-3.533816,635.9,6,5,121.6,1.055
122.18,1,0.003,0.037,0.013,-0.01,0.034,0.003,-1.572,-0.031,-2.731,120.88,93.7,40.575363,-3.533816,635.9,6,5,121.6,1.055
122.28,1,0.012,0.015,0.009,0.004,0.028,0.01,-1.571,-0.031,-2.731,120.88,93.7,40.575363,-3.533816,635.9,6,5,121.6,1.055
122.37,1,0.023,0.003,0.012,0.012,0.017,0.01,-1.57,-0.028,-2.731,120.88,93.7,40.575363,-3.533816,635.9,6,5,121.6,1.055
122.47,1,-0.051,-0.059,-0.006,-0.009,-0.026,0.007,-1.57,-0.022,-2.729,120.88,93.7,40.575363,-3.533816,635.9,6,5,121.6,1.055
122.57,1,-0.067,-0.055,0.032,-0.043,-0.037,0.009,-1.573,-0.013,-2.727,120.88,93.7,40.575363,-3.533816,635.9,6,5,121.6,1.055
122.67,1,-0.024,0.016,-0.01,-0.041,-0.025,0.012,-1.573,-0.013,-2.725,121.89,93.5,40.575237,-3.533556,636.8,6,5,122.7,1.055
122.77,1,-0.0,-0.007,0.013,-0.022,-0.01,0.005,-1.572,-0.014,-2.724,121.89,93.5,40.575237,-3.533556,636.8,6,5,122.7,1.055
122.88,1,0.009,-0.02,0.012,-0.006,-0.014,0.007,-1.573,-0.015,-2.722,121.89,93.5,40.575237,-3.533556,636.8,6,5,122.7,1.055
122.98,1,0.017,-0.016,0.024,0.01,-0.011,0.017,-1.575,-0.01,-2.721,121.89,93.5,40.575237,-3.533556,636.8,6,5,122.7,1.055
123.08,1,0.024,-0.084,0.011,0.017,-0.042,0.016,-1.577,-0.009,-2.719,121.89,93.5,40.575237,-3.533556,636.8,6,5,122.7,1.055
123.18,1,-0.009,-0.056,0.017,0.009,-0.062,0.015,-1.576,-0.011,-2.717,121.89,93.5,40.575237,-3.533556,636.8,6,5,122.7,1.055
123.28,1,-0.013,-0.033,0.018,-0.004,-0.049,0.017,-1.576,-0.013,-2.716,121.89,93.5,40.575237,-3.533556,636.8,6,5,122.7,1.055
123.39,1,-0.017,-0.001,-0.009,-0.01,-0.025,0.007,-1.578,-0.017,-2.715,121.89,93.5,40.575237,-3.533556,636.8,6,5,122.7,1.055
123.49,1,-0.068,-0.013,0.008,-0.035,-0.012,0.004,-1.58,-0.017,-2.714,121.89,93.5,40.575237,-3.533556,636.8,6,5,122.7,1.055
123.58,1,-0.059,-0.021,0.007,-0.053,-0.014,0.005,-1.581,-0.024,-2.713,121.89,93.5,40.575237,-3.533556,636.8,6,5,122.7,1.055
123.68,1,-0.021,0.029,-0.012,-0.044,-0.004,0.0,-1.58,-0.026,-2.712,122.87,93.5,40.575111,-3.533301,637.2,6,5,123.4,1.758
123.78,1,-0.008,0.075,-0.004,-0.02,0.045,-0.003,-1.58,-0.026,-2.712,122.87,93.5,40.575111,-3.533301,637.2,6,5,123.4,1.758
123.88,1,-0.033,0.035,-0.006,-0.022,0.042,-0.006,-1.58,-0.026,-2.712,122.87,93.5,40.575111,-3.533301,637.2,6,5,123.4,1.758
123.98,1,0.021,0.031,0.003,-0.01,0.033,-0.002,-1.58,-0.024,-2.712,122.87,93.5,40.575111,-3.533301,637.2,6,5,123.4,1.758
124.08,1,0.01,0.018,0.002,0.005,0.026,0.001,-1.579,-0.028,-2.713,122.87,93.5,40.575111,-3.533301,637.2,6,5,123.4,1.758
124.18,1,-0.063,0.052,0.016,-0.022,0.033,0.007,-1.579,-0.027,-2.714,122.87,93.5,40.575111,-3.533301,637.2,6,5,123.4,1.758
124.28,1,-0.017,0.059,0.01,-0.029,0.05,0.009,-1.579,-0.034,-2.715,122.87,93.5,40.575111,-3.533301,637.2,6,5,123.4,1.758
124.38,1,-0.034,-0.01,0.002,-0.027,0.033,0.006,-1.579,-0.036,-2.716,122.87,93.5,40.575111,-3.533301,637.2,6,5,123.4,1.758
124.48,1,-0.014,0.043,0.003,-0.026,0.022,0.005,-1.58,-0.048,-2.717,122.87,93.5,40.575111,-3.533301,637.2,6,5,123.4,1.758
124.58,1,0.027,0.031,0.005,-0.001,0.032,0.006,-1.581,-0.055,-2.72,122.87,93.5,40.575111,-3.533301,637.2,6,5,123.4,1.758
124.68,1,0.007,0.045,0.028,0.009,0.041,0.008,-1.582,-0.058,-2.722,123.92,93.7,40.574986,-3.533051,637.7,6,5,123.0,0.352
124.78,1,-0.016,0.056,0.006,-0.003,0.047,0.016,-1.585,-0.057,-2.724,123.92,93.7,40.574986,-3.533051,637.7,6,5,123.0,0.352
124.89,1,-0.052,0.02,-0.012,-0.026,0.035,0.001,-1.588,-0.058,-2.725,123.92,93.7,40.574986,-3.533051,637.7,6,5,123.0,0.352
124.98,1,-0.014,0.007,0.003,-0.029,0.019,0.001,-1.588,-0.057,-2.725,123.92,93.7,40.574986,-3.533051,637.7,6,5,123.0,0.352
125.09,1,-0.027,-0.016,-0.005,-0.024,-0.001,-0.001,-1.587,-0.055,-2.725,123.92,93.7,40.574986,-3.533051,637.7,6,5,123.0,0.352
125.18,1,-0.034,-0.041,0.015,-0.026,-0.022,0.007,-1.587,-0.049,-2.725,123.92,93.7,40.574986,-3.533051,637.7,6,5,123.0,0.352
125.28,1,-0.044,-0.043,0.001,-0.035,-0.031,0.002,-1.586,-0.047,-2.725,123.92,93.7,40.574986,-3.533051,637.7,6,5,123.0,0.352
125.38,1,-0.048,-0.011,0.015,-0.046,-0.029,0.008,-1.586,-0.05,-2.725,123.92,93.7,40.574986,-3.533051,637.7,6,5,123.0,0.352
125.48,1,0.013,0.024,0.001,-0.018,0.005,0.007,-1.586,-0.046,-2.725,123.92,93.7,40.574986,-3.533051,637.7,6,5,123.0,0.352
125.59,1,0.041,0.01,-0.002,0.01,0.006,0.003,-1.587,-0.044,-2.725,123.92,93.7,40.574986,-3.533051,637.7,6,5,123.0,0.352
125.68,1,0.021,0.021,-0.028,0.022,0.014,-0.008,-1.587,-0.044,-2.724,124.88,94.1,40.57486,-3.532789,638.7,6,5,123.0,0.352
125.79,1,-0.017,-0.028,0.024,0.004,-0.006,-0.0,-1.587,-0.044,-2.722,124.88,94.1,40.57486,-3.532789,638.7,6,5,123.0,0.352
125.89,1,-0.03,-0.009,-0.007,-0.012,-0.008,-0.001,-1.587,-0.046,-2.721,124.88,94.1,40.57486,-3.532789,638.7,6,5,123.0,0.352
125.99,1,-0.013,-0.027,0.006,-0.018,-0.015,0.001,-1.586,-0.047,-2.719,124.88,94.1,40.57486,-3.532789,638.7,6,5,123.0,0.352
126.09,1,-0.001,-0.043,-0.017,-0.011,-0.026,-0.003,-1.585,-0.047,-2.717,124.88,94.1,40.57486,-3.532789,638.7,6,5,123.0,0.352
126.19,1,-0.018,-0.037,0.003,-0.008,-0.041,-0.002,-1.585,-0.046,-2.714,124.88,94.1,40.57486,-3.532789,638.7,6,5,123.0,0.352
126.29,1,-0.045,-0.022,-0.002,-0.025,-0.029,-0.002,-1.586,-0.044,-2.712,124.88,94.1,40.57486,-3.532789,638.7,6,5,123.0,0.352
126.39,1,-0.05,-0.1,0.002,-0.037,-0.06,-0.002,-1.586,-0.042,-2.71,124.88,94.1,40.57486,-3.532789,638.7,6,5,123.0,0.352
126.49,1,-0.023,-0.066,0.004,-0.039,-0.069,0.002,-1.586,-0.042,-2.708,124.88,94.1,40.57486,-3.532789,638.7,6,5,123.0,0.352
126.59,1,0.015,-0.054,-0.006,-0.011,-0.063,0.001,-1.586,-0.034,-2.705,124.88,94.1,40.57486,-3.532789,638.7,6,5,123.0,0.352
126.69,1,-0.005,-0.051,0.005,-0.004,-0.055,-0.002,-1.585,-0.026,-2.703,125.95,94.1,40.57473,-3.532525,639.2,6,5,124.1,1.055
126.8,1,-0.031,-0.046,0.015,-0.015,-0.053,0.008,-1.587,-0.019,-2.701,125.95,94.1,40.57473,-3.532525,639.2,6,5,124.1,1.055
126.9,1,-0.038,-0.049,0.014,-0.031,-0.045,0.012,-1.59,-0.022,-2.699,125.95,94.1,40.57473,-3.532525,639.2,6,5,124.1,1.055
126.99,1,-0.009,-0.053,-0.007,-0.02,-0.051,0.005,-1.589,-0.022,-2.696,125.95,94.1,40.57473,-3.532525,639.2,6,5,124.1,1.055
127.09,1,0.015,-0.035,-0.008,-0.007,-0.046,-0.004,-1.589,-0.02,-2.693,125.95,94.1,40.57473,-3.532525,639.2,6,5,124.1,1.055
127.19,1,0.014,-0.04,0.016,0.005,-0.047,0.006,-1.589,-0.02,-2.69,125.95,94.1,40.57473,-3.532525,639.2,6,5,124.1,1.055
127.29,1,0.023,-0.059,0.003,0.02,-0.041,0.005,-1.588,-0.019,-2.687,125.95,94.1,40.57473,-3.532525,639.2,6,5,124.1,1.055
127.39,1,0.011,-0.038,-0.026,0.014,-0.05,-0.007,-1.587,-0.02,-2.684,125.95,94.1,40.57473,-3.532525,639.2,6,5,124.1,1.055
127.5,1,-0.009,-0.024,-0.005,0.003,-0.037,-0.01,-1.587,-0.021,-2.681,125.95,94.1,40.57473,-3.532525,639.2,6,5,124.1,1.055
127.59,1,-0.041,-0.048,-0.003,-0.012,-0.032,-0.007,-1.587,-0.021,-2.679,125.95,94.1,40.57473,-3.532525,639.2,6,5,124.1,1.055
127.69,1,-0.033,-0.099,0.013,-0.032,-0.066,0.001,-1.587,-0.022,-2.676,126.87,94.6,40.5746,-3.532279,639.7,6,5,124.1,1.055
127.79,1,-0.036,-0.067,-0.007,-0.034,-0.076,0.0,-1.588,-0.024,-2.673,126.87,94.6,40.5746,-3.532279,639.7,6,5,124.1,1.055
127.89,1,-0.017,-0.102,0.013,-0.031,-0.083,0.006,-1.588,-0.024,-2.67,126.87,94.6,40.5746,-3.532279,639.7,6,5,124.1,1.055
128.0,1,0.037,-0.068,0.01,0.003,-0.082,0.009,-1.588,-0.02,-2.666,126.87,94.6,40.5746,-3.532279,639.7,6,5,124.1,1.055
128.1,1,0.022,-0.048,-0.001,0.02,-0.065,0.005,-1.586,-0.013,-2.662,126.87,94.6,40.5746,-3.532279,639.7,6,5,124.1,1.055
128.21,1,-0.015,-0.032,-0.006,0.009,-0.05,0.0,-1.583,-0.005,-2.659,126.87,94.6,40.5746,-3.532279,639.7,6,5,124.1,1.055
128.29,1,-0.046,0.001,-0.014,-0.021,-0.024,-0.01,-1.586,0.009,-2.656,126.87,94.6,40.5746,-3.532279,639.7,6,5,124.1,1.055
128.39,1,-0.031,-0.003,0.003,-0.033,-0.008,-0.004,-1.587,0.013,-2.653,126.87,94.6,40.5746,-3.532279,639.7,6,5,124.1,1.055
128.49,1,-0.016,-0.023,0.001,-0.026,-0.012,-0.002,-1.586,0.014,-2.651,126.87,94.6,40.5746,-3.532279,639.7,6,5,124.1,1.055
128.6,1,0.001,-0.003,0.013,-0.017,-0.012,0.004,-1.585,0.01,-2.649,126.87,94.6,40.5746,-3.532279,639.7,6,5,124.1,1.055
128.7,1,-0.003,-0.002,0.011,-0.002,-0.008,0.014,-1.589,0.009,-2.647,127.88,95.2,40.574471,-3.532011,640.7,6,5,123.0,1.055
128.8,1,-0.003,0.012,0.001,-0.002,0.0,0.004,-1.589,0.013,-2.645,127.88,95.2,40.574471,-3.532011,640.7,6,5,123.0,1.055
128.9,1,-0.013,0.012,0.005,-0.004,0.012,0.006,-1.589,0.015,-2.643,127.88,95.2,40.574471,-3.532011,640.7,6,5,123.0,1.055
129.0,1,-0.011,0.017,-0.0,-0.012,0.014,0.001,-1.588,0.01,-2.641,127.88,95.2,40.574471,-3.532011,640.7,6,5,123.0,1.055
129.11,1,-0.008,0.004,-0.013,-0.013,0.008,-0.004,-1.59,0.007,-2.639,127.88,95.2,40.574471,-3.532011,640.7,6,5,123.0,1.055
129.2,1,0.008,-0.022,-0.003,-0.0,-0.004,-0.003,-1.591,0.008,-2.637,127.88,95.2,40.574471,-3.532011,640.7,6,5,123.0,1.055
129.3,1,0.007,-0.012,-0.007,0.008,-0.01,-0.007,-1.59,0.008,-2.634,127.88,95.2,40.574471,-3.532011,640.7,6,5,123.0,1.055
129.4,1,-0.001,0.01,-0.001,0.0,-0.002,-0.002,-1.59,0.007,-2.632,127.88,95.2,40.574471,-3.532011,640.7,6,5,123.0,1.055
129.5,1,-0.005,0.024,0.022,-0.003,0.009,0.006,-1.591,0.007,-2.63,127.88,95.2,40.574471,-3.532011,640.7,6,5,123.0,1.055
129.6,1,0.009,0.024,-0.02,0.001,0.025,-0.002,-1.591,0.001,-2.629,127.88,95.2,40.574471,-3.532011,640.7,6,5,123.0,1.055
129.7,1,-0.007,0.04,-0.01,-0.003,0.023,-0.009,-1.59,-0.002,-2.626,128.89,95.7,40.574345,-3.531751,641.4,6,5,121.3,2.812
129.81,1,-0.007,0.02,-0.004,-0.001,0.034,-0.008,-1.59,-0.002,-2.625,128.89,95.7,40.574345,-3.531751,641.4,6,5,121.3,2.812
129.91,1,-0.027,-0.035,-0.005,-0.013,-0.001,-0.005,-1.59,-0.002,-2.623,128.89,95.7,40.574345,-3.531751,641.4,6,5,121.3,2.812
130.0,1,-0.027,-0.03,-0.035,-0.018,-0.018,-0.017,-1.59,-0.003,-2.621,128.89,95.7,40.574345,-3.531751,641.4,6,5,121.3,2.812
130.1,1,-0.034,-0.02,-0.053,-0.031,-0.022,-0.036,-1.589,-0.003,-2.619,128.89,95.7,40.574345,-3.531751,641.4,6,5,121.3,2.812
130.2,1,0.005,-0.014,-0.037,-0.016,-0.018,-0.039,-1.589,-0.002,-2.617,128.89,95.7,40.574345,-3.531751,641.4,6,5,121.3,2.812
130.3,1,-0.02,-0.017,-0.019,-0.008,-0.021,-0.03,-1.587,0.0,-2.615,128.89,95.7,40.574345,-3.531751,641.4,6,5,121.3,2.812
130.4,1,0.003,0.012,-0.021,-0.01,-0.004,-0.026,-1.584,-0.002,-2.614,128.89,95.7,40.574345,-3.531751,641.4,6,5,121.3,2.812
130.51,1,0.0,0.045,-0.03,-0.004,0.02,-0.025,-1.582,-0.006,-2.614,128.89,95.7,40.574345,-3.531751,641.4,6,5,121.3,2.812
130.6,1,-0.006,0.03,-0.007,-0.008,0.03,-0.02,-1.583,-0.003,-2.613,128.89,95.7,40.574345,-3.531751,641.4,6,5,121.3,2.812
130.7,1,0.005,0.036,-0.01,-0.001,0.031,-0.014,-1.584,-0.005,-2.613,129.87,96.0,40.574223,-3.531487,641.9,6,5,120.6,2.461
130.8,1,-0.021,0.021,-0.01,-0.006,0.031,-0.011,-1.585,-0.009,-2.612,129.87,96.0,40.574223,-3.531487,641.9,6,5,120.6,2.461
131.0,1,0.006,0.028,0.006,-0.005,0.005,0.004,-1.589,-0.005,-2.611,129.87,96.0,40.574223,-3.531487,641.9,6,5,120.6,2.461
131.11,1,-0.028,0.021,0.001,-0.011,0.021,0.004,-1.589,-0.005,-2.61,129.87,96.0,40.574223,-3.531487,641.9,6,5,120.6,2.461
131.2,1,-0.03,0.05,-0.028,-0.021,0.031,-0.009,-1.591,-0.006,-2.61,129.87,96.0,40.574223,-3.531487,641.9,6,5,120.6,2.461
131.31,1,-0.016,0.044,-0.013,-0.016,0.043,-0.018,-1.591,-0.006,-2.61,129.87,96.0,40.574223,-3.531487,641.9,6,5,120.6,2.461
131.41,1,0.005,0.036,-0.007,-0.008,0.041,-0.011,-1.591,-0.005,-2.609,129.87,96.0,40.574223,-3.531487,641.9,6,5,120.6,2.461
131.51,1,-0.008,0.025,-0.015,-0.013,0.034,-0.012,-1.593,-0.006,-2.609,129.87,96.0,40.574223,-3.531487,641.9,6,5,120.6,2.461
131.61,1,-0.002,0.035,0.005,-0.003,0.027,-0.002,-1.591,-0.009,-2.608,129.87,96.0,40.574223,-3.531487,641.9,6,5,120.6,2.461
131.72,1,-0.002,0.034,-0.008,-0.004,0.034,-0.007,-1.591,-0.005,-2.608,129.87,96.0,40.574223,-3.531487,641.9,6,5,120.6,2.461
131.82,1,0.012,0.018,-0.004,0.006,0.031,-0.005,-1.592,-0.01,-2.607,130.86,95.9,40.5741,-3.531216,642.6,6,5,119.9,1.406
131.91,1,-0.02,0.016,-0.013,-0.004,0.02,-0.007,-1.592,-0.013,-2.607,130.86,95.9,40.5741,-3.531216,642.6,6,5,119.9,1.406
132.01,1,-0.039,-0.0,0.01,-0.023,0.011,-0.006,-1.592,-0.013,-2.606,130.86,95.9,40.5741,-3.531216,642.6,6,5,119.9,1.406
132.11,1,-0.044,0.003,-0.004,-0.042,0.004,0.0,-1.592,-0.013,-2.605,130.86,95.9,40.5741,-3.531216,642.6,6,5,119.9,1.406
132.21,1,0.023,-0.005,0.004,-0.015,-0.0,0.005,-1.592,-0.009,-2.605,130.86,95.9,40.5741,-3.531216,642.6,6,5,119.9,1.406
132.31,1,0.008,-0.002,0.005,0.009,-0.002,0.001,-1.592,-0.007,-2.604,130.86,95.9,40.5741,-3.531216,642.6,6,5,119.9,1.406
