Timestamp_Accel,SystemActivated,accelerometerXAxis,accelerometerYAxis,accelerometerZAxis,AccelX_KF,AccelY_KF,AccelZ_KF,gyroscopeXAxis,gyroscopeYAxis,gyroscopeZAxis,Timestamp_GPS,Speed,latitude,longitude,Altitude,VerticalAccuracy,HorizontalAccuracy,Course,Difcourse
22.98,1,0.014,0.049,0.04,0.021,0.028,0.038,-1.583,0.005,-0.063,22.97,82.9,40.584267,-3.55267,615.1,4,5,100.9,1.055
23.07,1,0.028,0.083,0.03,0.014,0.056,0.035,-1.586,-0.001,-0.065,22.97,82.9,40.584267,-3.55267,615.1,4,5,100.9,1.055
23.17,1,0.038,0.065,0.019,0.032,0.067,0.026,-1.587,-0.008,-0.068,22.97,82.9,40.584267,-3.55267,615.1,4,5,100.9,1.055
23.28,1,-0.028,0.053,-0.005,0.01,0.058,0.014,-1.586,-0.008,-0.07,22.97,82.9,40.584267,-3.55267,615.1,4,5,100.9,1.055
23.38,1,0.027,0.041,0.017,0.012,0.052,0.014,-1.584,-0.01,-0.073,22.97,82.9,40.584267,-3.55267,615.1,4,5,100.9,1.055
23.48,1,0.025,0.05,-0.004,0.017,0.05,0.001,-1.582,-0.013,-0.077,22.97,82.9,40.584267,-3.55267,615.1,4,5,100.9,1.055
23.57,1,0.008,0.047,-0.007,0.016,0.047,0.005,-1.583,-0.017,-0.08,22.97,82.9,40.584267,-3.55267,615.1,4,5,100.9,1.055
23.68,1,-0.029,0.058,-0.025,-0.002,0.054,-0.014,-1.581,-0.021,-0.082,22.97,82.9,40.584267,-3.55267,615.1,4,5,100.9,1.055
23.78,1,-0.06,0.063,-0.014,-0.041,0.051,-0.019,-1.581,-0.02,-0.085,22.97,82.9,40.584267,-3.55267,615.1,4,5,100.9,1.055
23.88,1,-0.028,0.03,0.024,-0.044,0.054,0.003,-1.582,-0.019,-0.088,22.97,82.9,40.584267,-3.55267,615.1,4,5,100.9,1.055
23.99,1,0.022,0.021,-0.016,-0.012,0.032,0.001,-1.58,-0.018,-0.091,23.98,83.9,40.584221,-3.552398,615.9,4,5,102.3,2.461
24.08,1,0.02,0.02,-0.03,0.021,0.025,-0.014,-1.576,-0.017,-0.093,23.98,83.9,40.584221,-3.552398,615.9,4,5,102.3,2.461
24.19,1,-0.062,0.019,-0.031,-0.022,0.022,-0.029,-1.575,-0.018,-0.095,23.98,83.9,40.584221,-3.552398,615.9,4,5,102.3,2.461
24.28,1,0.003,0.045,-0.002,-0.021,0.03,-0.02,-1.576,-0.02,-0.097,23.98,83.9,40.584221,-3.552398,615.9,4,5,102.3,2.461
24.38,1,-0.008,0.021,-0.017,-0.008,0.031,-0.01,-1.577,-0.023,-0.099,23.98,83.9,40.584221,-3.552398,615.9,4,5,102.3,2.461
24.48,1,-0.005,-0.007,-0.037,-0.009,0.013,-0.029,-1.573,-0.021,-0.101,23.98,83.9,40.584221,-3.552398,615.9,4,5,102.3,2.461
24.58,1,-0.002,-0.005,-0.044,0.0,0.001,-0.034,-1.572,-0.022,-0.103,23.98,83.9,40.584221,-3.552398,615.9,4,5,102.3,2.461
24.68,1,0.004,-0.023,-0.014,0.001,-0.012,-0.03,-1.57,-0.022,-0.104,23.98,83.9,40.584221,-3.552398,615.9,4,5,102.3,2.461
24.78,1,0.034,0.004,-0.012,0.012,-0.01,-0.02,-1.567,-0.023,-0.105,23.98,83.9,40.584221,-3.552398,615.9,4,5,102.3,2.461
24.88,1,0.012,-0.025,-0.054,0.024,-0.015,-0.029,-1.562,-0.025,-0.107,23.98,83.9,40.584221,-3.552398,615.9,4,5,102.3,2.461
24.98,1,-0.047,-0.012,-0.031,-0.013,-0.014,-0.04,-1.56,-0.022,-0.108,24.96,84.0,40.584171,-3.552128,616.2,4,5,104.1,3.164
25.08,1,-0.023,-0.011,-0.022,-0.028,-0.011,-0.026,-1.562,-0.021,-0.11,24.96,84.0,40.584171,-3.552128,616.2,4,5,104.1,3.164
25.19,1,0.004,0.005,-0.033,-0.011,-0.001,-0.026,-1.559,-0.023,-0.111,24.96,84.0,40.584171,-3.552128,616.2,4,5,104.1,3.164
25.28,1,-0.005,0.005,-0.041,-0.002,-0.001,-0.035,-1.557,-0.025,-0.113,24.96,84.0,40.584171,-3.552128,616.2,4,5,104.1,3.164
25.38,1,-0.0,0.011,-0.039,-0.004,0.003,-0.039,-1.554,-0.027,-0.115,24.96,84.0,40.584171,-3.552128,616.2,4,5,104.1,3.164
25.48,1,0.001,0.006,-0.021,-0.003,0.006,-0.034,-1.551,-0.029,-0.117,24.96,84.0,40.584171,-3.552128,616.2,4,5,104.1,3.164
25.58,1,-0.003,-0.007,-0.021,0.0,0.003,-0.023,-1.55,-0.028,-0.118,24.96,84.0,40.584171,-3.552128,616.2,4,5,104.1,3.164
25.68,1,0.004,0.008,-0.01,0.003,0.001,-0.018,-1.548,-0.029,-0.12,24.96,84.0,40.584171,-3.552128,616.2,4,5,104.1,3.164
25.78,1,-0.024,-0.013,-0.012,-0.01,-0.002,-0.012,-1.548,-0.028,-0.121,24.96,84.0,40.584171,-3.552128,616.2,4,5,104.1,3.164
25.89,1,0.003,-0.018,0.008,-0.007,-0.008,-0.006,-1.548,-0.026,-0.122,24.96,84.0,40.584171,-3.552128,616.2,4,5,104.1,3.164
25.98,1,-0.034,-0.005,0.011,-0.013,-0.012,0.006,-1.551,-0.027,-0.124,25.96,84.4,40.584114,-3.551856,616.3,4,5,105.8,3.516
26.09,1,-0.01,-0.012,0.019,-0.028,-0.01,0.011,-1.552,-0.027,-0.125,25.96,84.4,40.584114,-3.551856,616.3,4,5,105.8,3.516
26.18,1,0.011,-0.003,0.029,0.003,-0.009,0.019,-1.553,-0.028,-0.126,25.96,84.4,40.584114,-3.551856,616.3,4,5,105.8,3.516
26.28,1,0.03,0.007,0.055,0.019,-0.001,0.035,-1.555,-0.029,-0.127,25.96,84.4,40.584114,-3.551856,616.3,4,5,105.8,3.516
26.39,1,-0.054,-0.001,0.035,-0.013,0.004,0.038,-1.561,-0.029,-0.129,25.96,84.4,40.584114,-3.551856,616.3,4,5,105.8,3.516
26.48,1,-0.01,-0.002,0.063,-0.03,0.001,0.049,-1.566,-0.028,-0.13,25.96,84.4,40.584114,-3.551856,616.3,4,5,105.8,3.516
26.59,1,-0.013,-0.009,0.045,-0.01,-0.006,0.053,-1.57,-0.029,-0.131,25.96,84.4,40.584114,-3.551856,616.3,4,5,105.8,3.516
26.68,1,-0.027,-0.015,0.05,-0.018,-0.014,0.047,-1.573,-0.029,-0.133,25.96,84.4,40.584114,-3.551856,616.3,4,5,105.8,3.516
26.78,1,0.007,-0.018,0.048,-0.009,-0.012,0.05,-1.577,-0.031,-0.134,25.96,84.4,40.584114,-3.551856,616.3,4,5,105.8,3.516
26.88,1,-0.012,0.01,0.046,-0.01,-0.002,0.052,-1.583,-0.032,-0.135,25.96,84.4,40.584114,-3.551856,616.3,4,5,105.8,3.516
26.98,1,-0.034,0.05,0.032,-0.019,0.016,0.037,-1.585,-0.033,-0.137,26.97,84.1,40.584053,-3.55158,616.3,4,5,106.2,2.109
27.09,1,0.025,-0.009,0.048,-0.013,0.016,0.041,-1.59,-0.034,-0.139,26.97,84.1,40.584053,-3.55158,616.3,4,5,106.2,2.109
27.19,1,0.023,-0.017,0.029,0.015,0.002,0.037,-1.594,-0.034,-0.141,26.97,84.1,40.584053,-3.55158,616.3,4,5,106.2,2.109
27.3,1,-0.059,0.024,0.006,-0.008,0.003,0.022,-1.596,-0.035,-0.144,26.97,84.1,40.584053,-3.55158,616.3,4,5,106.2,2.109
27.4,1,-0.022,0.045,0.048,-0.031,0.024,0.03,-1.599,-0.041,-0.147,26.97,84.1,40.584053,-3.55158,616.3,4,5,106.2,2.109
27.49,1,0.001,0.033,0.031,-0.011,0.033,0.034,-1.602,-0.046,-0.151,26.97,84.1,40.584053,-3.55158,616.3,4,5,106.2,2.109
27.59,1,0.003,0.057,0.012,-0.003,0.044,0.022,-1.603,-0.051,-0.154,26.97,84.1,40.584053,-3.55158,616.3,4,5,106.2,2.109
27.69,1,0.011,0.034,0.024,0.001,0.04,0.022,-1.605,-0.054,-0.157,26.97,84.1,40.584053,-3.55158,616.3,4,5,106.2,2.109
27.79,1,0.003,-0.004,-0.003,0.011,0.022,0.014,-1.605,-0.055,-0.159,26.97,84.1,40.584053,-3.55158,616.3,4,5,106.2,2.109
27.89,1,-0.037,0.004,0.019,-0.013,0.007,0.011,-1.607,-0.055,-0.162,26.97,84.1,40.584053,-3.55158,616.3,4,5,106.2,2.109
27.99,1,-0.037,0.009,0.021,-0.032,0.006,0.017,-1.608,-0.057,-0.164,27.97,86.0,40.583992,-3.551313,616.8,4,5,107.9,2.109
28.09,1,0.004,-0.002,0.022,-0.018,0.006,0.021,-1.609,-0.057,-0.167,27.97,86.0,40.583992,-3.551313,616.8,4,5,107.9,2.109
28.19,1,0.034,-0.01,0.007,0.009,0.0,0.018,-1.61,-0.056,-0.168,27.97,86.0,40.583992,-3.551313,616.8,4,5,107.9,2.109
28.3,1,-0.001,-0.014,-0.004,0.014,-0.011,0.002,-1.608,-0.052,-0.169,27.97,86.0,40.583992,-3.551313,616.8,4,5,107.9,2.109
28.39,1,-0.01,-0.018,0.011,-0.002,-0.013,0.007,-1.611,-0.048,-0.17,27.97,86.0,40.583992,-3.551313,616.8,4,5,107.9,2.109
28.49,1,-0.029,-0.032,-0.015,-0.01,-0.024,-0.001,-1.613,-0.048,-0.171,27.97,86.0,40.583992,-3.551313,616.8,4,5,107.9,2.109
28.59,1,-0.045,0.001,-0.002,-0.036,-0.016,-0.005,-1.612,-0.049,-0.173,27.97,86.0,40.583992,-3.551313,616.8,4,5,107.9,2.109
28.69,1,0.018,0.036,0.012,-0.015,0.008,-0.001,-1.612,-0.053,-0.176,27.97,86.0,40.583992,-3.551313,616.8,4,5,107.9,2.109
28.79,1,0.003,0.031,0.014,0.001,0.025,0.012,-1.613,-0.058,-0.179,27.97,86.0,40.583992,-3.551313,616.8,4,5,107.9,2.109
28.89,1,-0.025,0.013,-0.016,-0.008,0.025,-0.006,-1.612,-0.06,-0.181,27.97,86.0,40.583992,-3.551313,616.8,4,5,107.9,2.109
29.0,1,-0.021,0.024,0.026,-0.017,0.023,0.011,-1.616,-0.061,-0.183,28.97,88.1,40.58392,-3.551044,617.3,4,5,110.4,4.219
29.1,1,0.015,0.039,-0.009,-0.006,0.023,0.007,-1.615,-0.059,-0.186,28.97,88.1,40.58392,-3.551044,617.3,4,5,110.4,4.219
29.19,1,-0.016,0.026,-0.032,-0.001,0.033,-0.011,-1.614,-0.058,-0.188,28.97,88.1,40.58392,-3.551044,617.3,4,5,110.4,4.219
29.29,1,-0.032,0.018,-0.024,-0.021,0.023,-0.025,-1.612,-0.058,-0.19,28.97,88.1,40.58392,-3.551044,617.3,4,5,110.4,4.219
29.39,1,0.009,-0.026,-0.017,-0.003,0.004,-0.019,-1.611,-0.058,-0.191,28.97,88.1,40.58392,-3.551044,617.3,4,5,110.4,4.219
29.49,1,-0.024,-0.036,-0.056,-0.015,-0.021,-0.036,-1.607,-0.056,-0.192,28.97,88.1,40.58392,-3.551044,617.3,4,5,110.4,4.219
29.59,1,-0.031,-0.029,-0.053,-0.024,-0.027,-0.049,-1.602,-0.051,-0.192,28.97,88.1,40.58392,-3.551044,617.3,4,5,110.4,4.219
29.7,1,-0.028,-0.024,-0.071,-0.025,-0.03,-0.053,-1.599,-0.048,-0.193,28.97,88.1,40.58392,-3.551044,617.3,4,5,110.4,4.219
29.8,1,-0.024,-0.024,-0.054,-0.026,-0.027,-0.063,-1.593,-0.046,-0.193,28.97,88.1,40.58392,-3.551044,617.3,4,5,110.4,4.219
29.89,1,-0.013,-0.003,-0.059,-0.023,-0.016,-0.057,-1.589,-0.043,-0.194,28.97,88.1,40.58392,-3.551044,617.3,4,5,110.4,4.219
29.99,1,0.018,0.004,-0.05,-0.0,-0.002,-0.052,-1.584,-0.043,-0.196,29.98,90.4,40.583832,-3.550776,617.5,4,5,112.1,4.219
30.09,1,-0.023,0.014,-0.049,-0.008,0.005,-0.053,-1.58,-0.046,-0.197,29.98,90.4,40.583832,-3.550776,617.5,4,5,112.1,4.219
30.19,1,-0.029,0.023,-0.037,-0.018,0.013,-0.045,-1.577,-0.048,-0.199,29.98,90.4,40.583832,-3.550776,617.5,4,5,112.1,4.219
30.29,1,-0.006,0.014,-0.023,-0.017,0.016,-0.037,-1.575,-0.049,-0.2,29.98,90.4,40.583832,-3.550776,617.5,4,5,112.1,4.219
30.39,1,0.009,0.011,-0.035,0.003,0.012,-0.03,-1.572,-0.051,-0.201,29.98,90.4,40.583832,-3.550776,617.5,4,5,112.1,4.219
30.49,1,-0.046,0.014,-0.047,-0.019,0.014,-0.04,-1.569,-0.051,-0.203,29.98,90.4,40.583832,-3.550776,617.5,4,5,112.1,4.219
30.59,1,0.005,0.005,-0.016,-0.015,0.01,-0.029,-1.568,-0.051,-0.204,29.98,90.4,40.583832,-3.550776,617.5,4,5,112.1,4.219
30.7,1,-0.031,0.015,-0.032,-0.017,0.015,-0.026,-1.567,-0.051,-0.205,29.98,90.4,40.583832,-3.550776,617.5,4,5,112.1,4.219
30.8,1,-0.007,0.001,-0.025,-0.02,0.01,-0.031,-1.564,-0.048,-0.207,29.98,90.4,40.583832,-3.550776,617.5,4,5,112.1,4.219
30.91,1,0.006,-0.01,-0.013,-0.004,-0.002,-0.021,-1.563,-0.048,-0.208,29.98,90.4,40.583832,-3.550776,617.5,4,5,112.1,4.219
31.01,1,-0.021,-0.004,-0.018,-0.01,-0.007,-0.019,-1.56,-0.047,-0.209,30.97,90.7,40.583748,-3.550488,617.7,4,5,113.6,3.164
31.1,1,-0.015,0.015,0.021,-0.015,0.004,-0.005,-1.561,-0.049,-0.21,30.97,90.7,40.583748,-3.550488,617.7,4,5,113.6,3.164
31.2,1,-0.031,0.008,0.036,-0.021,0.008,0.018,-1.566,-0.052,-0.212,30.97,90.7,40.583748,-3.550488,617.7,4,5,113.6,3.164
31.3,1,0.017,-0.014,0.027,-0.012,-0.001,0.03,-1.57,-0.051,-0.213,30.97,90.7,40.583748,-3.550488,617.7,4,5,113.6,3.164
31.4,1,-0.001,-0.006,0.046,0.003,-0.006,0.034,-1.573,-0.05,-0.213,30.97,90.7,40.583748,-3.550488,617.7,4,5,113.6,3.164
31.51,1,0.003,-0.009,0.03,0.003,-0.009,0.034,-1.577,-0.049,-0.214,30.97,90.7,40.583748,-3.550488,617.7,4,5,113.6,3.164
31.6,1,-0.041,-0.02,0.042,-0.017,-0.011,0.04,-1.582,-0.049,-0.215,30.97,90.7,40.583748,-3.550488,617.7,4,5,113.6,3.164
31.7,1,-0.049,-0.035,0.057,-0.029,-0.028,0.046,-1.586,-0.047,-0.216,30.97,90.7,40.583748,-3.550488,617.7,4,5,113.6,3.164
31.8,1,-0.06,-0.025,0.075,-0.044,-0.028,0.059,-1.593,-0.046,-0.216,30.97,90.7,40.583748,-3.550488,617.7,4,5,113.6,3.164
31.9,1,-0.037,-0.04,0.077,-0.052,-0.028,0.075,-1.594,-0.046,-0.217,30.97,90.7,40.583748,-3.550488,617.7,4,5,113.6,3.164
32.0,1,-0.003,-0.016,0.042,-0.028,-0.027,0.059,-1.596,-0.043,-0.217,31.98,90.3,40.583649,-3.550221,618.1,4,5,115.3,3.164
32.2,1,-0.007,-0.003,0.023,-0.003,-0.01,0.026,-1.602,-0.046,-0.219,31.98,90.3,40.583649,-3.550221,618.1,4,5,115.3,3.164
32.3,1,-0.025,0.005,0.029,-0.009,0.0,0.025,-1.606,-0.047,-0.219,31.98,90.3,40.583649,-3.550221,618.1,4,5,115.3,3.164
32.4,1,-0.013,0.016,0.01,-0.016,0.008,0.017,-1.608,-0.044,-0.22,31.98,90.3,40.583649,-3.550221,618.1,4,5,115.3,3.164
32.5,1,0.005,-0.011,0.019,-0.008,0.002,0.017,-1.607,-0.044,-0.221,31.98,90.3,40.583649,-3.550221,618.1,4,5,115.3,3.164
32.61,1,-0.012,-0.011,-0.03,-0.007,-0.013,0.005,-1.605,-0.045,-0.222,31.98,90.3,40.583649,-3.550221,618.1,4,5,115.3,3.164
32.71,1,-0.002,-0.001,-0.084,-0.008,-0.009,-0.039,-1.603,-0.045,-0.223,31.98,90.3,40.583649,-3.550221,618.1,4,5,115.3,3.164
32.8,1,-0.024,0.039,-0.099,-0.012,0.016,-0.076,-1.601,-0.046,-0.225,31.98,90.3,40.583649,-3.550221,618.1,4,5,115.3,3.164
32.91,1,-0.048,0.059,-0.113,-0.025,0.039,-0.096,-1.601,-0.047,-0.227,31.98,90.3,40.583649,-3.550221,618.1,4,5,115.3,3.164
33.0,1,-0.046,0.048,-0.082,-0.045,0.045,-0.098,-1.603,-0.047,-0.228,31.98,90.3,40.583649,-3.550221,618.1,4,5,115.3,3.164
33.1,1,0.002,0.015,-0.071,-0.026,0.038,-0.08,-1.599,-0.048,-0.23,32.97,92.6,40.583549,-3.549949,618.5,4,5,116.7,3.164
33.21,1,0.024,0.02,-0.083,0.002,0.024,-0.08,-1.59,-0.047,-0.23,32.97,92.6,40.583549,-3.549949,618.5,4,5,116.7,3.164
33.3,1,0.003,0.031,-0.079,0.013,0.024,-0.08,-1.58,-0.044,-0.231,32.97,92.6,40.583549,-3.549949,618.5,4,5,116.7,3.164
33.41,1,-0.014,0.011,-0.033,-0.006,0.024,-0.062,-1.573,-0.046,-0.231,32.97,92.6,40.583549,-3.549949,618.5,4,5,116.7,3.164
33.51,1,0.031,0.009,-0.062,0.008,0.015,-0.055,-1.568,-0.046,-0.232,32.97,92.6,40.583549,-3.549949,618.5,4,5,116.7,3.164
33.6,1,-0.031,-0.001,-0.056,-0.004,0.006,-0.059,-1.561,-0.046,-0.233,32.97,92.6,40.583549,-3.549949,618.5,4,5,116.7,3.164
33.71,1,-0.002,0.0,-0.036,-0.011,0.006,-0.046,-1.558,-0.047,-0.234,32.97,92.6,40.583549,-3.549949,618.5,4,5,116.7,3.164
33.8,1,-0.019,-0.002,-0.048,-0.015,-0.003,-0.044,-1.553,-0.047,-0.234,32.97,92.6,40.583549,-3.549949,618.5,4,5,116.7,3.164
33.91,1,-0.006,-0.022,-0.07,-0.006,-0.012,-0.054,-1.548,-0.045,-0.234,32.97,92.6,40.583549,-3.549949,618.5,4,5,116.7,3.164
34.01,1,-0.03,-0.003,-0.06,-0.015,-0.005,-0.063,-1.542,-0.039,-0.234,32.97,92.6,40.583549,-3.549949,618.5,4,5,116.7,3.164
34.11,1,-0.052,0.002,-0.041,-0.036,-0.007,-0.052,-1.538,-0.037,-0.233,33.97,95.0,40.583443,-3.549681,618.9,4,5,118.5,3.164
34.21,1,-0.018,-0.007,-0.016,-0.032,-0.004,-0.038,-1.536,-0.034,-0.233,33.97,95.0,40.583443,-3.549681,618.9,4,5,118.5,3.164
34.31,1,0.013,0.001,0.008,-0.011,0.0,-0.012,-1.539,-0.035,-0.232,33.97,95.0,40.583443,-3.549681,618.9,4,5,118.5,3.164
34.41,1,0.006,-0.008,-0.01,0.005,-0.009,-0.007,-1.537,-0.032,-0.232,33.97,95.0,40.583443,-3.549681,618.9,4,5,118.5,3.164
34.51,1,0.017,-0.026,-0.004,0.009,-0.01,-0.006,-1.534,-0.028,-0.231,33.97,95.0,40.583443,-3.549681,618.9,4,5,118.5,3.164
34.61,1,-0.003,-0.023,-0.01,0.009,-0.02,-0.008,-1.533,-0.023,-0.23,33.97,95.0,40.583443,-3.549681,618.9,4,5,118.5,3.164
34.71,1,-0.049,-0.012,0.003,-0.019,-0.021,-0.005,-1.536,-0.022,-0.23,33.97,95.0,40.583443,-3.549681,618.9,4,5,118.5,3.164
34.81,1,-0.013,-0.032,0.01,-0.03,-0.021,0.004,-1.537,-0.02,-0.229,33.97,95.0,40.583443,-3.549681,618.9,4,5,118.5,3.164
34.91,1,0.008,-0.02,0.019,-0.006,-0.024,0.012,-1.536,-0.02,-0.229,33.97,95.0,40.583443,-3.549681,618.9,4,5,118.5,3.164
35.02,1,0.007,-0.003,0.001,0.002,-0.015,0.009,-1.536,-0.022,-0.228,33.97,95.0,40.583443,-3.549681,618.9,4,5,118.5,3.164
35.12,1,-0.033,0.008,0.001,-0.011,0.001,0.007,-1.536,-0.024,-0.229,35.02,94.4,40.583332,-3.549406,618.6,4,5,119.5,2.812
35.22,1,-0.007,0.024,0.015,-0.013,0.01,0.003,-1.536,-0.027,-0.229,35.02,94.4,40.583332,-3.549406,618.6,4,5,119.5,2.812
35.31,1,-0.004,0.036,0.014,-0.011,0.026,0.014,-1.539,-0.03,-0.23,35.02,94.4,40.583332,-3.549406,618.6,4,5,119.5,2.812
35.41,1,-0.003,0.043,0.002,-0.007,0.035,0.007,-1.54,-0.033,-0.231,35.02,94.4,40.583332,-3.549406,618.6,4,5,119.5,2.812
35.51,1,-0.007,0.032,-0.008,-0.004,0.038,0.001,-1.54,-0.037,-0.232,35.02,94.4,40.583332,-3.549406,618.6,4,5,119.5,2.812
35.61,1,-0.027,0.038,0.005,-0.015,0.034,-0.004,-1.541,-0.039,-0.233,35.02,94.4,40.583332,-3.549406,618.6,4,5,119.5,2.812
35.71,1,-0.018,0.034,0.006,-0.02,0.036,0.008,-1.543,-0.04,-0.234,35.02,94.4,40.583332,-3.549406,618.6,4,5,119.5,2.812
35.82,1,-0.015,0.028,-0.005,-0.018,0.031,-0.001,-1.543,-0.042,-0.236,35.02,94.4,40.583332,-3.549406,618.6,4,5,119.5,2.812
35.91,1,0.004,0.021,0.011,-0.006,0.028,0.003,-1.543,-0.048,-0.238,35.02,94.4,40.583332,-3.549406,618.6,4,5,119.5,2.812
36.01,1,-0.005,0.039,0.014,-0.005,0.027,0.011,-1.543,-0.051,-0.24,35.02,94.4,40.583332,-3.549406,618.6,4,5,119.5,2.812
36.11,1,-0.007,0.029,-0.013,-0.003,0.031,0.006,-1.544,-0.054,-0.242,35.97,94.4,40.583214,-3.549137,618.6,4,5,119.5,1.055
36.21,1,-0.03,0.022,-0.023,-0.011,0.029,-0.013,-1.543,-0.056,-0.243,35.97,94.4,40.583214,-3.549137,618.6,4,5,119.5,1.055
36.31,1,-0.036,0.005,0.019,-0.037,0.022,-0.005,-1.544,-0.06,-0.245,35.97,94.4,40.583214,-3.549137,618.6,4,5,119.5,1.055
36.42,1,0.001,0.028,-0.001,-0.016,0.014,0.007,-1.543,-0.064,-0.246,35.97,94.4,40.583214,-3.549137,618.6,4,5,119.5,1.055
36.52,1,-0.024,0.002,-0.011,-0.016,0.008,-0.002,-1.542,-0.066,-0.248,35.97,94.4,40.583214,-3.549137,618.6,4,5,119.5,1.055
36.61,1,0.006,0.005,0.014,-0.011,0.008,-0.003,-1.542,-0.065,-0.249,35.97,94.4,40.583214,-3.549137,618.6,4,5,119.5,1.055
36.71,1,-0.01,0.016,0.004,-0.004,0.011,0.01,-1.542,-0.064,-0.25,35.97,94.4,40.583214,-3.549137,618.6,4,5,119.5,1.055
36.81,1,-0.007,0.006,0.015,-0.007,0.012,0.007,-1.542,-0.062,-0.252,35.97,94.4,40.583214,-3.549137,618.6,4,5,119.5,1.055
36.91,1,-0.012,0.003,0.007,-0.005,0.005,0.01,-1.543,-0.06,-0.253,35.97,94.4,40.583214,-3.549137,618.6,4,5,119.5,1.055
37.03,1,-0.006,-0.011,0.03,-0.01,-0.001,0.013,-1.545,-0.06,-0.254,35.97,94.4,40.583214,-3.549137,618.6,4,5,119.5,1.055
37.11,1,-0.022,0.008,0.003,-0.014,0.0,0.018,-1.547,-0.061,-0.256,37.02,91.1,40.583088,-3.548917,618.9,4,5,123.0,3.516
37.21,1,0.006,0.024,0.019,-0.007,0.013,0.014,-1.547,-0.063,-0.257,37.02,91.1,40.583088,-3.548917,618.9,4,5,123.0,3.516
37.31,1,-0.032,-0.009,-0.008,-0.013,0.004,0.004,-1.547,-0.061,-0.259,37.02,91.1,40.583088,-3.548917,618.9,4,5,123.0,3.516
37.41,1,-0.054,-0.014,0.013,-0.04,-0.009,0.008,-1.549,-0.058,-0.26,37.02,91.1,40.583088,-3.548917,618.9,4,5,123.0,3.516
37.52,1,-0.005,-0.003,0.021,-0.028,-0.002,0.01,-1.551,-0.054,-0.26,37.02,91.1,40.583088,-3.548917,618.9,4,5,123.0,3.516
37.62,1,0.005,0.022,0.003,-0.006,0.007,0.014,-1.549,-0.054,-0.261,37.02,91.1,40.583088,-3.548917,618.9,4,5,123.0,3.516
37.73,1,0.025,0.021,-0.021,0.016,0.017,-0.003,-1.546,-0.055,-0.262,37.02,91.1,40.583088,-3.548917,618.9,4,5,123.0,3.516
37.82,1,-0.002,-0.006,0.011,0.006,0.009,-0.006,-1.546,-0.056,-0.262,37.02,91.1,40.583088,-3.548917,618.9,4,5,123.0,3.516
37.92,1,-0.043,-0.016,0.028,-0.014,-0.006,0.015,-1.55,-0.054,-0.263,37.02,91.1,40.583088,-3.548917,618.9,4,5,123.0,3.516
38.02,1,-0.024,-0.011,0.006,-0.03,-0.008,0.015,-1.55,-0.053,-0.264,37.02,91.1,40.583088,-3.548917,618.9,4,5,123.0,3.516
38.12,1,-0.017,-0.019,0.004,-0.021,-0.014,0.006,-1.551,-0.052,-0.264,37.98,90.1,40.582958,-3.548677,619.2,3,5,125.2,5.625
38.22,1,-0.008,-0.025,0.016,-0.02,-0.021,0.011,-1.552,-0.053,-0.264,37.98,90.1,40.582958,-3.548677,619.2,3,5,125.2,5.625
38.32,1,0.022,-0.017,0.006,0.003,-0.02,0.011,-1.552,-0.052,-0.265,37.98,90.1,40.582958,-3.548677,619.2,3,5,125.2,5.625
38.42,1,0.015,-0.012,-0.019,0.016,-0.017,-0.003,-1.551,-0.052,-0.265,37.98,90.1,40.582958,-3.548677,619.2,3,5,125.2,5.625
38.52,1,-0.045,-0.003,-0.01,-0.009,-0.012,-0.007,-1.551,-0.049,-0.265,37.98,90.1,40.582958,-3.548677,619.2,3,5,125.2,5.625
38.62,1,-0.029,0.009,0.012,-0.025,0.004,-0.005,-1.552,-0.05,-0.265,37.98,90.1,40.582958,-3.548677,619.2,3,5,125.2,5.625
38.72,1,0.003,-0.026,-0.005,-0.022,-0.009,0.0,-1.551,-0.047,-0.265,37.98,90.1,40.582958,-3.548677,619.2,3,5,125.2,5.625
38.82,1,0.012,-0.027,-0.0,0.006,-0.019,0.002,-1.55,-0.044,-0.266,37.98,90.1,40.582958,-3.548677,619.2,3,5,125.2,5.625
38.92,1,0.011,0.002,-0.015,0.006,-0.013,-0.009,-1.548,-0.046,-0.266,37.98,90.1,40.582958,-3.548677,619.2,3,5,125.2,5.625
39.02,1,-0.022,-0.003,-0.001,-0.007,-0.005,-0.006,-1.549,-0.043,-0.265,37.98,90.1,40.582958,-3.548677,619.2,3,5,125.2,5.625
39.12,1,-0.037,-0.023,0.008,-0.021,-0.013,0.004,-1.55,-0.039,-0.265,38.97,90.6,40.582825,-3.548449,619.6,3,5,126.9,3.867
39.22,1,-0.018,-0.039,-0.002,-0.019,-0.025,0.001,-1.55,-0.036,-0.264,38.97,90.6,40.582825,-3.548449,619.6,3,5,126.9,3.867
39.32,1,-0.021,-0.052,-0.017,-0.025,-0.041,-0.007,-1.549,-0.032,-0.262,38.97,90.6,40.582825,-3.548449,619.6,3,5,126.9,3.867
39.43,1,-0.014,-0.049,0.006,-0.016,-0.045,-0.002,-1.551,-0.029,-0.261,38.97,90.6,40.582825,-3.548449,619.6,3,5,126.9,3.867
39.52,1,0.012,-0.038,0.017,-0.004,-0.044,0.003,-1.553,-0.026,-0.259,38.97,90.6,40.582825,-3.548449,619.6,3,5,126.9,3.867
39.62,1,0.022,-0.041,-0.015,0.01,-0.043,-0.002,-1.551,-0.023,-0.257,38.97,90.6,40.582825,-3.548449,619.6,3,5,126.9,3.867
39.72,1,-0.012,-0.052,0.003,0.007,-0.04,-0.002,-1.551,-0.018,-0.255,38.97,90.6,40.582825,-3.548449,619.6,3,5,126.9,3.867
39.82,1,-0.022,-0.03,0.019,-0.013,-0.039,0.006,-1.552,-0.016,-0.254,38.97,90.6,40.582825,-3.548449,619.6,3,5,126.9,3.867
39.92,1,-0.007,0.01,0.006,-0.016,-0.021,0.013,-1.553,-0.013,-0.252,38.97,90.6,40.582825,-3.548449,619.6,3,5,126.9,3.867
40.02,1,0.006,0.019,-0.009,-0.002,-0.002,0.005,-1.553,-0.012,-0.251,38.97,90.6,40.582825,-3.548449,619.6,3,5,126.9,3.867
40.13,1,-0.017,0.002,0.001,-0.003,0.01,-0.002,-1.552,-0.013,-0.25,39.97,90.1,40.582687,-3.548213,619.8,3,5,128.3,3.164
40.22,1,-0.05,-0.006,-0.004,-0.025,0.001,-0.004,-1.552,-0.013,-0.249,39.97,90.1,40.582687,-3.548213,619.8,3,5,128.3,3.164
40.32,1,-0.017,0.02,0.026,-0.024,0.006,0.012,-1.556,-0.015,-0.248,39.97,90.1,40.582687,-3.548213,619.8,3,5,128.3,3.164
40.42,1,-0.046,0.029,0.004,-0.039,0.019,0.007,-1.557,-0.018,-0.249,39.97,90.1,40.582687,-3.548213,619.8,3,5,128.3,3.164
40.52,1,-0.01,0.049,0.017,-0.025,0.035,0.011,-1.558,-0.023,-0.25,39.97,90.1,40.582687,-3.548213,619.8,3,5,128.3,3.164
40.62,1,0.009,0.055,0.014,-0.006,0.048,0.015,-1.559,-0.03,-0.252,39.97,90.1,40.582687,-3.548213,619.8,3,5,128.3,3.164
40.73,1,-0.004,0.055,0.017,-0.003,0.051,0.016,-1.56,-0.035,-0.254,39.97,90.1,40.582687,-3.548213,619.8,3,5,128.3,3.164
40.83,1,-0.014,0.041,0.019,-0.01,0.045,0.018,-1.563,-0.039,-0.255,39.97,90.1,40.582687,-3.548213,619.8,3,5,128.3,3.164
40.93,1,-0.03,0.031,0.026,-0.02,0.04,0.023,-1.564,-0.042,-0.257,39.97,90.1,40.582687,-3.548213,619.8,3,5,128.3,3.164
41.02,1,-0.046,0.043,0.012,-0.032,0.041,0.018,-1.567,-0.045,-0.258,39.97,90.1,40.582687,-3.548213,619.8,3,5,128.3,3.164
41.13,1,-0.007,0.018,0.006,-0.026,0.029,0.009,-1.568,-0.046,-0.26,40.99,90.3,40.58255,-3.547983,619.8,3,5,129.0,2.109
41.23,1,-0.029,0.013,0.018,-0.019,0.021,0.012,-1.57,-0.048,-0.261,40.99,90.3,40.58255,-3.547983,619.8,3,5,129.0,2.109
41.34,1,-0.001,0.028,0.012,-0.018,0.02,0.013,-1.573,-0.051,-0.263,40.99,90.3,40.58255,-3.547983,619.8,3,5,129.0,2.109
41.43,1,-0.013,0.031,0.019,-0.011,0.028,0.019,-1.573,-0.052,-0.265,40.99,90.3,40.58255,-3.547983,619.8,3,5,129.0,2.109
41.53,1,-0.023,0.03,0.009,-0.014,0.032,0.013,-1.573,-0.056,-0.266,40.99,90.3,40.58255,-3.547983,619.8,3,5,129.0,2.109
41.63,1,0.006,0.007,0.0,-0.014,0.022,0.007,-1.575,-0.06,-0.268,40.99,90.3,40.58255,-3.547983,619.8,3,5,129.0,2.109
41.73,1,-0.024,0.025,-0.03,-0.012,0.017,-0.009,-1.574,-0.067,-0.269,40.99,90.3,40.58255,-3.547983,619.8,3,5,129.0,2.109
41.83,1,-0.005,0.002,-0.01,-0.014,0.008,-0.014,-1.571,-0.069,-0.271,40.99,90.3,40.58255,-3.547983,619.8,3,5,129.0,2.109
41.94,1,0.001,0.031,-0.009,-0.0,0.018,-0.01,-1.569,-0.071,-0.273,40.99,90.3,40.58255,-3.547983,619.8,3,5,129.0,2.109
42.14,1,-0.002,0.008,-0.022,-0.03,0.019,-0.013,-1.567,-0.073,-0.277,40.99,90.3,40.58255,-3.547983,619.8,3,5,129.0,2.109
42.23,1,-0.017,0.005,-0.039,-0.022,0.015,-0.026,-1.566,-0.074,-0.278,41.96,90.7,40.582409,-3.547748,620.3,3,5,130.8,2.461
42.33,1,-0.021,-0.02,-0.02,-0.018,-0.002,-0.029,-1.564,-0.072,-0.278,41.96,90.7,40.582409,-3.547748,620.3,3,5,130.8,2.461
42.43,1,-0.007,-0.021,-0.008,-0.012,-0.02,-0.014,-1.564,-0.068,-0.278,41.96,90.7,40.582409,-3.547748,620.3,3,5,130.8,2.461
42.54,1,0.008,-0.022,-0.017,-0.002,-0.016,-0.016,-1.56,-0.066,-0.278,41.96,90.7,40.582409,-3.547748,620.3,3,5,130.8,2.461
42.63,1,-0.0,-0.046,-0.021,0.002,-0.033,-0.02,-1.558,-0.063,-0.278,41.96,90.7,40.582409,-3.547748,620.3,3,5,130.8,2.461
42.73,1,-0.022,-0.025,-0.012,-0.009,-0.034,-0.015,-1.558,-0.062,-0.278,41.96,90.7,40.582409,-3.547748,620.3,3,5,130.8,2.461
42.83,1,-0.006,-0.012,-0.019,-0.009,-0.023,-0.018,-1.557,-0.06,-0.277,41.96,90.7,40.582409,-3.547748,620.3,3,5,130.8,2.461
42.93,1,-0.011,0.011,0.004,-0.009,-0.004,-0.01,-1.554,-0.059,-0.277,41.96,90.7,40.582409,-3.547748,620.3,3,5,130.8,2.461
43.03,1,-0.034,-0.001,-0.029,-0.018,0.004,-0.016,-1.554,-0.059,-0.277,41.96,90.7,40.582409,-3.547748,620.3,3,5,130.8,2.461
43.13,1,-0.025,-0.026,-0.028,-0.028,-0.016,-0.024,-1.554,-0.06,-0.276,41.96,90.7,40.582409,-3.547748,620.3,3,5,130.8,2.461
43.23,1,-0.03,-0.057,0.009,-0.032,-0.029,-0.011,-1.557,-0.059,-0.276,42.97,91.4,40.58226,-3.54752,620.3,3,5,132.5,3.516
43.34,1,0.019,-0.013,-0.006,-0.005,-0.027,0.0,-1.556,-0.059,-0.275,42.97,91.4,40.58226,-3.54752,620.3,3,5,132.5,3.516
43.43,1,0.012,-0.045,-0.021,0.001,-0.035,-0.012,-1.553,-0.056,-0.274,42.97,91.4,40.58226,-3.54752,620.3,3,5,132.5,3.516
43.53,1,0.028,-0.047,-0.014,0.02,-0.044,-0.016,-1.55,-0.051,-0.272,42.97,91.4,40.58226,-3.54752,620.3,3,5,132.5,3.516
43.63,1,-0.05,-0.057,-0.008,-0.007,-0.05,-0.014,-1.55,-0.046,-0.271,42.97,91.4,40.58226,-3.54752,620.3,3,5,132.5,3.516
43.73,1,-0.072,-0.041,0.012,-0.045,-0.045,-0.003,-1.551,-0.044,-0.269,42.97,91.4,40.58226,-3.54752,620.3,3,5,132.5,3.516
43.83,1,0.002,-0.036,0.001,-0.033,-0.042,0.005,-1.552,-0.041,-0.268,42.97,91.4,40.58226,-3.54752,620.3,3,5,132.5,3.516
43.93,1,-0.015,-0.012,-0.023,-0.012,-0.029,-0.007,-1.55,-0.038,-0.266,42.97,91.4,40.58226,-3.54752,620.3,3,5,132.5,3.516
44.03,1,-0.004,-0.027,-0.0,-0.013,-0.024,-0.01,-1.55,-0.035,-0.265,42.97,91.4,40.58226,-3.54752,620.3,3,5,132.5,3.516
44.13,1,0.0,-0.041,-0.004,-0.003,-0.03,-0.001,-1.552,-0.033,-0.263,42.97,91.4,40.58226,-3.54752,620.3,3,5,132.5,3.516
44.23,1,-0.038,-0.036,0.01,-0.024,-0.035,-0.001,-1.553,-0.032,-0.262,43.97,91.1,40.582104,-3.547301,620.8,3,5,134.3,3.516
44.33,1,-0.008,-0.021,0.014,-0.013,-0.029,0.013,-1.554,-0.032,-0.26,43.97,91.1,40.582104,-3.547301,620.8,3,5,134.3,3.516
44.44,1,-0.011,-0.026,0.016,-0.014,-0.027,0.012,-1.556,-0.027,-0.259,43.97,91.1,40.582104,-3.547301,620.8,3,5,134.3,3.516
44.53,1,0.017,-0.023,-0.006,-0.001,-0.027,0.001,-1.556,-0.024,-0.257,43.97,91.1,40.582104,-3.547301,620.8,3,5,134.3,3.516
44.63,1,-0.005,-0.025,0.017,0.006,-0.024,0.011,-1.555,-0.02,-0.255,43.97,91.1,40.582104,-3.547301,620.8,3,5,134.3,3.516
44.74,1,-0.049,-0.022,0.028,-0.022,-0.017,0.012,-1.555,-0.016,-0.252,43.97,91.1,40.582104,-3.547301,620.8,3,5,134.3,3.516
44.84,1,-0.024,-0.014,-0.002,-0.031,-0.014,0.015,-1.557,-0.016,-0.25,43.97,91.1,40.582104,-3.547301,620.8,3,5,134.3,3.516
44.94,1,-0.015,-0.014,0.004,-0.022,-0.019,0.004,-1.558,-0.014,-0.248,43.97,91.1,40.582104,-3.547301,620.8,3,5,134.3,3.516
45.04,1,-0.011,-0.028,0.019,-0.013,-0.023,0.015,-1.559,-0.013,-0.246,43.97,91.1,40.582104,-3.547301,620.8,3,5,134.3,3.516
45.14,1,0.028,-0.027,-0.008,0.003,-0.026,0.001,-1.559,-0.011,-0.243,43.97,91.1,40.582104,-3.547301,620.8,3,5,134.3,3.516
45.24,1,-0.011,-0.008,0.004,0.007,-0.021,0.005,-1.559,-0.008,-0.241,44.99,90.3,40.581944,-3.547091,621.4,3,5,135.0,2.461
45.34,1,-0.026,-0.001,0.033,-0.013,-0.014,0.01,-1.559,-0.004,-0.238,44.99,90.3,40.581944,-3.547091,621.4,3,5,135.0,2.461
45.44,1,-0.027,-0.009,0.019,-0.028,-0.008,0.022,-1.56,-0.001,-0.235,44.99,90.3,40.581944,-3.547091,621.4,3,5,135.0,2.461
45.54,1,-0.001,-0.011,0.001,-0.014,-0.008,0.011,-1.562,0.002,-0.232,44.99,90.3,40.581944,-3.547091,621.4,3,5,135.0,2.461
45.64,1,-0.013,-0.029,0.017,-0.012,-0.014,0.011,-1.562,0.0,-0.23,44.99,90.3,40.581944,-3.547091,621.4,3,5,135.0,2.461
45.74,1,0.001,-0.019,0.007,-0.006,-0.013,0.008,-1.564,0.001,-0.227,44.99,90.3,40.581944,-3.547091,621.4,3,5,135.0,2.461
45.84,1,-0.006,-0.005,0.019,-0.002,-0.018,0.017,-1.565,0.002,-0.224,44.99,90.3,40.581944,-3.547091,621.4,3,5,135.0,2.461
45.94,1,-0.023,-0.015,0.025,-0.015,-0.016,0.019,-1.567,0.004,-0.222,44.99,90.3,40.581944,-3.547091,621.4,3,5,135.0,2.461
46.04,1,-0.003,-0.006,0.004,-0.012,-0.008,0.017,-1.568,0.005,-0.219,44.99,90.3,40.581944,-3.547091,621.4,3,5,135.0,2.461
46.15,1,0.001,-0.009,0.001,-0.005,-0.012,0.004,-1.569,0.004,-0.216,44.99,90.3,40.581944,-3.547091,621.4,3,5,135.0,2.461
46.24,1,-0.032,-0.012,0.011,-0.014,-0.009,0.007,-1.572,0.002,-0.214,45.98,90.8,40.581787,-3.546868,621.6,3,5,134.6,0.352
46.35,1,-0.01,0.007,0.012,-0.015,-0.003,0.012,-1.571,0.001,-0.212,45.98,90.8,40.581787,-3.546868,621.6,3,5,134.6,0.352
46.45,1,-0.022,0.002,0.018,-0.015,0.004,0.012,-1.572,0.002,-0.21,45.98,90.8,40.581787,-3.546868,621.6,3,5,134.6,0.352
46.54,1,-0.036,0.022,0.025,-0.027,0.011,0.017,-1.575,0.0,-0.208,45.98,90.8,40.581787,-3.546868,621.6,3,5,134.6,0.352
46.64,1,0.021,0.013,0.033,-0.012,0.013,0.026,-1.578,0.001,-0.206,45.98,90.8,40.581787,-3.546868,621.6,3,5,134.6,0.352
46.74,1,0.017,0.008,-0.007,0.007,0.01,0.017,-1.577,-0.0,-0.204,45.98,90.8,40.581787,-3.546868,621.6,3,5,134.6,0.352
46.84,1,-0.01,0.012,-0.01,0.008,0.012,0.001,-1.577,-0.0,-0.203,45.98,90.8,40.581787,-3.546868,621.6,3,5,134.6,0.352
46.94,1,-0.025,0.025,0.014,-0.012,0.015,0.005,-1.579,-0.005,-0.201,45.98,90.8,40.581787,-3.546868,621.6,3,5,134.6,0.352
47.04,1,-0.024,0.01,0.028,-0.017,0.015,0.013,-1.581,-0.007,-0.2,45.98,90.8,40.581787,-3.546868,621.6,3,5,134.6,0.352
47.14,1,0.011,0.007,0.024,-0.009,0.01,0.022,-1.581,-0.007,-0.198,45.98,90.8,40.581787,-3.546868,621.6,3,5,134.6,0.352
47.24,1,-0.0,-0.025,0.019,-0.003,-0.001,0.019,-1.58,-0.004,-0.196,46.98,91.9,40.581627,-3.546647,621.7,3,5,134.6,0.352
47.34,1,0.018,-0.007,0.04,0.006,-0.019,0.029,-1.582,-0.005,-0.195,46.98,91.9,40.581627,-3.546647,621.7,3,5,134.6,0.352
47.44,1,-0.016,0.021,0.008,0.005,0.005,0.025,-1.581,-0.005,-0.194,46.98,91.9,40.581627,-3.546647,621.7,3,5,134.6,0.352
47.55,1,-0.025,0.004,0.009,-0.016,0.013,0.016,-1.582,-0.005,-0.192,46.98,91.9,40.581627,-3.546647,621.7,3,5,134.6,0.352
47.65,1,-0.031,0.014,0.029,-0.029,0.005,0.016,-1.584,-0.006,-0.191,46.98,91.9,40.581627,-3.546647,621.7,3,5,134.6,0.352
47.74,1,-0.02,-0.013,0.032,-0.023,0.004,0.027,-1.586,-0.006,-0.189,46.98,91.9,40.581627,-3.546647,621.7,3,5,134.6,0.352
47.85,1,0.009,-0.006,0.032,-0.008,-0.006,0.032,-1.588,-0.005,-0.188,46.98,91.9,40.581627,-3.546647,621.7,3,5,134.6,0.352
47.94,1,0.003,-0.015,0.004,0.001,-0.005,0.017,-1.588,-0.005,-0.187,46.98,91.9,40.581627,-3.546647,621.7,3,5,134.6,0.352
48.04,1,-0.026,-0.013,0.018,-0.012,-0.01,0.015,-1.589,-0.006,-0.186,46.98,91.9,40.581627,-3.546647,621.7,3,5,134.6,0.352
48.15,1,-0.02,-0.0,0.009,-0.016,-0.011,0.018,-1.591,-0.007,-0.185,46.98,91.9,40.581627,-3.546647,621.7,3,5,134.6,0.352
48.25,1,-0.006,0.001,0.011,-0.018,-0.004,0.011,-1.59,-0.01,-0.184,47.99,92.5,40.581459,-3.546431,622.0,3,5,134.6,0.0
48.35,1,-0.006,0.002,-0.018,-0.003,0.002,-0.001,-1.586,-0.011,-0.183,47.99,92.5,40.581459,-3.546431,622.0,3,5,134.6,0.0
48.45,1,-0.016,-0.004,-0.018,-0.013,-0.001,-0.015,-1.584,-0.01,-0.182,47.99,92.5,40.581459,-3.546431,622.0,3,5,134.6,0.0
48.55,1,0.005,0.021,-0.012,-0.007,0.007,-0.009,-1.584,-0.011,-0.181,47.99,92.5,40.581459,-3.546431,622.0,3,5,134.6,0.0
48.65,1,0.011,0.035,-0.02,0.003,0.018,-0.018,-1.581,-0.012,-0.181,47.99,92.5,40.581459,-3.546431,622.0,3,5,134.6,0.0
48.76,1,-0.009,0.007,-0.022,0.001,0.019,-0.019,-1.578,-0.014,-0.18,47.99,92.5,40.581459,-3.546431,622.0,3,5,134.6,0.0
48.85,1,-0.032,-0.002,-0.024,-0.014,0.008,-0.021,-1.576,-0.016,-0.179,47.99,92.5,40.581459,-3.546431,622.0,3,5,134.6,0.0
48.95,1,-0.031,0.014,-0.028,-0.028,0.008,-0.026,-1.574,-0.016,-0.178,47.99,92.5,40.581459,-3.546431,622.0,3,5,134.6,0.0
49.05,1,-0.03,-0.007,-0.026,-0.026,0.002,-0.025,-1.573,-0.015,-0.177,47.99,92.5,40.581459,-3.546431,622.0,3,5,134.6,0.0
49.15,1,-0.017,-0.018,-0.014,-0.026,-0.004,-0.026,-1.57,-0.015,-0.176,47.99,92.5,40.581459,-3.546431,622.0,3,5,134.6,0.0
49.25,1,0.017,0.014,0.01,-0.009,-0.002,-0.006,-1.571,-0.015,-0.174,49.0,93.9,40.581295,-3.546212,622.2,3,5,134.6,0.0
49.35,1,0.004,0.004,-0.046,0.008,0.007,-0.013,-1.567,-0.018,-0.173,49.0,93.9,40.581295,-3.546212,622.2,3,5,134.6,0.0
49.45,1,0.01,-0.031,-0.042,0.003,-0.012,-0.038,-1.563,-0.015,-0.171,49.0,93.9,40.581295,-3.546212,622.2,3,5,134.6,0.0
49.55,1,-0.047,-0.042,-0.022,-0.014,-0.029,-0.031,-1.561,-0.01,-0.168,49.0,93.9,40.581295,-3.546212,622.2,3,5,134.6,0.0
49.65,1,-0.067,-0.035,-0.022,-0.04,-0.033,-0.024,-1.561,-0.007,-0.166,49.0,93.9,40.581295,-3.546212,622.2,3,5,134.6,0.0
49.75,1,-0.024,-0.016,-0.014,-0.045,-0.026,-0.021,-1.56,-0.007,-0.164,49.0,93.9,40.581295,-3.546212,622.2,3,5,134.6,0.0
49.85,1,0.006,-0.001,-0.017,-0.017,-0.015,-0.018,-1.56,-0.007,-0.162,49.0,93.9,40.581295,-3.546212,622.2,3,5,134.6,0.0
49.96,1,0.005,-0.009,-0.021,-0.001,-0.009,-0.02,-1.56,-0.004,-0.16,49.0,93.9,40.581295,-3.546212,622.2,3,5,134.6,0.0
50.05,1,-0.02,-0.021,-0.016,-0.011,-0.014,-0.018,-1.557,-0.003,-0.158,49.0,93.9,40.581295,-3.546212,622.2,3,5,134.6,0.0
50.15,1,-0.007,-0.024,-0.013,-0.01,-0.019,-0.015,-1.557,-0.0,-0.156,49.0,93.9,40.581295,-3.546212,622.2,3,5,134.6,0.0
50.26,1,-0.017,-0.024,-0.017,-0.009,-0.025,-0.012,-1.557,0.002,-0.154,49.97,94.0,40.581131,-3.545994,622.1,3,5,135.0,0.352
50.35,1,-0.029,-0.032,-0.015,-0.02,-0.027,-0.02,-1.555,0.005,-0.151,49.97,94.0,40.581131,-3.545994,622.1,3,5,135.0,0.352
50.45,1,0.005,-0.012,0.008,-0.009,-0.023,-0.006,-1.554,0.005,-0.148,49.97,94.0,40.581131,-3.545994,622.1,3,5,135.0,0.352
50.55,1,-0.005,-0.026,-0.012,-0.006,-0.02,-0.006,-1.555,0.008,-0.146,49.97,94.0,40.581131,-3.545994,622.1,3,5,135.0,0.352
50.66,1,0.016,-0.039,0.0,0.002,-0.03,-0.007,-1.555,0.011,-0.143,49.97,94.0,40.581131,-3.545994,622.1,3,5,135.0,0.352
50.76,1,-0.037,-0.063,-0.01,-0.011,-0.049,-0.001,-1.553,0.013,-0.139,49.97,94.0,40.581131,-3.545994,622.1,3,5,135.0,0.352
50.85,1,-0.065,-0.029,0.007,-0.039,-0.04,-0.001,-1.552,0.018,-0.136,49.97,94.0,40.581131,-3.545994,622.1,3,5,135.0,0.352
50.95,1,-0.051,-0.017,-0.008,-0.051,-0.025,-0.005,-1.55,0.017,-0.133,49.97,94.0,40.581131,-3.545994,622.1,3,5,135.0,0.352
51.06,1,-0.006,-0.01,0.027,-0.032,-0.019,0.007,-1.551,0.017,-0.129,49.97,94.0,40.581131,-3.545994,622.1,3,5,135.0,0.352
51.15,1,-0.004,-0.017,0.007,-0.014,-0.02,0.012,-1.551,0.022,-0.126,49.97,94.0,40.581131,-3.545994,622.1,3,5,135.0,0.352
51.26,1,-0.031,-0.045,-0.004,-0.018,-0.027,0.004,-1.551,0.029,-0.121,50.95,93.5,40.580971,-3.545773,623.3,3,5,134.6,0.352
51.35,1,0.004,-0.032,0.042,-0.015,-0.032,0.019,-1.553,0.031,-0.118,50.95,93.5,40.580971,-3.545773,623.3,3,5,134.6,0.352
51.45,1,-0.013,-0.026,0.006,-0.008,-0.034,0.022,-1.554,0.033,-0.114,50.95,93.5,40.580971,-3.545773,623.3,3,5,134.6,0.352
51.55,1,-0.026,-0.015,0.023,-0.016,-0.022,0.017,-1.555,0.034,-0.11,50.95,93.5,40.580971,-3.545773,623.3,3,5,134.6,0.352
51.65,1,0.003,0.005,0.019,-0.011,-0.01,0.016,-1.556,0.035,-0.107,50.95,93.5,40.580971,-3.545773,623.3,3,5,134.6,0.352
51.76,1,0.005,-0.004,0.017,-0.001,-0.003,0.02,-1.556,0.037,-0.103,50.95,93.5,40.580971,-3.545773,623.3,3,5,134.6,0.352
51.87,1,-0.027,-0.006,0.001,-0.009,-0.007,0.011,-1.558,0.037,-0.1,50.95,93.5,40.580971,-3.545773,623.3,3,5,134.6,0.352
51.97,1,-0.024,0.002,-0.0,-0.022,-0.0,0.004,-1.558,0.035,-0.096,50.95,93.5,40.580971,-3.545773,623.3,3,5,134.6,0.352
52.16,1,-0.003,-0.005,-0.013,-0.011,-0.007,0.003,-1.56,0.035,-0.09,50.95,93.5,40.580971,-3.545773,623.3,3,5,134.6,0.352
52.26,1,-0.002,-0.023,0.002,-0.001,-0.005,0.001,-1.559,0.037,-0.088,50.95,93.5,40.580971,-3.545773,623.3,3,5,134.6,0.352
52.36,1,-0.028,-0.015,0.007,-0.008,-0.011,0.001,-1.559,0.038,-0.085,52.0,92.5,40.580803,-3.545555,623.5,4,5,133.9,1.055
52.46,1,-0.031,0.002,0.021,-0.023,-0.016,0.011,-1.561,0.034,-0.083,52.0,92.5,40.580803,-3.545555,623.5,4,5,133.9,1.055
52.56,1,-0.019,0.027,0.014,-0.029,0.001,0.01,-1.563,0.031,-0.081,52.0,92.5,40.580803,-3.545555,623.5,4,5,133.9,1.055
52.66,1,-0.01,0.03,-0.015,-0.019,0.02,0.004,-1.565,0.028,-0.079,52.0,92.5,40.580803,-3.545555,623.5,4,5,133.9,1.055
52.76,1,-0.02,0.019,-0.017,-0.014,0.021,-0.009,-1.562,0.025,-0.078,52.0,92.5,40.580803,-3.545555,623.5,4,5,133.9,1.055
52.86,1,0.021,0.037,-0.009,-0.004,0.028,-0.009,-1.561,0.023,-0.077,52.0,92.5,40.580803,-3.545555,623.5,4,5,133.9,1.055
52.96,1,0.004,0.047,-0.011,0.003,0.038,-0.009,-1.56,0.02,-0.076,52.0,92.5,40.580803,-3.545555,623.5,4,5,133.9,1.055
53.07,1,-0.019,0.043,-0.019,-0.001,0.041,-0.015,-1.558,0.015,-0.075,52.0,92.5,40.580803,-3.545555,623.5,4,5,133.9,1.055
53.16,1,-0.015,0.025,-0.004,-0.012,0.035,-0.011,-1.557,0.014,-0.074,52.0,92.5,40.580803,-3.545555,623.5,4,5,133.9,1.055
53.26,1,-0.006,0.034,-0.003,-0.013,0.034,-0.011,-1.556,0.011,-0.074,52.0,92.5,40.580803,-3.545555,623.5,4,5,133.9,1.055
53.36,1,-0.03,0.058,0.015,-0.017,0.044,0.001,-1.557,0.007,-0.074,52.98,92.4,40.580658,-3.545347,623.5,4,5,132.5,2.109
53.46,1,0.007,0.054,-0.014,-0.011,0.05,-0.0,-1.555,0.003,-0.074,52.98,92.4,40.580658,-3.545347,623.5,4,5,132.5,2.109
53.57,1,-0.013,0.075,-0.027,-0.003,0.06,-0.013,-1.554,-0.002,-0.074,52.98,92.4,40.580658,-3.545347,623.5,4,5,132.5,2.109
53.66,1,-0.022,0.062,-0.018,-0.013,0.066,-0.019,-1.552,-0.007,-0.074,52.98,92.4,40.580658,-3.545347,623.5,4,5,132.5,2.109
53.76,1,-0.015,0.025,-0.018,-0.02,0.05,-0.017,-1.552,-0.008,-0.074,52.98,92.4,40.580658,-3.545347,623.5,4,5,132.5,2.109
53.86,1,-0.009,0.036,-0.015,-0.01,0.034,-0.016,-1.551,-0.009,-0.074,52.98,92.4,40.580658,-3.545347,623.5,4,5,132.5,2.109
53.96,1,-0.012,0.03,-0.031,-0.019,0.035,-0.024,-1.548,-0.012,-0.074,52.98,92.4,40.580658,-3.545347,623.5,4,5,132.5,2.109
54.06,1,0.027,0.011,-0.009,0.003,0.024,-0.016,-1.547,-0.013,-0.074,52.98,92.4,40.580658,-3.545347,623.5,4,5,132.5,2.109
54.16,1,-0.036,0.003,-0.035,-0.002,0.014,-0.022,-1.543,-0.012,-0.073,52.98,92.4,40.580658,-3.545347,623.5,4,5,132.5,2.109
54.26,1,0.005,-0.011,-0.01,-0.012,0.002,-0.022,-1.541,-0.01,-0.072,52.98,92.4,40.580658,-3.545347,623.5,4,5,132.5,2.109
54.37,1,-0.011,-0.008,0.001,-0.002,-0.006,-0.009,-1.54,-0.008,-0.071,53.98,92.7,40.580513,-3.545145,623.5,4,5,131.8,2.109
54.46,1,-0.025,0.012,-0.035,-0.016,0.001,-0.019,-1.539,-0.009,-0.07,53.98,92.7,40.580513,-3.545145,623.5,4,5,131.8,2.109
54.56,1,-0.031,0.031,-0.016,-0.022,0.016,-0.023,-1.541,-0.011,-0.069,53.98,92.7,40.580513,-3.545145,623.5,4,5,131.8,2.109
54.66,1,-0.007,-0.015,-0.007,-0.023,0.008,-0.012,-1.541,-0.01,-0.067,53.98,92.7,40.580513,-3.545145,623.5,4,5,131.8,2.109
54.76,1,0.003,-0.016,-0.007,-0.009,-0.008,-0.012,-1.539,-0.008,-0.066,53.98,92.7,40.580513,-3.545145,623.5,4,5,131.8,2.109
54.86,1,0.016,0.005,-0.019,0.001,-0.003,-0.014,-1.537,-0.008,-0.064,53.98,92.7,40.580513,-3.545145,623.5,4,5,131.8,2.109
54.98,1,-0.023,0.014,-0.011,0.002,0.001,-0.011,-1.535,-0.008,-0.063,53.98,92.7,40.580513,-3.545145,623.5,4,5,131.8,2.109
55.07,1,-0.01,0.005,-0.007,-0.014,0.005,-0.009,-1.534,-0.007,-0.062,53.98,92.7,40.580513,-3.545145,623.5,4,5,131.8,2.109
55.16,1,-0.019,0.0,0.02,-0.013,0.005,0.005,-1.535,-0.007,-0.061,53.98,92.7,40.580513,-3.545145,623.5,4,5,131.8,2.109
55.27,1,-0.017,-0.015,-0.02,-0.01,-0.002,-0.006,-1.533,-0.004,-0.059,53.98,92.7,40.580513,-3.545145,623.5,4,5,131.8,2.109
55.37,1,-0.024,-0.011,-0.018,-0.022,-0.008,-0.018,-1.533,-0.007,-0.058,54.97,91.9,40.580353,-3.54492,624.0,4,5,132.5,0.703
55.47,1,-0.02,-0.001,0.007,-0.028,-0.009,-0.002,-1.533,-0.008,-0.057,54.97,91.9,40.580353,-3.54492,624.0,4,5,132.5,0.703
55.57,1,0.026,0.009,-0.005,0.003,0.001,-0.003,-1.532,-0.009,-0.055,54.97,91.9,40.580353,-3.54492,624.0,4,5,132.5,0.703
55.67,1,-0.02,-0.035,-0.032,0.001,-0.013,-0.011,-1.53,-0.008,-0.054,54.97,91.9,40.580353,-3.54492,624.0,4,5,132.5,0.703
55.77,1,0.025,-0.047,-0.007,-0.0,-0.032,-0.017,-1.529,-0.004,-0.052,54.97,91.9,40.580353,-3.54492,624.0,4,5,132.5,0.703
55.87,1,-0.014,-0.031,0.024,0.004,-0.036,0.001,-1.529,-0.003,-0.049,54.97,91.9,40.580353,-3.54492,624.0,4,5,132.5,0.703
55.97,1,-0.04,-0.021,0.004,-0.021,-0.03,0.003,-1.531,-0.002,-0.048,54.97,91.9,40.580353,-3.54492,624.0,4,5,132.5,0.703
56.07,1,-0.018,-0.011,0.017,-0.03,-0.019,0.014,-1.534,-0.002,-0.046,54.97,91.9,40.580353,-3.54492,624.0,4,5,132.5,0.703
56.18,1,-0.009,-0.002,0.021,-0.011,-0.004,0.017,-1.534,-0.004,-0.045,54.97,91.9,40.580353,-3.54492,624.0,4,5,132.5,0.703
56.28,1,0.028,0.026,0.011,0.004,0.007,0.015,-1.535,-0.003,-0.044,54.97,91.9,40.580353,-3.54492,624.0,4,5,132.5,0.703
56.37,1,-0.011,-0.017,0.014,0.007,-0.003,0.012,-1.534,-0.004,-0.042,56.0,90.4,40.580196,-3.544698,624.1,4,5,132.2,0.352
56.47,1,-0.001,0.003,0.028,-0.004,0.001,0.019,-1.536,-0.002,-0.041,56.0,90.4,40.580196,-3.544698,624.1,4,5,132.2,0.352
56.57,1,-0.017,0.001,0.008,-0.008,0.002,0.02,-1.539,-0.002,-0.04,56.0,90.4,40.580196,-3.544698,624.1,4,5,132.2,0.352
56.67,1,-0.039,0.023,-0.008,-0.022,0.006,0.004,-1.538,-0.001,-0.039,56.0,90.4,40.580196,-3.544698,624.1,4,5,132.2,0.352
56.77,1,-0.039,-0.002,-0.002,-0.036,0.011,-0.003,-1.536,-0.0,-0.038,56.0,90.4,40.580196,-3.544698,624.1,4,5,132.2,0.352
56.87,1,-0.0,-0.003,0.01,-0.019,-0.002,0.006,-1.537,-0.002,-0.037,56.0,90.4,40.580196,-3.544698,624.1,4,5,132.2,0.352
56.97,1,-0.053,0.008,0.008,-0.023,0.003,0.003,-1.539,-0.001,-0.035,56.0,90.4,40.580196,-3.544698,624.1,4,5,132.2,0.352
57.07,1,-0.004,-0.014,0.034,-0.029,-0.004,0.02,-1.539,0.003,-0.034,56.0,90.4,40.580196,-3.544698,624.1,4,5,132.2,0.352
57.17,1,0.005,0.011,-0.002,-0.003,0.002,0.015,-1.539,0.002,-0.033,56.0,90.4,40.580196,-3.544698,624.1,4,5,132.2,0.352
57.28,1,-0.003,-0.003,0.022,-0.006,-0.0,0.014,-1.54,0.002,-0.031,56.0,90.4,40.580196,-3.544698,624.1,4,5,132.2,0.352
57.38,1,-0.017,-0.012,-0.003,-0.006,-0.004,0.01,-1.541,0.0,-0.03,56.98,89.6,40.580044,-3.544477,624.6,4,5,131.1,1.406
57.48,1,-0.06,0.025,-0.009,-0.035,0.009,-0.001,-1.54,-0.003,-0.029,56.98,89.6,40.580044,-3.544477,624.6,4,5,131.1,1.406
57.57,1,-0.048,-0.028,0.004,-0.052,-0.003,-0.003,-1.543,-0.003,-0.027,56.98,89.6,40.580044,-3.544477,624.6,4,5,131.1,1.406
57.67,1,-0.002,-0.016,0.041,-0.027,-0.014,0.021,-1.544,-0.0,-0.025,56.98,89.6,40.580044,-3.544477,624.6,4,5,131.1,1.406
57.77,1,0.012,-0.042,0.027,-0.008,-0.033,0.025,-1.543,0.001,-0.023,56.98,89.6,40.580044,-3.544477,624.6,4,5,131.1,1.406
57.88,1,0.043,-0.039,0.011,0.024,-0.035,0.015,-1.544,0.004,-0.021,56.98,89.6,40.580044,-3.544477,624.6,4,5,131.1,1.406
57.98,1,-0.014,-0.026,0.02,0.013,-0.026,0.022,-1.545,0.005,-0.018,56.98,89.6,40.580044,-3.544477,624.6,4,5,131.1,1.406
58.07,1,-0.036,0.008,0.009,-0.012,-0.018,0.016,-1.547,0.004,-0.017,56.98,89.6,40.580044,-3.544477,624.6,4,5,131.1,1.406
58.17,1,-0.023,0.001,0.025,-0.028,-0.003,0.015,-1.549,0.002,-0.015,56.98,89.6,40.580044,-3.544477,624.6,4,5,131.1,1.406
58.28,1,0.056,-0.009,0.031,0.009,-0.003,0.024,-1.549,-0.001,-0.014,56.98,89.6,40.580044,-3.544477,624.6,4,5,131.1,1.406
58.37,1,0.006,0.028,0.009,0.022,0.007,0.021,-1.547,-0.003,-0.012,57.97,89.2,40.579895,-3.544253,625.0,3,5,131.1,1.055
58.48,1,-0.02,0.021,-0.009,-0.0,0.017,0.001,-1.545,-0.003,-0.011,57.97,89.2,40.579895,-3.544253,625.0,3,5,131.1,1.055
58.57,1,-0.037,0.002,0.034,-0.019,0.012,0.013,-1.546,-0.001,-0.01,57.97,89.2,40.579895,-3.544253,625.0,3,5,131.1,1.055
58.69,1,0.017,0.027,0.001,-0.007,0.022,0.015,-1.548,0.0,-0.01,57.97,89.2,40.579895,-3.544253,625.0,3,5,131.1,1.055
58.77,1,0.003,0.009,0.003,-0.002,0.011,0.008,-1.547,-0.001,-0.009,57.97,89.2,40.579895,-3.544253,625.0,3,5,131.1,1.055
58.87,1,-0.013,0.001,-0.016,-0.001,0.007,-0.004,-1.547,-0.002,-0.008,57.97,89.2,40.579895,-3.544253,625.0,3,5,131.1,1.055
58.97,1,-0.025,-0.0,0.025,-0.02,0.006,0.005,-1.547,-0.001,-0.007,57.97,89.2,40.579895,-3.544253,625.0,3,5,131.1,1.055
59.08,1,-0.029,-0.007,0.003,-0.023,-0.004,0.012,-1.548,-0.0,-0.006,57.97,89.2,40.579895,-3.544253,625.0,3,5,131.1,1.055
59.18,1,0.011,-0.011,0.017,-0.017,-0.005,0.009,-1.548,0.003,-0.004,57.97,89.2,40.579895,-3.544253,625.0,3,5,131.1,1.055
59.28,1,0.014,-0.017,0.008,0.011,-0.013,0.012,-1.549,0.005,-0.002,57.97,89.2,40.579895,-3.544253,625.0,3,5,131.1,1.055
59.38,1,0.02,-0.029,0.019,0.015,-0.02,0.013,-1.548,0.006,-0.0,59.03,88.6,40.579746,-3.544027,625.3,3,5,130.1,1.055
59.48,1,0.0,-0.015,-0.014,0.011,-0.018,0.003,-1.549,0.008,0.002,59.03,88.6,40.579746,-3.544027,625.3,3,5,130.1,1.055
59.58,1,-0.008,-0.025,0.012,-0.001,-0.021,0.002,-1.549,0.011,0.004,59.03,88.6,40.579746,-3.544027,625.3,3,5,130.1,1.055
59.68,1,-0.03,0.01,-0.026,-0.015,-0.006,-0.006,-1.548,0.016,0.006,59.03,88.6,40.579746,-3.544027,625.3,3,5,130.1,1.055
59.78,1,-0.023,-0.015,0.012,-0.021,-0.008,-0.004,-1.548,0.018,0.009,59.03,88.6,40.579746,-3.544027,625.3,3,5,130.1,1.055
59.88,1,-0.014,-0.015,-0.0,-0.018,-0.018,0.0,-1.548,0.019,0.011,59.03,88.6,40.579746,-3.544027,625.3,3,5,130.1,1.055
59.98,1,-0.007,-0.008,-0.003,-0.016,-0.008,-0.0,-1.547,0.023,0.014,59.03,88.6,40.579746,-3.544027,625.3,3,5,130.1,1.055
60.08,1,0.021,-0.01,0.003,0.006,-0.009,0.001,-1.546,0.025,0.016,59.03,88.6,40.579746,-3.544027,625.3,3,5,130.1,1.055
60.18,1,-0.009,-0.009,0.006,0.004,-0.011,0.004,-1.546,0.026,0.018,59.03,88.6,40.579746,-3.544027,625.3,3,5,130.1,1.055
60.28,1,-0.005,-0.026,0.015,-0.005,-0.017,0.01,-1.547,0.027,0.021,59.03,88.6,40.579746,-3.544027,625.3,3,5,130.1,1.055
60.39,1,-0.004,-0.02,0.006,-0.004,-0.02,0.009,-1.548,0.028,0.023,59.95,88.5,40.579605,-3.543805,625.7,3,5,129.7,1.406
60.48,1,0.017,-0.029,-0.009,0.006,-0.023,0.001,-1.548,0.026,0.026,59.95,88.5,40.579605,-3.543805,625.7,3,5,129.7,1.406
60.58,1,0.02,-0.013,-0.004,0.013,-0.022,-0.003,-1.547,0.024,0.028,59.95,88.5,40.579605,-3.543805,625.7,3,5,129.7,1.406
60.68,1,-0.037,-0.012,-0.015,-0.004,-0.013,-0.009,-1.546,0.024,0.03,59.95,88.5,40.579605,-3.543805,625.7,3,5,129.7,1.406
60.78,1,-0.051,-0.001,0.011,-0.029,-0.01,-0.006,-1.545,0.025,0.031,59.95,88.5,40.579605,-3.543805,625.7,3,5,129.7,1.406
60.88,1,-0.003,-0.02,0.005,-0.029,-0.011,0.008,-1.546,0.024,0.033,59.95,88.5,40.579605,-3.543805,625.7,3,5,129.7,1.406
60.98,1,-0.02,0.046,0.004,-0.019,0.009,0.003,-1.546,0.021,0.034,59.95,88.5,40.579605,-3.543805,625.7,3,5,129.7,1.406
61.09,1,0.035,0.012,-0.029,0.003,0.017,-0.007,-1.544,0.018,0.035,59.95,88.5,40.579605,-3.543805,625.7,3,5,129.7,1.406
61.18,1,-0.001,0.046,-0.02,0.011,0.027,-0.018,-1.543,0.014,0.036,59.95,88.5,40.579605,-3.543805,625.7,3,5,129.7,1.406
61.28,1,-0.052,0.034,0.0,-0.018,0.036,-0.016,-1.543,0.014,0.036,59.95,88.5,40.579605,-3.543805,625.7,3,5,129.7,1.406
61.38,1,0.002,0.027,-0.003,-0.022,0.033,-0.001,-1.544,0.012,0.037,61.0,87.3,40.579464,-3.54358,626.2,3,5,128.7,1.406
61.48,1,0.041,0.015,-0.02,0.012,0.022,-0.007,-1.542,0.011,0.038,61.0,87.3,40.579464,-3.54358,626.2,3,5,128.7,1.406
61.58,1,-0.007,0.006,-0.004,0.011,0.016,-0.011,-1.54,0.011,0.038,61.0,87.3,40.579464,-3.54358,626.2,3,5,128.7,1.406
61.68,1,-0.023,0.036,-0.027,-0.007,0.024,-0.017,-1.54,0.012,0.038,61.0,87.3,40.579464,-3.54358,626.2,3,5,128.7,1.406
61.79,1,-0.056,0.025,-0.019,-0.03,0.025,-0.022,-1.54,0.01,0.038,61.0,87.3,40.579464,-3.54358,626.2,3,5,128.7,1.406
61.88,1,-0.039,0.026,0.011,-0.044,0.028,-0.008,-1.542,0.006,0.038,61.0,87.3,40.579464,-3.54358,626.2,3,5,128.7,1.406
62.08,1,0.016,0.037,-0.012,-0.005,0.032,-0.004,-1.543,0.001,0.038,61.0,87.3,40.579464,-3.54358,626.2,3,5,128.7,1.406
62.19,1,-0.01,0.012,-0.01,0.002,0.024,-0.011,-1.541,0.0,0.038,61.0,87.3,40.579464,-3.54358,626.2,3,5,128.7,1.406
62.28,1,-0.001,0.018,0.005,0.0,0.022,-0.006,-1.542,0.0,0.038,61.0,87.3,40.579464,-3.54358,626.2,3,5,128.7,1.406
62.39,1,0.017,0.015,0.005,0.006,0.017,0.003,-1.542,0.0,0.039,61.0,87.3,40.579464,-3.54358,626.2,3,5,128.7,1.406
62.48,1,-0.025,0.01,0.004,-0.007,0.01,0.006,-1.543,-0.0,0.039,61.95,87.5,40.57933,-3.543354,626.6,3,5,127.3,2.461
62.59,1,0.04,0.007,0.011,0.011,0.008,0.009,-1.542,-0.0,0.039,61.95,87.5,40.57933,-3.543354,626.6,3,5,127.3,2.461
62.69,1,-0.002,0.004,0.006,0.014,0.012,0.006,-1.545,-0.0,0.04,61.95,87.5,40.57933,-3.543354,626.6,3,5,127.3,2.461
62.79,1,-0.033,-0.012,0.024,-0.011,0.001,0.011,-1.547,0.001,0.041,61.95,87.5,40.57933,-3.543354,626.6,3,5,127.3,2.461
62.89,1,-0.029,-0.029,0.03,-0.032,-0.027,0.023,-1.55,0.004,0.043,61.95,87.5,40.57933,-3.543354,626.6,3,5,127.3,2.461
63.0,1,-0.04,-0.019,0.033,-0.027,-0.017,0.032,-1.552,0.003,0.044,61.95,87.5,40.57933,-3.543354,626.6,3,5,127.3,2.461
63.09,1,-0.039,-0.011,0.016,-0.037,-0.017,0.022,-1.554,0.005,0.045,61.95,87.5,40.57933,-3.543354,626.6,3,5,127.3,2.461
63.19,1,-0.008,-0.0,0.021,-0.024,-0.002,0.019,-1.558,0.007,0.046,61.95,87.5,40.57933,-3.543354,626.6,3,5,127.3,2.461
63.29,1,-0.062,-0.031,0.01,-0.035,-0.015,0.017,-1.56,0.009,0.048,61.95,87.5,40.57933,-3.543354,626.6,3,5,127.3,2.461
63.39,1,-0.024,-0.045,-0.005,-0.036,-0.024,0.006,-1.562,0.011,0.05,61.95,87.5,40.57933,-3.543354,626.6,3,5,127.3,2.461
63.49,1,0.017,0.003,0.018,-0.003,-0.028,0.012,-1.561,0.013,0.052,62.95,86.3,40.579205,-3.543137,626.5,3,5,126.9,1.758
63.6,1,0.03,-0.036,-0.01,-0.001,-0.022,-0.001,-1.56,0.015,0.054,62.95,86.3,40.579205,-3.543137,626.5,3,5,126.9,1.758
63.7,1,0.044,-0.049,0.005,0.03,-0.037,0.003,-1.559,0.016,0.057,62.95,86.3,40.579205,-3.543137,626.5,3,5,126.9,1.758
63.79,1,0.01,-0.025,-0.013,0.023,-0.035,-0.004,-1.559,0.016,0.059,62.95,86.3,40.579205,-3.543137,626.5,3,5,126.9,1.758
63.89,1,-0.012,-0.048,-0.008,0.007,-0.041,-0.008,-1.559,0.018,0.061,62.95,86.3,40.579205,-3.543137,626.5,3,5,126.9,1.758
63.99,1,-0.038,-0.016,-0.011,-0.018,-0.033,-0.012,-1.557,0.019,0.064,62.95,86.3,40.579205,-3.543137,626.5,3,5,126.9,1.758
64.09,1,0.003,-0.017,-0.016,-0.014,-0.023,-0.008,-1.558,0.021,0.066,62.95,86.3,40.579205,-3.543137,626.5,3,5,126.9,1.758
64.19,1,-0.015,-0.032,-0.018,-0.007,-0.028,-0.016,-1.556,0.023,0.069,62.95,86.3,40.579205,-3.543137,626.5,3,5,126.9,1.758
64.29,1,0.003,-0.022,-0.039,-0.014,-0.017,-0.027,-1.554,0.024,0.07,62.95,86.3,40.579205,-3.543137,626.5,3,5,126.9,1.758
64.39,1,0.014,0.014,-0.003,0.008,-0.006,-0.018,-1.553,0.022,0.071,62.95,86.3,40.579205,-3.543137,626.5,3,5,126.9,1.758
64.49,1,-0.081,0.045,-0.043,-0.028,0.015,-0.026,-1.551,0.021,0.072,63.96,87.3,40.579075,-3.542909,626.5,3,5,126.2,1.055
64.59,1,0.008,0.03,-0.003,-0.025,0.027,-0.018,-1.549,0.019,0.072,63.96,87.3,40.579075,-3.542909,626.5,3,5,126.2,1.055
64.69,1,0.006,0.02,-0.014,-0.002,0.031,-0.018,-1.545,0.015,0.073,63.96,87.3,40.579075,-3.542909,626.5,3,5,126.2,1.055
64.79,1,0.002,0.021,-0.029,-0.001,0.024,-0.017,-1.544,0.013,0.073,63.96,87.3,40.579075,-3.542909,626.5,3,5,126.2,1.055
64.89,1,0.003,0.015,0.001,0.005,0.016,-0.015,-1.543,0.011,0.073,63.96,87.3,40.579075,-3.542909,626.5,3,5,126.2,1.055
64.99,1,-0.044,0.005,-0.014,-0.015,0.012,-0.011,-1.543,0.01,0.073,63.96,87.3,40.579075,-3.542909,626.5,3,5,126.2,1.055
65.09,1,-0.013,0.031,-0.02,-0.028,0.026,-0.014,-1.543,0.006,0.073,63.96,87.3,40.579075,-3.542909,626.5,3,5,126.2,1.055
65.2,1,-0.0,0.045,0.006,-0.013,0.026,-0.009,-1.542,0.007,0.073,63.96,87.3,40.579075,-3.542909,626.5,3,5,126.2,1.055
65.29,1,-0.015,0.029,0.004,-0.009,0.03,0.001,-1.544,0.004,0.073,63.96,87.3,40.579075,-3.542909,626.5,3,5,126.2,1.055
65.41,1,-0.028,0.007,0.006,-0.02,0.024,0.002,-1.546,0.002,0.073,63.96,87.3,40.579075,-3.542909,626.5,3,5,126.2,1.055
65.49,1,0.011,0.006,0.01,-0.006,0.014,0.009,-1.547,-0.003,0.072,65.03,87.4,40.578949,-3.542673,626.8,3,5,124.8,2.109
65.59,1,-0.011,0.013,0.001,-0.005,0.008,0.005,-1.547,-0.004,0.072,65.03,87.4,40.578949,-3.542673,626.8,3,5,124.8,2.109
65.69,1,0.006,0.014,0.023,-0.003,0.014,0.014,-1.55,-0.003,0.072,65.03,87.4,40.578949,-3.542673,626.8,3,5,124.8,2.109
65.79,1,-0.044,-0.004,0.031,-0.016,0.003,0.022,-1.554,-0.002,0.072,65.03,87.4,40.578949,-3.542673,626.8,3,5,124.8,2.109
65.89,1,-0.002,-0.004,0.038,-0.02,0.004,0.028,-1.558,-0.001,0.073,65.03,87.4,40.578949,-3.542673,626.8,3,5,124.8,2.109
65.99,1,-0.022,-0.039,0.023,-0.008,-0.012,0.029,-1.561,0.001,0.075,65.03,87.4,40.578949,-3.542673,626.8,3,5,124.8,2.109
66.1,1,0.014,-0.022,0.015,-0.01,-0.024,0.023,-1.562,0.003,0.076,65.03,87.4,40.578949,-3.542673,626.8,3,5,124.8,2.109
66.19,1,-0.002,-0.033,0.053,0.006,-0.033,0.033,-1.566,0.005,0.077,65.03,87.4,40.578949,-3.542673,626.8,3,5,124.8,2.109
66.3,1,-0.028,-0.011,0.022,-0.013,-0.022,0.032,-1.57,0.004,0.079,65.03,87.4,40.578949,-3.542673,626.8,3,5,124.8,2.109
66.4,1,-0.026,-0.017,0.025,-0.025,-0.018,0.027,-1.572,0.005,0.08,65.03,87.4,40.578949,-3.542673,626.8,3,5,124.8,2.109
66.5,1,0.005,-0.003,0.011,-0.015,-0.01,0.023,-1.574,0.005,0.081,65.98,87.3,40.578827,-3.542438,627.2,3,5,124.1,2.109
66.6,1,0.005,0.001,0.015,0.007,-0.006,0.016,-1.574,0.005,0.081,65.98,87.3,40.578827,-3.542438,627.2,3,5,124.1,2.109
66.7,1,-0.016,-0.006,0.02,-0.009,-0.007,0.016,-1.576,0.005,0.082,65.98,87.3,40.578827,-3.542438,627.2,3,5,124.1,2.109
66.8,1,-0.013,0.016,0.004,-0.013,0.007,0.014,-1.58,0.006,0.083,65.98,87.3,40.578827,-3.542438,627.2,3,5,124.1,2.109
66.9,1,-0.009,-0.017,0.014,-0.014,-0.003,0.012,-1.581,0.006,0.083,65.98,87.3,40.578827,-3.542438,627.2,3,5,124.1,2.109
67.0,1,0.004,0.027,-0.013,-0.002,0.008,0.005,-1.582,0.002,0.084,65.98,87.3,40.578827,-3.542438,627.2,3,5,124.1,2.109
67.11,1,-0.031,-0.014,0.012,-0.015,0.003,-0.001,-1.583,0.002,0.084,65.98,87.3,40.578827,-3.542438,627.2,3,5,124.1,2.109
67.2,1,0.025,0.019,0.013,-0.005,0.003,0.012,-1.584,0.003,0.084,65.98,87.3,40.578827,-3.542438,627.2,3,5,124.1,2.109
67.31,1,0.003,0.024,0.002,0.017,0.02,0.009,-1.583,0.001,0.083,65.98,87.3,40.578827,-3.542438,627.2,3,5,124.1,2.109
67.4,1,-0.036,0.027,0.005,-0.015,0.02,-0.001,-1.58,-0.0,0.083,65.98,87.3,40.578827,-3.542438,627.2,3,5,124.1,2.109
67.5,1,-0.019,0.025,0.004,-0.025,0.027,0.004,-1.582,-0.0,0.083,66.96,87.0,40.578697,-3.542201,627.2,4,5,123.4,1.406
67.6,1,-0.007,0.022,-0.004,-0.013,0.028,-0.001,-1.583,-0.0,0.082,66.96,87.0,40.578697,-3.542201,627.2,4,5,123.4,1.406
67.71,1,0.007,0.042,0.002,-0.005,0.028,0.003,-1.583,-0.003,0.081,66.96,87.0,40.578697,-3.542201,627.2,4,5,123.4,1.406
67.81,1,-0.019,0.009,-0.02,-0.007,0.02,-0.005,-1.583,-0.004,0.08,66.96,87.0,40.578697,-3.542201,627.2,4,5,123.4,1.406
67.91,1,0.019,0.007,-0.011,-0.0,0.013,-0.016,-1.581,-0.003,0.079,66.96,87.0,40.578697,-3.542201,627.2,4,5,123.4,1.406
68.01,1,-0.034,0.03,-0.033,-0.013,0.025,-0.019,-1.581,-0.004,0.078,66.96,87.0,40.578697,-3.542201,627.2,4,5,123.4,1.406
68.11,1,-0.001,0.014,-0.028,-0.012,0.019,-0.029,-1.577,-0.004,0.078,66.96,87.0,40.578697,-3.542201,627.2,4,5,123.4,1.406
68.2,1,-0.004,-0.003,-0.019,-0.007,0.007,-0.021,-1.575,-0.005,0.077,66.96,87.0,40.578697,-3.542201,627.2,4,5,123.4,1.406
68.3,1,0.021,0.014,-0.008,0.013,0.01,-0.018,-1.574,-0.007,0.076,66.96,87.0,40.578697,-3.542201,627.2,4,5,123.4,1.406
68.41,1,-0.038,-0.001,-0.03,-0.009,0.003,-0.02,-1.573,-0.006,0.076,66.96,87.0,40.578697,-3.542201,627.2,4,5,123.4,1.406
68.51,1,0.04,-0.009,0.016,0.001,-0.002,-0.011,-1.572,-0.007,0.075,67.99,88.3,40.578575,-3.541951,627.6,3,5,122.7,1.406
68.6,1,0.006,0.019,-0.009,0.015,0.007,-0.003,-1.572,-0.009,0.074,67.99,88.3,40.578575,-3.541951,627.6,3,5,122.7,1.406
68.7,1,-0.007,0.017,-0.004,-0.003,0.012,-0.004,-1.569,-0.009,0.073,67.99,88.3,40.578575,-3.541951,627.6,3,5,122.7,1.406
68.8,1,0.008,-0.008,0.009,0.008,0.004,0.002,-1.569,-0.01,0.073,67.99,88.3,40.578575,-3.541951,627.6,3,5,122.7,1.406
68.9,1,-0.026,-0.004,-0.008,-0.014,-0.001,0.002,-1.57,-0.013,0.072,67.99,88.3,40.578575,-3.541951,627.6,3,5,122.7,1.406
69.0,1,0.017,-0.003,0.009,-0.011,0.005,0.002,-1.57,-0.015,0.071,67.99,88.3,40.578575,-3.541951,627.6,3,5,122.7,1.406
69.1,1,0.001,0.006,-0.016,0.012,0.001,-0.006,-1.569,-0.016,0.07,67.99,88.3,40.578575,-3.541951,627.6,3,5,122.7,1.406
69.21,1,-0.055,0.042,-0.007,-0.023,0.016,-0.007,-1.57,-0.018,0.07,67.99,88.3,40.578575,-3.541951,627.6,3,5,122.7,1.406
69.3,1,-0.013,0.051,-0.007,-0.027,0.04,-0.008,-1.572,-0.015,0.069,67.99,88.3,40.578575,-3.541951,627.6,3,5,122.7,1.406
69.4,1,-0.021,0.015,0.024,-0.014,0.027,0.004,-1.572,-0.014,0.069,67.99,88.3,40.578575,-3.541951,627.6,3,5,122.7,1.406
69.5,1,-0.018,-0.021,-0.002,-0.017,0.005,0.003,-1.573,-0.014,0.069,68.96,88.8,40.578468,-3.541739,628.0,4,5,122.7,0.703
69.6,1,-0.011,-0.009,-0.002,-0.014,-0.005,0.004,-1.574,-0.014,0.068,68.96,88.8,40.578468,-3.541739,628.0,4,5,122.7,0.703
69.71,1,0.007,0.02,0.005,-0.005,0.004,0.002,-1.576,-0.015,0.068,68.96,88.8,40.578468,-3.541739,628.0,4,5,122.7,0.703
69.8,1,-0.033,0.004,-0.0,-0.019,0.009,-0.001,-1.575,-0.015,0.067,68.96,88.8,40.578468,-3.541739,628.0,4,5,122.7,0.703
69.9,1,0.05,0.011,0.01,0.007,0.005,0.007,-1.576,-0.014,0.067,68.96,88.8,40.578468,-3.541739,628.0,4,5,122.7,0.703
70.01,1,-0.016,-0.002,-0.031,0.008,0.004,-0.011,-1.573,-0.014,0.068,68.96,88.8,40.578468,-3.541739,628.0,4,5,122.7,0.703
70.11,1,-0.024,-0.024,-0.001,-0.011,-0.008,-0.01,-1.573,-0.011,0.069,68.96,88.8,40.578468,-3.541739,628.0,4,5,122.7,0.703
70.21,1,-0.016,-0.03,0.007,-0.011,-0.021,-0.0,-1.576,-0.009,0.07,68.96,88.8,40.578468,-3.541739,628.0,4,5,122.7,0.703
70.31,1,-0.024,-0.018,-0.001,-0.022,-0.023,0.003,-1.577,-0.005,0.071,68.96,88.8,40.578468,-3.541739,628.0,4,5,122.7,0.703
70.42,1,-0.018,-0.023,-0.003,-0.02,-0.02,-0.004,-1.576,-0.002,0.072,68.96,88.8,40.578468,-3.541739,628.0,4,5,122.7,0.703
70.51,1,-0.0,-0.041,0.013,-0.012,-0.028,0.003,-1.577,0.002,0.073,69.98,89.2,40.57835,-3.54149,628.2,4,5,122.3,0.352
70.61,1,-0.032,-0.058,0.017,-0.014,-0.043,0.009,-1.578,0.004,0.075,69.98,89.2,40.57835,-3.54149,628.2,4,5,122.3,0.352
70.71,1,0.022,-0.018,0.019,-0.007,-0.037,0.018,-1.581,0.008,0.077,69.98,89.2,40.57835,-3.54149,628.2,4,5,122.3,0.352
70.81,1,-0.007,-0.016,0.007,0.002,-0.027,0.014,-1.582,0.01,0.079,69.98,89.2,40.57835,-3.54149,628.2,4,5,122.3,0.352
70.91,1,0.003,-0.03,-0.014,0.005,-0.024,0.002,-1.581,0.012,0.081,69.98,89.2,40.57835,-3.54149,628.2,4,5,122.3,0.352
71.01,1,-0.022,-0.042,-0.001,-0.01,-0.031,-0.005,-1.581,0.017,0.083,69.98,89.2,40.57835,-3.54149,628.2,4,5,122.3,0.352
71.12,1,-0.021,-0.033,-0.008,-0.022,-0.037,-0.005,-1.581,0.022,0.086,69.98,89.2,40.57835,-3.54149,628.2,4,5,122.3,0.352
71.21,1,0.02,-0.041,-0.018,-0.004,-0.035,-0.012,-1.579,0.027,0.089,69.98,89.2,40.57835,-3.54149,628.2,4,5,122.3,0.352
71.31,1,-0.01,-0.047,-0.044,0.001,-0.041,-0.025,-1.575,0.033,0.092,69.98,89.2,40.57835,-3.54149,628.2,4,5,122.3,0.352
71.42,1,-0.019,-0.023,-0.036,-0.013,-0.035,-0.033,-1.572,0.037,0.095,69.98,89.2,40.57835,-3.54149,628.2,4,5,122.3,0.352
71.51,1,-0.025,-0.025,-0.039,-0.017,-0.031,-0.039,-1.57,0.039,0.097,71.02,90.1,40.578224,-3.541232,628.1,4,5,122.3,0.352
71.62,1,-0.02,-0.031,-0.035,-0.022,-0.027,-0.036,-1.567,0.041,0.1,71.02,90.1,40.578224,-3.541232,628.1,4,5,122.3,0.352
71.71,1,-0.015,-0.018,-0.023,-0.025,-0.026,-0.03,-1.565,0.042,0.102,71.02,90.1,40.578224,-3.541232,628.1,4,5,122.3,0.352
71.81,1,-0.032,0.013,-0.043,-0.016,-0.009,-0.032,-1.563,0.041,0.104,71.02,90.1,40.578224,-3.541232,628.1,4,5,122.3,0.352
71.91,1,-0.02,0.01,-0.028,-0.023,0.004,-0.034,-1.56,0.042,0.106,71.02,90.1,40.578224,-3.541232,628.1,4,5,122.3,0.352
72.12,1,0.012,0.001,-0.018,-0.002,0.011,-0.027,-1.556,0.037,0.108,71.02,90.1,40.578224,-3.541232,628.1,4,5,122.3,0.352
72.21,1,-0.011,0.041,-0.036,-0.002,0.017,-0.032,-1.555,0.035,0.109,71.02,90.1,40.578224,-3.541232,628.1,4,5,122.3,0.352
72.31,1,-0.002,0.034,-0.03,-0.008,0.031,-0.032,-1.551,0.032,0.11,71.02,90.1,40.578224,-3.541232,628.1,4,5,122.3,0.352
72.41,1,-0.01,0.037,-0.013,0.0,0.034,-0.017,-1.551,0.028,0.11,71.02,90.1,40.578224,-3.541232,628.1,4,5,122.3,0.352
72.51,1,-0.023,0.039,0.004,-0.016,0.036,-0.014,-1.551,0.023,0.11,71.02,90.1,40.578224,-3.541232,628.1,4,5,122.3,0.352
72.61,1,-0.019,0.041,-0.006,-0.017,0.039,-0.004,-1.551,0.018,0.109,71.95,91.0,40.57811,-3.540965,628.0,4,5,120.6,1.758
72.72,1,-0.022,0.031,-0.035,-0.023,0.04,-0.015,-1.549,0.014,0.108,71.95,91.0,40.57811,-3.540965,628.0,4,5,120.6,1.758
72.81,1,0.006,0.055,-0.013,-0.008,0.047,-0.018,-1.546,0.01,0.107,71.95,91.0,40.57811,-3.540965,628.0,4,5,120.6,1.758
72.91,1,-0.018,0.047,-0.022,-0.012,0.048,-0.022,-1.545,0.005,0.106,71.95,91.0,40.57811,-3.540965,628.0,4,5,120.6,1.758
73.01,1,0.001,0.053,-0.011,-0.003,0.047,-0.016,-1.544,0.001,0.104,71.95,91.0,40.57811,-3.540965,628.0,4,5,120.6,1.758
73.11,1,-0.039,0.03,-0.007,-0.019,0.041,-0.015,-1.543,-0.006,0.102,71.95,91.0,40.57811,-3.540965,628.0,4,5,120.6,1.758
73.21,1,0.008,0.05,-0.01,-0.015,0.042,-0.008,-1.544,-0.008,0.1,71.95,91.0,40.57811,-3.540965,628.0,4,5,120.6,1.758
73.31,1,-0.008,0.04,0.015,-0.007,0.048,-0.0,-1.543,-0.011,0.099,71.95,91.0,40.57811,-3.540965,628.0,4,5,120.6,1.758
73.41,1,0.008,0.041,-0.0,-0.006,0.042,0.003,-1.543,-0.012,0.097,71.95,91.0,40.57811,-3.540965,628.0,4,5,120.6,1.758
73.52,1,-0.005,0.031,-0.02,0.009,0.034,-0.003,-1.542,-0.012,0.095,71.95,91.0,40.57811,-3.540965,628.0,4,5,120.6,1.758
73.62,1,-0.016,0.01,-0.007,-0.007,0.025,-0.01,-1.543,-0.014,0.094,72.97,91.0,40.577995,-3.540708,628.5,4,5,120.6,1.758
73.72,1,-0.034,0.02,0.023,-0.023,0.02,0.003,-1.544,-0.015,0.093,72.97,91.0,40.577995,-3.540708,628.5,4,5,120.6,1.758
73.82,1,-0.005,0.011,0.019,-0.016,0.016,0.015,-1.547,-0.02,0.091,72.97,91.0,40.577995,-3.540708,628.5,4,5,120.6,1.758
73.92,1,-0.021,0.038,0.005,-0.018,0.026,0.01,-1.548,-0.024,0.09,72.97,91.0,40.577995,-3.540708,628.5,4,5,120.6,1.758
74.02,1,-0.016,0.012,0.044,-0.014,0.018,0.021,-1.551,-0.023,0.09,72.97,91.0,40.577995,-3.540708,628.5,4,5,120.6,1.758
74.12,1,-0.007,-0.027,0.015,-0.01,-0.002,0.027,-1.555,-0.018,0.09,72.97,91.0,40.577995,-3.540708,628.5,4,5,120.6,1.758
74.22,1,-0.017,-0.053,0.047,-0.008,-0.025,0.034,-1.557,-0.012,0.09,72.97,91.0,40.577995,-3.540708,628.5,4,5,120.6,1.758
74.32,1,-0.023,-0.017,0.022,-0.029,-0.033,0.027,-1.559,-0.008,0.091,72.97,91.0,40.577995,-3.540708,628.5,4,5,120.6,1.758
74.42,1,0.029,-0.017,0.053,0.006,-0.021,0.038,-1.56,-0.007,0.091,72.97,91.0,40.577995,-3.540708,628.5,4,5,120.6,1.758
74.52,1,-0.023,-0.021,0.035,-0.005,-0.019,0.044,-1.563,-0.003,0.091,72.97,91.0,40.577995,-3.540708,628.5,4,5,120.6,1.758
74.62,1,-0.005,-0.027,0.027,-0.013,-0.025,0.03,-1.563,0.0,0.092,73.98,89.6,40.577892,-3.540434,628.7,4,5,118.8,1.758
74.72,1,0.0,-0.002,0.016,-0.0,-0.016,0.024,-1.566,0.002,0.092,73.98,89.6,40.577892,-3.540434,628.7,4,5,118.8,1.758
74.82,1,-0.024,-0.033,0.025,-0.006,-0.019,0.023,-1.569,0.004,0.092,73.98,89.6,40.577892,-3.540434,628.7,4,5,118.8,1.758
74.92,1,-0.018,-0.04,0.015,-0.025,-0.027,0.019,-1.57,0.007,0.094,73.98,89.6,40.577892,-3.540434,628.7,4,5,118.8,1.758
75.02,1,0.019,-0.02,0.027,-0.005,-0.032,0.025,-1.573,0.012,0.095,73.98,89.6,40.577892,-3.540434,628.7,4,5,118.8,1.758
75.12,1,-0.027,-0.031,-0.005,-0.016,-0.022,0.009,-1.573,0.013,0.097,73.98,89.6,40.577892,-3.540434,628.7,4,5,118.8,1.758
75.22,1,-0.041,-0.025,0.009,-0.022,-0.027,0.008,-1.574,0.014,0.098,73.98,89.6,40.577892,-3.540434,628.7,4,5,118.8,1.758
75.32,1,-0.04,-0.03,0.017,-0.029,-0.028,0.016,-1.577,0.017,0.1,73.98,89.6,40.577892,-3.540434,628.7,4,5,118.8,1.758
75.43,1,-0.004,-0.037,0.007,-0.018,-0.032,0.009,-1.579,0.019,0.101,73.98,89.6,40.577892,-3.540434,628.7,4,5,118.8,1.758
75.53,1,0.034,-0.03,0.017,0.0,-0.033,0.013,-1.579,0.022,0.104,73.98,89.6,40.577892,-3.540434,628.7,4,5,118.8,1.758
75.62,1,0.008,-0.03,0.002,0.012,-0.029,0.009,-1.579,0.023,0.105,74.96,89.6,40.577785,-3.54016,628.9,4,5,118.8,1.758
75.72,1,-0.015,-0.009,-0.021,0.004,-0.021,-0.008,-1.577,0.024,0.107,74.96,89.6,40.577785,-3.54016,628.9,4,5,118.8,1.758
75.82,1,-0.023,-0.007,-0.012,-0.019,-0.013,-0.01,-1.575,0.027,0.109,74.96,89.6,40.577785,-3.54016,628.9,4,5,118.8,1.758
75.92,1,-0.027,-0.01,-0.038,-0.016,-0.011,-0.02,-1.574,0.028,0.111,74.96,89.6,40.577785,-3.54016,628.9,4,5,118.8,1.758
76.02,1,-0.041,-0.003,-0.018,-0.032,-0.008,-0.023,-1.572,0.03,0.112,74.96,89.6,40.577785,-3.54016,628.9,4,5,118.8,1.758
76.13,1,0.006,-0.009,-0.017,-0.021,-0.008,-0.024,-1.569,0.029,0.113,74.96,89.6,40.577785,-3.54016,628.9,4,5,118.8,1.758
76.22,1,-0.003,-0.001,-0.001,-0.002,-0.004,-0.01,-1.569,0.032,0.114,74.96,89.6,40.577785,-3.54016,628.9,4,5,118.8,1.758
76.32,1,-0.013,0.015,-0.009,-0.013,0.003,-0.008,-1.569,0.033,0.115,74.96,89.6,40.577785,-3.54016,628.9,4,5,118.8,1.758
76.43,1,-0.006,0.02,-0.029,-0.003,0.014,-0.015,-1.569,0.031,0.116,74.96,89.6,40.577785,-3.54016,628.9,4,5,118.8,1.758
76.53,1,-0.035,0.029,-0.016,-0.019,0.019,-0.022,-1.566,0.027,0.116,74.96,89.6,40.577785,-3.54016,628.9,4,5,118.8,1.758
76.63,1,-0.002,0.04,-0.014,-0.017,0.033,-0.017,-1.566,0.025,0.115,75.96,90.6,40.577675,-3.539899,629.1,6,5,118.1,0.703
76.72,1,-0.007,0.024,0.017,-0.012,0.032,-0.001,-1.566,0.023,0.115,75.96,90.6,40.577675,-3.539899,629.1,6,5,118.1,0.703
76.82,1,0.028,0.04,0.004,0.009,0.031,0.006,-1.567,0.023,0.114,75.96,90.6,40.577675,-3.539899,629.1,6,5,118.1,0.703
76.92,1,0.012,0.04,-0.008,0.015,0.03,0.0,-1.566,0.018,0.113,75.96,90.6,40.577675,-3.539899,629.1,6,5,118.1,0.703
77.02,1,-0.025,0.031,0.001,-0.0,0.037,-0.0,-1.565,0.013,0.112,75.96,90.6,40.577675,-3.539899,629.1,6,5,118.1,0.703
77.13,1,-0.035,0.043,0.016,-0.025,0.042,0.007,-1.567,0.01,0.11,75.96,90.6,40.577675,-3.539899,629.1,6,5,118.1,0.703
77.22,1,-0.052,0.026,-0.003,-0.037,0.033,-0.002,-1.568,0.008,0.109,75.96,90.6,40.577675,-3.539899,629.1,6,5,118.1,0.703
77.33,1,0.019,0.055,0.018,-0.022,0.04,0.01,-1.569,0.006,0.107,75.96,90.6,40.577675,-3.539899,629.1,6,5,118.1,0.703
77.42,1,0.027,0.033,0.028,0.019,0.04,0.02,-1.569,0.003,0.106,75.96,90.6,40.577675,-3.539899,629.1,6,5,118.1,0.703
77.52,1,0.006,0.007,-0.027,0.004,0.026,0.0,-1.567,-0.001,0.105,75.96,90.6,40.577675,-3.539899,629.1,6,5,118.1,0.703
77.62,1,-0.009,-0.0,-0.004,0.009,0.011,-0.0,-1.568,-0.003,0.103,76.96,91.8,40.57756,-3.539609,629.8,4,5,116.4,2.461
77.73,1,-0.028,0.026,0.006,-0.013,0.014,-0.006,-1.568,-0.005,0.101,76.96,91.8,40.57756,-3.539609,629.8,4,5,116.4,2.461
77.84,1,-0.019,0.03,-0.011,-0.018,0.024,-0.002,-1.569,-0.011,0.1,76.96,91.8,40.57756,-3.539609,629.8,4,5,116.4,2.461
77.93,1,0.0,0.027,-0.011,-0.01,0.029,-0.013,-1.567,-0.011,0.099,76.96,91.8,40.57756,-3.539609,629.8,4,5,116.4,2.461
78.03,1,-0.05,0.018,-0.001,-0.034,0.024,-0.003,-1.567,-0.011,0.098,76.96,91.8,40.57756,-3.539609,629.8,4,5,116.4,2.461
78.13,1,-0.04,0.018,0.007,-0.036,0.021,-0.003,-1.569,-0.012,0.096,76.96,91.8,40.57756,-3.539609,629.8,4,5,116.4,2.461
78.23,1,0.019,-0.0,-0.003,-0.012,0.008,0.006,-1.571,-0.015,0.095,76.96,91.8,40.57756,-3.539609,629.8,4,5,116.4,2.461
78.33,1,0.022,-0.007,0.001,0.013,-0.001,0.006,-1.571,-0.017,0.093,76.96,91.8,40.57756,-3.539609,629.8,4,5,116.4,2.461
78.43,1,0.016,0.005,0.009,0.011,0.002,0.0,-1.571,-0.017,0.092,76.96,91.8,40.57756,-3.539609,629.8,4,5,116.4,2.461
78.54,1,-0.01,0.01,-0.018,0.009,0.008,-0.005,-1.571,-0.019,0.09,76.96,91.8,40.57756,-3.539609,629.8,4,5,116.4,2.461
78.64,1,-0.002,0.01,-0.012,-0.006,0.014,-0.01,-1.573,-0.022,0.089,77.97,91.7,40.577469,-3.539362,630.0,4,5,116.0,2.109
78.73,1,-0.01,0.011,-0.004,-0.004,0.003,-0.012,-1.571,-0.019,0.088,77.97,91.7,40.577469,-3.539362,630.0,4,5,116.0,2.109
78.83,1,-0.018,-0.014,-0.03,-0.014,-0.001,-0.018,-1.57,-0.019,0.087,77.97,91.7,40.577469,-3.539362,630.0,4,5,116.0,2.109
78.93,1,-0.026,-0.015,-0.008,-0.02,-0.011,-0.012,-1.57,-0.019,0.085,77.97,91.7,40.577469,-3.539362,630.0,4,5,116.0,2.109
79.03,1,-0.009,-0.025,-0.019,-0.012,-0.014,-0.014,-1.569,-0.02,0.085,77.97,91.7,40.577469,-3.539362,630.0,4,5,116.0,2.109
79.13,1,-0.022,-0.015,-0.027,-0.017,-0.016,-0.018,-1.569,-0.024,0.084,77.97,91.7,40.577469,-3.539362,630.0,4,5,116.0,2.109
79.23,1,-0.016,-0.025,-0.005,-0.014,-0.019,-0.02,-1.568,-0.022,0.084,77.97,91.7,40.577469,-3.539362,630.0,4,5,116.0,2.109
79.33,1,-0.022,-0.046,-0.009,-0.024,-0.033,-0.01,-1.568,-0.02,0.084,77.97,91.7,40.577469,-3.539362,630.0,4,5,116.0,2.109
79.43,1,0.031,-0.058,0.003,-0.001,-0.048,-0.005,-1.567,-0.016,0.084,77.97,91.7,40.577469,-3.539362,630.0,4,5,116.0,2.109
79.54,1,0.002,-0.039,-0.001,0.008,-0.047,-0.002,-1.567,-0.013,0.084,77.97,91.7,40.577469,-3.539362,630.0,4,5,116.0,2.109
79.63,1,0.031,-0.033,-0.012,0.013,-0.044,-0.006,-1.565,-0.012,0.085,79.01,92.3,40.57737,-3.5391,630.6,4,5,116.4,0.352
79.73,1,-0.006,-0.031,-0.028,0.011,-0.032,-0.018,-1.562,-0.003,0.086,79.01,92.3,40.57737,-3.5391,630.6,4,5,116.4,0.352
79.83,1,-0.019,-0.039,-0.028,-0.004,-0.034,-0.025,-1.561,-0.001,0.087,79.01,92.3,40.57737,-3.5391,630.6,4,5,116.4,0.352
79.93,1,-0.05,-0.036,-0.02,-0.024,-0.034,-0.019,-1.56,0.005,0.088,79.01,92.3,40.57737,-3.5391,630.6,4,5,116.4,0.352
80.03,1,-0.061,-0.051,-0.022,-0.047,-0.044,-0.024,-1.559,0.011,0.09,79.01,92.3,40.57737,-3.5391,630.6,4,5,116.4,0.352
80.13,1,-0.028,-0.017,-0.023,-0.043,-0.035,-0.024,-1.558,0.015,0.091,79.01,92.3,40.57737,-3.5391,630.6,4,5,116.4,0.352
80.23,1,0.064,-0.033,-0.02,0.001,-0.03,-0.017,-1.557,0.019,0.093,79.01,92.3,40.57737,-3.5391,630.6,4,5,116.4,0.352
80.34,1,0.011,-0.008,-0.056,0.027,-0.027,-0.033,-1.553,0.022,0.094,79.01,92.3,40.57737,-3.5391,630.6,4,5,116.4,0.352
80.43,1,-0.019,-0.028,-0.042,-0.0,-0.013,-0.048,-1.55,0.02,0.096,79.01,92.3,40.57737,-3.5391,630.6,4,5,116.4,0.352
80.53,1,-0.034,0.008,0.017,-0.02,-0.001,-0.021,-1.552,0.021,0.097,79.01,92.3,40.57737,-3.5391,630.6,4,5,116.4,0.352
80.63,1,0.01,-0.034,-0.017,-0.017,-0.021,-0.006,-1.55,0.022,0.099,79.96,92.2,40.577267,-3.538826,630.7,4,5,116.4,0.352
80.73,1,0.052,-0.048,-0.028,0.026,-0.034,-0.017,-1.548,0.024,0.1,79.96,92.2,40.577267,-3.538826,630.7,4,5,116.4,0.352
80.84,1,-0.029,-0.034,-0.034,0.011,-0.04,-0.03,-1.543,0.029,0.102,79.96,92.2,40.577267,-3.538826,630.7,4,5,116.4,0.352
80.94,1,-0.041,-0.055,0.014,-0.024,-0.044,-0.011,-1.541,0.029,0.103,79.96,92.2,40.577267,-3.538826,630.7,4,5,116.4,0.352
81.04,1,-0.017,-0.018,0.0,-0.017,-0.028,0.001,-1.541,0.033,0.104,79.96,92.2,40.577267,-3.538826,630.7,4,5,116.4,0.352
81.13,1,-0.014,-0.015,-0.046,-0.014,-0.024,-0.016,-1.541,0.035,0.104,79.96,92.2,40.577267,-3.538826,630.7,4,5,116.4,0.352
81.23,1,-0.005,0.028,0.007,-0.014,-0.009,-0.02,-1.542,0.032,0.104,79.96,92.2,40.577267,-3.538826,630.7,4,5,116.4,0.352
81.33,1,-0.008,0.055,-0.02,-0.013,0.027,-0.012,-1.543,0.029,0.103,79.96,92.2,40.577267,-3.538826,630.7,4,5,116.4,0.352
81.44,1,-0.024,0.094,-0.017,-0.017,0.065,-0.017,-1.54,0.022,0.101,79.96,92.2,40.577267,-3.538826,630.7,4,5,116.4,0.352
81.54,1,-0.028,0.093,-0.007,-0.019,0.079,-0.011,-1.54,0.01,0.098,79.96,92.2,40.577267,-3.538826,630.7,4,5,116.4,0.352
81.64,1,-0.023,0.11,-0.002,-0.023,0.096,-0.009,-1.541,0.003,0.095,80.96,92.7,40.577164,-3.538557,631.0,4,5,115.3,1.055
81.74,1,0.023,0.089,0.007,-0.009,0.091,0.003,-1.539,-0.008,0.092,80.96,92.7,40.577164,-3.538557,631.0,4,5,115.3,1.055
81.84,1,0.05,0.055,-0.017,0.023,0.081,-0.005,-1.536,-0.017,0.088,80.96,92.7,40.577164,-3.538557,631.0,4,5,115.3,1.055
81.94,1,0.019,0.06,-0.02,0.025,0.064,-0.017,-1.534,-0.021,0.085,80.96,92.7,40.577164,-3.538557,631.0,4,5,115.3,1.055
82.04,1,-0.05,0.032,-0.005,-0.004,0.054,-0.011,-1.535,-0.025,0.082,80.96,92.7,40.577164,-3.538557,631.0,4,5,115.3,1.055
82.14,1,-0.005,0.05,0.011,-0.016,0.042,-0.0,-1.537,-0.029,0.079,80.96,92.7,40.577164,-3.538557,631.0,4,5,115.3,1.055
82.24,1,0.006,0.043,-0.014,-0.005,0.042,0.004,-1.537,-0.033,0.076,80.96,92.7,40.577164,-3.538557,631.0,4,5,115.3,1.055
82.34,1,-0.008,-0.01,-0.002,0.001,0.025,-0.009,-1.537,-0.031,0.075,80.96,92.7,40.577164,-3.538557,631.0,4,5,115.3,1.055
82.44,1,-0.006,-0.034,0.018,-0.003,-0.005,0.002,-1.537,-0.029,0.075,80.96,92.7,40.577164,-3.538557,631.0,4,5,115.3,1.055
82.54,1,-0.036,-0.025,0.018,-0.015,-0.027,0.012,-1.54,-0.021,0.074,80.96,92.7,40.577164,-3.538557,631.0,4,5,115.3,1.055
82.65,1,-0.001,-0.026,0.022,-0.017,-0.021,0.018,-1.544,-0.016,0.073,81.96,91.4,40.577068,-3.538286,631.2,4,5,113.9,2.461
82.74,1,-0.012,-0.013,0.005,-0.019,-0.016,0.017,-1.546,-0.015,0.072,81.96,91.4,40.577068,-3.538286,631.2,4,5,113.9,2.461
82.84,1,0.0,-0.018,-0.014,-0.003,-0.022,-0.006,-1.544,-0.015,0.071,81.96,91.4,40.577068,-3.538286,631.2,4,5,113.9,2.461
82.94,1,0.023,-0.052,0.017,0.013,-0.032,0.006,-1.546,-0.015,0.07,81.96,91.4,40.577068,-3.538286,631.2,4,5,113.9,2.461
83.04,1,0.005,-0.007,0.015,0.01,-0.024,0.014,-1.547,-0.012,0.069,81.96,91.4,40.577068,-3.538286,631.2,4,5,113.9,2.461
83.14,1,-0.02,-0.025,0.003,-0.01,-0.019,0.007,-1.546,-0.008,0.068,81.96,91.4,40.577068,-3.538286,631.2,4,5,113.9,2.461
83.24,1,0.025,-0.013,0.0,0.007,-0.019,0.004,-1.546,-0.006,0.067,81.96,91.4,40.577068,-3.538286,631.2,4,5,113.9,2.461
83.34,1,-0.028,0.011,-0.007,-0.007,-0.008,-0.001,-1.546,-0.007,0.066,81.96,91.4,40.577068,-3.538286,631.2,4,5,113.9,2.461
83.44,1,0.016,0.003,-0.01,-0.001,0.0,-0.006,-1.545,-0.008,0.064,81.96,91.4,40.577068,-3.538286,631.2,4,5,113.9,2.461
83.54,1,0.034,0.004,-0.022,0.021,0.003,-0.014,-1.541,-0.01,0.063,81.96,91.4,40.577068,-3.538286,631.2,4,5,113.9,2.461
83.64,1,-0.06,0.026,-0.055,-0.006,0.018,-0.03,-1.539,-0.013,0.062,83.0,90.4,40.576973,-3.538007,631.3,4,5,114.6,0.703
83.74,1,-0.038,-0.045,0.003,-0.033,-0.006,-0.027,-1.539,-0.011,0.062,83.0,90.4,40.576973,-3.538007,631.3,4,5,114.6,0.703
83.85,1,-0.015,-0.039,-0.017,-0.029,-0.026,-0.012,-1.539,-0.01,0.062,83.0,90.4,40.576973,-3.538007,631.3,4,5,114.6,0.703
83.94,1,0.021,-0.033,-0.01,-0.008,-0.038,-0.014,-1.536,-0.004,0.062,83.0,90.4,40.576973,-3.538007,631.3,4,5,114.6,0.703
84.05,1,0.032,-0.058,-0.01,0.017,-0.044,-0.01,-1.535,0.002,0.062,83.0,90.4,40.576973,-3.538007,631.3,4,5,114.6,0.703
84.14,1,-0.032,-0.048,-0.024,0.007,-0.046,-0.013,-1.534,0.005,0.063,83.0,90.4,40.576973,-3.538007,631.3,4,5,114.6,0.703
84.24,1,-0.083,-0.031,-0.032,-0.045,-0.04,-0.03,-1.532,0.007,0.063,83.0,90.4,40.576973,-3.538007,631.3,4,5,114.6,0.703
84.34,1,-0.072,0.026,0.026,-0.07,-0.009,-0.002,-1.535,0.003,0.063,83.0,90.4,40.576973,-3.538007,631.3,4,5,114.6,0.703
84.44,1,0.007,0.048,-0.02,-0.032,0.013,-0.004,-1.537,-0.003,0.061,83.0,90.4,40.576973,-3.538007,631.3,4,5,114.6,0.703
84.54,1,0.056,0.036,-0.013,0.012,0.037,-0.013,-1.536,-0.003,0.06,83.0,90.4,40.576973,-3.538007,631.3,4,5,114.6,0.703
84.64,1,0.035,0.031,-0.032,0.032,0.035,-0.022,-1.533,-0.004,0.058,84.01,90.4,40.576878,-3.537737,631.4,4,5,114.6,0.703
84.74,1,-0.014,0.037,-0.015,0.015,0.03,-0.017,-1.532,-0.001,0.057,84.01,90.4,40.576878,-3.537737,631.4,4,5,114.6,0.703
84.84,1,-0.026,0.007,0.005,-0.01,0.024,-0.009,-1.529,-0.001,0.056,84.01,90.4,40.576878,-3.537737,631.4,4,5,114.6,0.703
84.94,1,-0.029,-0.008,-0.005,-0.024,0.008,-0.005,-1.529,-0.001,0.055,84.01,90.4,40.576878,-3.537737,631.4,4,5,114.6,0.703
85.05,1,-0.002,-0.012,-0.021,-0.018,0.003,-0.01,-1.528,-0.0,0.054,84.01,90.4,40.576878,-3.537737,631.4,4,5,114.6,0.703
85.15,1,-0.015,-0.023,-0.02,-0.004,-0.016,-0.018,-1.525,0.003,0.053,84.01,90.4,40.576878,-3.537737,631.4,4,5,114.6,0.703
85.25,1,-0.032,-0.04,-0.001,-0.028,-0.028,-0.011,-1.526,0.004,0.053,84.01,90.4,40.576878,-3.537737,631.4,4,5,114.6,0.703
85.35,1,-0.005,-0.009,0.019,-0.017,-0.024,0.006,-1.529,0.003,0.054,84.01,90.4,40.576878,-3.537737,631.4,4,5,114.6,0.703
85.45,1,0.024,-0.023,-0.011,0.004,-0.019,0.001,-1.529,0.004,0.054,84.01,90.4,40.576878,-3.537737,631.4,4,5,114.6,0.703
85.55,1,0.036,-0.01,0.004,0.02,-0.018,-0.002,-1.527,0.007,0.053,84.01,90.4,40.576878,-3.537737,631.4,4,5,114.6,0.703
85.65,1,0.015,0.003,0.004,0.021,-0.009,-0.001,-1.528,0.007,0.052,84.96,89.4,40.576786,-3.537472,631.8,4,5,114.3,0.352
85.75,1,-0.017,0.024,0.025,0.002,0.004,0.013,-1.531,0.006,0.051,84.96,89.4,40.576786,-3.537472,631.8,4,5,114.3,0.352
85.85,1,-0.032,0.026,-0.023,-0.01,0.017,0.004,-1.532,0.005,0.049,84.96,89.4,40.576786,-3.537472,631.8,4,5,114.3,0.352
85.95,1,-0.118,0.011,-0.019,-0.061,0.025,-0.019,-1.533,0.003,0.048,84.96,89.4,40.576786,-3.537472,631.8,4,5,114.3,0.352
86.05,1,-0.076,-0.005,0.049,-0.091,0.009,0.016,-1.537,0.001,0.046,84.96,89.4,40.576786,-3.537472,631.8,4,5,114.3,0.352
86.15,1,0.104,-0.004,0.04,0.0,0.003,0.032,-1.539,-0.001,0.045,84.96,89.4,40.576786,-3.537472,631.8,4,5,114.3,0.352
86.25,1,0.083,0.019,0.001,0.066,0.006,0.021,-1.535,-0.001,0.043,84.96,89.4,40.576786,-3.537472,631.8,4,5,114.3,0.352
86.35,1,-0.014,0.056,-0.001,0.035,0.026,0.005,-1.534,-0.004,0.041,84.96,89.4,40.576786,-3.537472,631.8,4,5,114.3,0.352
86.45,1,-0.028,0.042,0.012,-0.012,0.039,0.005,-1.536,-0.007,0.039,84.96,89.4,40.576786,-3.537472,631.8,4,5,114.3,0.352
86.56,1,-0.027,0.015,0.027,-0.009,0.032,0.017,-1.539,-0.009,0.037,84.96,89.4,40.576786,-3.537472,631.8,4,5,114.3,0.352
86.65,1,-0.072,-0.003,-0.006,-0.045,0.019,0.004,-1.539,-0.008,0.036,85.97,88.6,40.576691,-3.537205,632.0,4,5,113.6,1.055
86.75,1,0.03,-0.012,0.006,-0.025,-0.003,0.01,-1.543,-0.01,0.033,85.97,88.6,40.576691,-3.537205,632.0,4,5,113.6,1.055
86.85,1,-0.02,0.015,0.005,-0.007,0.0,0.001,-1.544,-0.012,0.031,85.97,88.6,40.576691,-3.537205,632.0,4,5,113.6,1.055
86.96,1,-0.027,0.016,0.015,-0.022,0.008,0.009,-1.545,-0.013,0.029,85.97,88.6,40.576691,-3.537205,632.0,4,5,113.6,1.055
87.05,1,0.0,0.012,0.005,-0.004,0.018,0.011,-1.547,-0.012,0.028,85.97,88.6,40.576691,-3.537205,632.0,4,5,113.6,1.055
87.15,1,-0.017,-0.015,-0.014,-0.014,0.001,0.002,-1.547,-0.009,0.027,85.97,88.6,40.576691,-3.537205,632.0,4,5,113.6,1.055
87.25,1,-0.006,-0.026,-0.008,-0.014,-0.017,-0.005,-1.547,-0.006,0.026,85.97,88.6,40.576691,-3.537205,632.0,4,5,113.6,1.055
87.35,1,-0.016,-0.033,0.031,-0.006,-0.024,0.004,-1.549,-0.003,0.025,85.97,88.6,40.576691,-3.537205,632.0,4,5,113.6,1.055
87.45,1,0.008,-0.028,0.01,-0.002,-0.026,0.015,-1.553,0.001,0.024,85.97,88.6,40.576691,-3.537205,632.0,4,5,113.6,1.055
87.55,1,0.078,-0.015,0.009,0.029,-0.018,0.011,-1.551,0.004,0.024,85.97,88.6,40.576691,-3.537205,632.0,4,5,113.6,1.055
87.65,1,0.035,-0.044,0.002,0.049,-0.035,0.007,-1.549,0.009,0.024,86.96,87.7,40.576599,-3.536928,632.1,4,5,114.3,0.703
87.75,1,-0.054,-0.051,-0.016,-0.001,-0.039,-0.002,-1.55,0.016,0.025,86.96,87.7,40.576599,-3.536928,632.1,4,5,114.3,0.703
87.86,1,-0.088,-0.042,0.004,-0.049,-0.044,-0.002,-1.554,0.022,0.025,86.96,87.7,40.576599,-3.536928,632.1,4,5,114.3,0.703
87.95,1,-0.045,-0.009,0.026,-0.056,-0.033,0.008,-1.556,0.024,0.025,86.96,87.7,40.576599,-3.536928,632.1,4,5,114.3,0.703
88.05,1,-0.029,-0.006,0.022,-0.044,-0.017,0.021,-1.557,0.021,0.025,86.96,87.7,40.576599,-3.536928,632.1,4,5,114.3,0.703
88.15,1,0.01,0.042,-0.022,-0.018,0.013,0.003,-1.558,0.016,0.024,86.96,87.7,40.576599,-3.536928,632.1,4,5,114.3,0.703
88.25,1,-0.006,-0.007,0.006,-0.001,0.007,-0.001,-1.558,0.015,0.024,86.96,87.7,40.576599,-3.536928,632.1,4,5,114.3,0.703
88.35,1,-0.006,0.007,0.007,-0.011,0.009,0.001,-1.56,0.012,0.023,86.96,87.7,40.576599,-3.536928,632.1,4,5,114.3,0.703
88.46,1,-0.005,0.024,-0.004,-0.007,0.012,0.0,-1.564,0.01,0.022,86.96,87.7,40.576599,-3.536928,632.1,4,5,114.3,0.703
88.55,1,0.009,0.003,-0.003,0.0,0.012,-0.002,-1.564,0.01,0.022,86.96,87.7,40.576599,-3.536928,632.1,4,5,114.3,0.703
88.65,1,-0.021,-0.031,0.006,-0.003,-0.006,0.001,-1.564,0.012,0.021,87.97,87.4,40.576515,-3.536673,632.4,4,5,114.6,1.055
88.75,1,-0.064,-0.04,0.033,-0.035,-0.032,0.016,-1.569,0.01,0.021,87.97,87.4,40.576515,-3.536673,632.4,4,5,114.6,1.055
88.86,1,-0.022,-0.011,0.039,-0.034,-0.019,0.022,-1.571,0.01,0.021,87.97,87.4,40.576515,-3.536673,632.4,4,5,114.6,1.055
88.96,1,0.015,0.026,0.013,-0.013,-0.004,0.035,-1.574,0.012,0.02,87.97,87.4,40.576515,-3.536673,632.4,4,5,114.6,1.055
89.06,1,0.015,0.029,0.026,0.001,0.016,0.021,-1.574,0.011,0.018,87.97,87.4,40.576515,-3.536673,632.4,4,5,114.6,1.055
89.16,1,-0.021,0.035,0.009,0.002,0.033,0.015,-1.576,0.007,0.017,87.97,87.4,40.576515,-3.536673,632.4,4,5,114.6,1.055
89.26,1,-0.015,0.043,0.014,-0.01,0.04,0.016,-1.577,0.008,0.015,87.97,87.4,40.576515,-3.536673,632.4,4,5,114.6,1.055
89.36,1,-0.044,0.034,-0.003,-0.026,0.034,0.007,-1.577,0.008,0.013,87.97,87.4,40.576515,-3.536673,632.4,4,5,114.6,1.055
89.46,1,-0.021,-0.005,0.015,-0.032,0.013,0.008,-1.579,0.006,0.011,87.97,87.4,40.576515,-3.536673,632.4,4,5,114.6,1.055
89.56,1,-0.005,0.038,0.009,-0.014,0.019,0.01,-1.58,0.003,0.009,87.97,87.4,40.576515,-3.536673,632.4,4,5,114.6,1.055
89.66,1,0.009,-0.003,-0.008,-0.005,0.018,0.002,-1.579,-0.0,0.007,88.97,87.6,40.576424,-3.53641,632.5,4,5,114.3,0.352
89.76,1,-0.018,0.034,-0.012,-0.008,0.019,-0.003,-1.579,-0.005,0.004,88.97,87.6,40.576424,-3.53641,632.5,4,5,114.3,0.352
89.86,1,-0.038,0.049,-0.022,-0.02,0.033,-0.015,-1.578,-0.009,0.001,88.97,87.6,40.576424,-3.53641,632.5,4,5,114.3,0.352
89.96,1,-0.061,0.017,-0.016,-0.039,0.028,-0.012,-1.578,-0.012,-0.002,88.97,87.6,40.576424,-3.53641,632.5,4,5,114.3,0.352
90.07,1,0.016,0.033,0.017,-0.027,0.03,-0.005,-1.578,-0.015,-0.005,88.97,87.6,40.576424,-3.53641,632.5,4,5,114.3,0.352
90.16,1,-0.015,0.037,0.003,-0.013,0.042,0.002,-1.578,-0.021,-0.009,88.97,87.6,40.576424,-3.53641,632.5,4,5,114.3,0.352
90.27,1,-0.011,0.063,-0.009,-0.003,0.04,0.005,-1.579,-0.022,-0.013,88.97,87.6,40.576424,-3.53641,632.5,4,5,114.3,0.352
90.36,1,-0.101,0.091,-0.041,-0.058,0.063,-0.03,-1.578,-0.022,-0.016,88.97,87.6,40.576424,-3.53641,632.5,4,5,114.3,0.352
90.46,1,-0.043,0.05,-0.008,-0.061,0.071,-0.01,-1.578,-0.021,-0.02,88.97,87.6,40.576424,-3.53641,632.5,4,5,114.3,0.352
90.56,1,0.033,0.056,-0.006,-0.016,0.061,-0.014,-1.576,-0.023,-0.025,88.97,87.6,40.576424,-3.53641,632.5,4,5,114.3,0.352
90.66,1,-0.01,0.076,-0.036,-0.0,0.063,-0.026,-1.572,-0.029,-0.03,89.97,89.2,40.576332,-3.536143,632.9,4,5,114.3,0.352
90.76,1,-0.018,0.056,-0.023,-0.012,0.062,-0.025,-1.57,-0.034,-0.034,89.97,89.2,40.576332,-3.536143,632.9,4,5,114.3,0.352
90.87,1,-0.029,0.058,0.008,-0.019,0.064,-0.009,-1.569,-0.032,-0.038,89.97,89.2,40.576332,-3.536143,632.9,4,5,114.3,0.352
90.96,1,-0.015,0.034,-0.025,-0.018,0.051,-0.012,-1.567,-0.032,-0.042,89.97,89.2,40.576332,-3.536143,632.9,4,5,114.3,0.352
91.06,1,0.012,-0.001,-0.013,-0.005,0.023,-0.016,-1.566,-0.033,-0.046,89.97,89.2,40.576332,-3.536143,632.9,4,5,114.3,0.352
91.16,1,0.019,0.031,-0.021,0.008,0.023,-0.016,-1.563,-0.037,-0.05,89.97,89.2,40.576332,-3.536143,632.9,4,5,114.3,0.352
91.27,1,-0.012,0.055,-0.005,0.006,0.035,-0.013,-1.561,-0.04,-0.054,89.97,89.2,40.576332,-3.536143,632.9,4,5,114.3,0.352
91.36,1,-0.031,0.048,-0.023,-0.016,0.05,-0.017,-1.56,-0.042,-0.059,89.97,89.2,40.576332,-3.536143,632.9,4,5,114.3,0.352
91.46,1,-0.021,0.063,-0.025,-0.022,0.053,-0.023,-1.561,-0.042,-0.063,89.97,89.2,40.576332,-3.536143,632.9,4,5,114.3,0.352
91.56,1,-0.048,0.054,-0.006,-0.041,0.057,-0.015,-1.561,-0.043,-0.067,89.97,89.2,40.576332,-3.536143,632.9,4,5,114.3,0.352
91.66,1,-0.005,0.035,0.012,-0.021,0.041,-0.0,-1.563,-0.045,-0.072,91.0,88.7,40.576241,-3.535884,633.5,4,5,114.6,0.352
91.76,1,-0.004,0.029,0.007,-0.007,0.037,0.003,-1.564,-0.047,-0.076,91.0,88.7,40.576241,-3.535884,633.5,4,5,114.6,0.352
91.86,1,-0.026,0.029,0.013,-0.015,0.032,0.009,-1.566,-0.049,-0.081,91.0,88.7,40.576241,-3.535884,633.5,4,5,114.6,0.352
91.96,1,-0.02,0.038,0.018,-0.016,0.031,0.014,-1.569,-0.052,-0.085,91.0,88.7,40.576241,-3.535884,633.5,4,5,114.6,0.352
92.16,1,-0.049,-0.008,0.014,-0.026,0.014,0.013,-1.572,-0.059,-0.093,91.0,88.7,40.576241,-3.535884,633.5,4,5,114.6,0.352
92.26,1,-0.008,-0.008,0.024,-0.026,-0.002,0.018,-1.575,-0.055,-0.096,91.0,88.7,40.576241,-3.535884,633.5,4,5,114.6,0.352
92.36,1,-0.004,-0.011,0.015,-0.015,-0.003,0.021,-1.578,-0.05,-0.098,91.0,88.7,40.576241,-3.535884,633.5,4,5,114.6,0.352
92.47,1,0.039,-0.053,0.032,0.005,-0.035,0.018,-1.578,-0.051,-0.101,91.0,88.7,40.576241,-3.535884,633.5,4,5,114.6,0.352
92.57,1,-0.035,-0.022,0.016,-0.0,-0.033,0.029,-1.578,-0.051,-0.104,91.0,88.7,40.576241,-3.535884,633.5,4,5,114.6,0.352
92.67,1,-0.046,-0.059,0.036,-0.018,-0.03,0.02,-1.579,-0.052,-0.106,91.0,88.7,40.576241,-3.535884,633.5,4,5,114.6,0.352
92.77,1,-0.006,-0.077,0.039,-0.032,-0.059,0.037,-1.579,-0.053,-0.107,92.0,87.9,40.576145,-3.535627,634.0,4,5,116.7,2.461
92.87,1,0.033,-0.071,0.019,0.006,-0.071,0.032,-1.578,-0.053,-0.109,92.0,87.9,40.576145,-3.535627,634.0,4,5,116.7,2.461
92.97,1,-0.007,-0.069,0.004,0.009,-0.069,0.013,-1.578,-0.046,-0.109,92.0,87.9,40.576145,-3.535627,634.0,4,5,116.7,2.461
93.07,1,-0.011,-0.052,0.01,0.001,-0.056,0.012,-1.58,-0.037,-0.11,92.0,87.9,40.576145,-3.535627,634.0,4,5,116.7,2.461
93.17,1,-0.006,-0.061,0.012,-0.006,-0.06,0.012,-1.579,-0.026,-0.11,92.0,87.9,40.576145,-3.535627,634.0,4,5,116.7,2.461
93.27,1,-0.024,-0.087,-0.012,-0.014,-0.068,-0.001,-1.58,-0.017,-0.109,92.0,87.9,40.576145,-3.535627,634.0,4,5,116.7,2.461
93.38,1,-0.023,-0.083,0.024,-0.024,-0.08,0.008,-1.582,-0.01,-0.108,92.0,87.9,40.576145,-3.535627,634.0,4,5,116.7,2.461
93.47,1,0.017,-0.08,0.0,-0.005,-0.082,0.007,-1.581,-0.003,-0.106,92.0,87.9,40.576145,-3.535627,634.0,4,5,116.7,2.461
93.57,1,0.018,-0.062,0.003,0.013,-0.071,0.006,-1.579,0.004,-0.104,92.0,87.9,40.576145,-3.535627,634.0,4,5,116.7,2.461
93.67,1,-0.058,-0.06,0.013,-0.012,-0.066,0.005,-1.581,0.01,-0.103,92.0,87.9,40.576145,-3.535627,634.0,4,5,116.7,2.461
93.78,1,-0.045,-0.093,0.017,-0.043,-0.073,0.018,-1.586,0.017,-0.1,92.97,87.7,40.576035,-3.535358,634.8,4,5,118.8,4.219
93.87,1,-0.004,-0.101,0.002,-0.027,-0.094,0.008,-1.588,0.026,-0.096,92.97,87.7,40.576035,-3.535358,634.8,4,5,118.8,4.219
93.98,1,-0.001,-0.113,0.014,-0.008,-0.105,0.013,-1.591,0.037,-0.091,92.97,87.7,40.576035,-3.535358,634.8,4,5,118.8,4.219
94.07,1,0.012,-0.05,-0.0,-0.004,-0.086,0.001,-1.589,0.04,-0.089,92.97,87.7,40.576035,-3.535358,634.8,4,5,118.8,4.219
94.17,1,0.0,0.037,-0.003,0.012,-0.026,0.004,-1.587,0.035,-0.092,92.97,87.7,40.576035,-3.535358,634.8,4,5,118.8,4.219
94.27,1,-0.015,0.118,0.003,-0.007,0.053,-0.003,-1.589,0.024,-0.096,92.97,87.7,40.576035,-3.535358,634.8,4,5,118.8,4.219
94.38,1,-0.019,0.087,0.009,-0.018,0.078,0.01,-1.588,0.022,-0.098,92.97,87.7,40.576035,-3.535358,634.8,4,5,118.8,4.219
94.48,1,0.032,0.014,-0.039,0.009,0.058,-0.014,-1.584,0.02,-0.098,92.97,87.7,40.576035,-3.535358,634.8,4,5,118.8,4.219
94.58,1,0.002,-0.007,-0.022,0.008,0.021,-0.023,-1.581,0.021,-0.097,92.97,87.7,40.576035,-3.535358,634.8,4,5,118.8,4.219
94.68,1,-0.006,-0.004,-0.028,0.001,0.003,-0.025,-1.578,0.021,-0.098,92.97,87.7,40.576035,-3.535358,634.8,4,5,118.8,4.219
94.77,1,-0.017,0.012,-0.023,-0.005,0.01,-0.028,-1.575,0.015,-0.1,94.01,89.3,40.575935,-3.535116,635.7,4,5,119.5,2.812
94.87,1,-0.038,0.073,-0.032,-0.027,0.027,-0.027,-1.573,0.011,-0.104,94.01,89.3,40.575935,-3.535116,635.7,4,5,119.5,2.812
94.97,1,0.002,0.135,-0.01,-0.019,0.086,-0.019,-1.574,0.009,-0.109,94.01,89.3,40.575935,-3.535116,635.7,4,5,119.5,2.812
95.07,1,0.016,0.117,-0.012,0.005,0.108,-0.016,-1.573,0.007,-0.114,94.01,89.3,40.575935,-3.535116,635.7,4,5,119.5,2.812
95.18,1,0.028,0.109,-0.034,0.015,0.11,-0.024,-1.571,0.003,-0.118,94.01,89.3,40.575935,-3.535116,635.7,4,5,119.5,2.812
95.27,1,-0.028,0.086,-0.008,0.003,0.1,-0.018,-1.57,-0.009,-0.123,94.01,89.3,40.575935,-3.535116,635.7,4,5,119.5,2.812
95.38,1,-0.019,0.08,-0.017,-0.016,0.09,-0.016,-1.57,-0.017,-0.127,94.01,89.3,40.575935,-3.535116,635.7,4,5,119.5,2.812
95.47,1,-0.017,0.056,0.011,-0.019,0.071,-0.007,-1.572,-0.02,-0.13,94.01,89.3,40.575935,-3.535116,635.7,4,5,119.5,2.812
95.58,1,-0.017,0.041,0.025,-0.013,0.058,0.009,-1.575,-0.019,-0.133,94.01,89.3,40.575935,-3.535116,635.7,4,5,119.5,2.812
95.68,1,0.005,-0.006,-0.006,-0.006,0.025,0.012,-1.577,-0.021,-0.135,94.01,89.3,40.575935,-3.535116,635.7,4,5,119.5,2.812
95.77,1,-0.084,0.018,-0.013,-0.034,0.016,-0.006,-1.577,-0.02,-0.138,94.96,90.0,40.575829,-3.534851,636.1,4,5,118.1,1.406
95.89,1,-0.058,0.03,0.033,-0.06,0.023,0.014,-1.581,-0.021,-0.141,94.96,90.0,40.575829,-3.534851,636.1,4,5,118.1,1.406
95.98,1,0.017,0.047,0.013,-0.025,0.032,0.017,-1.584,-0.026,-0.145,94.96,90.0,40.575829,-3.534851,636.1,4,5,118.1,1.406
96.07,1,-0.012,0.046,0.018,-0.01,0.04,0.008,-1.582,-0.029,-0.148,94.96,90.0,40.575829,-3.534851,636.1,4,5,118.1,1.406
96.18,1,0.016,0.029,0.03,-0.001,0.037,0.028,-1.585,-0.029,-0.15,94.96,90.0,40.575829,-3.534851,636.1,4,5,118.1,1.406
96.28,1,0.018,0.033,0.009,0.006,0.037,0.014,-1.585,-0.029,-0.152,94.96,90.0,40.575829,-3.534851,636.1,4,5,118.1,1.406
96.39,1,0.006,0.017,-0.001,0.012,0.029,0.011,-1.584,-0.028,-0.155,94.96,90.0,40.575829,-3.534851,636.1,4,5,118.1,1.406
96.48,1,-0.014,0.019,0.012,0.0,0.024,0.005,-1.585,-0.032,-0.157,94.96,90.0,40.575829,-3.534851,636.1,4,5,118.1,1.406
96.58,1,-0.002,0.029,0.005,-0.005,0.019,0.013,-1.588,-0.038,-0.161,94.96,90.0,40.575829,-3.534851,636.1,4,5,118.1,1.406
96.68,1,-0.043,0.038,-0.015,-0.014,0.029,-0.003,-1.588,-0.043,-0.164,94.96,90.0,40.575829,-3.534851,636.1,4,5,118.1,1.406
96.78,1,-0.066,0.017,-0.022,-0.049,0.031,-0.015,-1.588,-0.043,-0.166,95.97,89.7,40.575722,-3.534591,636.9,4,5,119.2,1.055
96.89,1,-0.029,-0.036,0.016,-0.045,-0.002,-0.005,-1.588,-0.041,-0.167,95.97,89.7,40.575722,-3.534591,636.9,4,5,119.2,1.055
96.98,1,0.021,-0.061,-0.013,-0.014,-0.039,-0.001,-1.587,-0.038,-0.167,95.97,89.7,40.575722,-3.534591,636.9,4,5,119.2,1.055
97.08,1,0.06,-0.032,-0.026,0.028,-0.033,-0.012,-1.584,-0.04,-0.168,95.97,89.7,40.575722,-3.534591,636.9,4,5,119.2,1.055
97.18,1,0.003,-0.011,-0.017,0.023,-0.022,-0.018,-1.582,-0.045,-0.17,95.97,89.7,40.575722,-3.534591,636.9,4,5,119.2,1.055
97.28,1,-0.062,0.007,-0.037,-0.012,-0.011,-0.025,-1.58,-0.045,-0.171,95.97,89.7,40.575722,-3.534591,636.9,4,5,119.2,1.055
97.38,1,-0.06,-0.006,-0.004,-0.051,-0.009,-0.024,-1.58,-0.042,-0.173,95.97,89.7,40.575722,-3.534591,636.9,4,5,119.2,1.055
97.49,1,0.003,-0.023,0.012,-0.034,-0.009,-0.0,-1.582,-0.041,-0.174,95.97,89.7,40.575722,-3.534591,636.9,4,5,119.2,1.055
97.58,1,0.081,-0.039,-0.02,0.029,-0.023,-0.004,-1.579,-0.035,-0.174,95.97,89.7,40.575722,-3.534591,636.9,4,5,119.2,1.055
97.69,1,0.037,-0.049,-0.031,0.047,-0.039,-0.023,-1.575,-0.032,-0.174,95.97,89.7,40.575722,-3.534591,636.9,4,5,119.2,1.055
97.78,1,-0.164,-0.064,-0.102,-0.035,-0.053,-0.054,-1.574,-0.032,-0.174,96.97,90.4,40.575611,-3.534345,637.5,4,5,120.9,2.812
97.88,1,-0.131,-0.042,0.085,-0.124,-0.051,-0.022,-1.582,-0.035,-0.175,96.97,90.4,40.575611,-3.534345,637.5,4,5,120.9,2.812
97.98,1,0.045,-0.003,0.032,-0.063,-0.03,0.033,-1.58,-0.037,-0.176,96.97,90.4,40.575611,-3.534345,637.5,4,5,120.9,2.812
98.08,1,0.197,-0.013,-0.029,0.095,-0.017,0.02,-1.571,-0.037,-0.176,96.97,90.4,40.575611,-3.534345,637.5,4,5,120.9,2.812
98.18,1,0.049,-0.042,-0.08,0.1,-0.026,-0.042,-1.562,-0.035,-0.176,96.97,90.4,40.575611,-3.534345,637.5,4,5,120.9,2.812
98.29,1,-0.074,-0.027,-0.008,0.011,-0.029,-0.039,-1.564,-0.037,-0.176,96.97,90.4,40.575611,-3.534345,637.5,4,5,120.9,2.812
98.38,1,-0.129,-0.024,0.05,-0.068,-0.028,0.01,-1.57,-0.036,-0.177,96.97,90.4,40.575611,-3.534345,637.5,4,5,120.9,2.812
98.48,1,-0.035,-0.003,0.005,-0.078,-0.018,0.017,-1.569,-0.034,-0.178,96.97,90.4,40.575611,-3.534345,637.5,4,5,120.9,2.812
98.58,1,0.051,-0.001,-0.014,-0.007,-0.006,0.005,-1.566,-0.033,-0.179,96.97,90.4,40.575611,-3.534345,637.5,4,5,120.9,2.812
98.68,1,0.051,0.045,-0.023,0.034,0.016,-0.018,-1.563,-0.034,-0.182,96.97,90.4,40.575611,-3.534345,637.5,4,5,120.9,2.812
98.79,1,-0.031,0.034,-0.006,0.007,0.028,-0.012,-1.562,-0.037,-0.184,97.97,90.6,40.575485,-3.53409,638.5,4,5,122.0,2.812
98.88,1,-0.021,0.026,0.001,-0.012,0.034,-0.007,-1.562,-0.041,-0.187,97.97,90.6,40.575485,-3.53409,638.5,4,5,122.0,2.812
98.99,1,-0.025,-0.002,-0.011,-0.021,0.019,-0.003,-1.56,-0.04,-0.188,97.97,90.6,40.575485,-3.53409,638.5,4,5,122.0,2.812
99.08,1,0.008,-0.039,-0.001,-0.008,-0.012,-0.002,-1.559,-0.034,-0.187,97.97,90.6,40.575485,-3.53409,638.5,4,5,122.0,2.812
99.18,1,0.011,-0.046,-0.016,0.0,-0.036,-0.007,-1.558,-0.029,-0.187,97.97,90.6,40.575485,-3.53409,638.5,4,5,122.0,2.812
99.28,1,-0.025,-0.034,-0.012,-0.009,-0.039,-0.015,-1.558,-0.025,-0.187,97.97,90.6,40.575485,-3.53409,638.5,4,5,122.0,2.812
99.39,1,-0.074,-0.056,-0.009,-0.031,-0.038,-0.014,-1.557,-0.025,-0.186,97.97,90.6,40.575485,-3.53409,638.5,4,5,122.0,2.812
99.48,1,-0.039,-0.061,-0.003,-0.054,-0.056,-0.005,-1.558,-0.022,-0.185,97.97,90.6,40.575485,-3.53409,638.5,4,5,122.0,2.812
99.59,1,0.066,-0.051,0.023,-0.004,-0.055,0.009,-1.558,-0.02,-0.184,97.97,90.6,40.575485,-3.53409,638.5,4,5,122.0,2.812
99.68,1,0.06,-0.022,-0.005,0.048,-0.039,0.004,-1.555,-0.016,-0.182,97.97,90.6,40.575485,-3.53409,638.5,4,5,122.0,2.812
99.78,1,-0.003,-0.049,-0.011,0.027,-0.04,-0.001,-1.554,-0.011,-0.18,98.97,90.1,40.575363,-3.533842,639.0,4,5,122.3,1.406
99.88,1,-0.029,-0.074,-0.001,-0.002,-0.054,-0.008,-1.553,-0.007,-0.179,98.97,90.1,40.575363,-3.533842,639.0,4,5,122.3,1.406
99.99,1,-0.054,-0.037,-0.005,-0.029,-0.053,-0.003,-1.555,-0.005,-0.177,98.97,90.1,40.575363,-3.533842,639.0,4,5,122.3,1.406
100.09,1,-0.025,-0.062,0.01,-0.041,-0.056,-0.003,-1.556,-0.0,-0.174,98.97,90.1,40.575363,-3.533842,639.0,4,5,122.3,1.406
100.2,1,0.015,-0.053,0.008,-0.015,-0.058,0.009,-1.556,0.005,-0.172,98.97,90.1,40.575363,-3.533842,639.0,4,5,122.3,1.406
100.29,1,0.028,-0.017,0.002,0.015,-0.038,0.005,-1.554,0.007,-0.17,98.97,90.1,40.575363,-3.533842,639.0,4,5,122.3,1.406
100.39,1,-0.012,0.02,-0.015,0.009,-0.008,-0.0,-1.554,0.008,-0.17,98.97,90.1,40.575363,-3.533842,639.0,4,5,122.3,1.406
100.49,1,-0.013,0.029,0.028,-0.004,0.023,0.004,-1.555,0.006,-0.17,98.97,90.1,40.575363,-3.533842,639.0,4,5,122.3,1.406
100.6,1,-0.065,0.079,-0.006,-0.033,0.04,0.005,-1.555,0.003,-0.17,98.97,90.1,40.575363,-3.533842,639.0,4,5,122.3,1.406
100.7,1,-0.06,0.033,0.025,-0.055,0.044,0.008,-1.557,0.002,-0.17,98.97,90.1,40.575363,-3.533842,639.0,4,5,122.3,1.406
100.8,1,0.012,0.057,0.03,-0.028,0.046,0.025,-1.557,-0.002,-0.171,99.97,90.0,40.575241,-3.533587,639.8,4,5,123.0,1.055
100.9,1,0.011,0.031,-0.001,-0.002,0.045,0.014,-1.559,-0.007,-0.172,99.97,90.0,40.575241,-3.533587,639.8,4,5,123.0,1.055
100.99,1,0.002,0.018,0.028,0.001,0.026,0.014,-1.56,-0.01,-0.172,99.97,90.0,40.575241,-3.533587,639.8,4,5,123.0,1.055
101.09,1,-0.016,0.017,0.034,-0.004,0.025,0.031,-1.565,-0.017,-0.174,99.97,90.0,40.575241,-3.533587,639.8,4,5,123.0,1.055
101.19,1,0.013,0.054,0.01,0.003,0.032,0.021,-1.566,-0.026,-0.176,99.97,90.0,40.575241,-3.533587,639.8,4,5,123.0,1.055
101.29,1,-0.024,0.073,-0.002,-0.004,0.051,0.009,-1.566,-0.032,-0.178,99.97,90.0,40.575241,-3.533587,639.8,4,5,123.0,1.055
101.39,1,0.017,0.038,0.033,-0.011,0.052,0.015,-1.568,-0.036,-0.18,99.97,90.0,40.575241,-3.533587,639.8,4,5,123.0,1.055
101.49,1,-0.005,0.018,0.024,0.009,0.034,0.025,-1.569,-0.037,-0.182,99.97,90.0,40.575241,-3.533587,639.8,4,5,123.0,1.055
101.59,1,-0.05,0.034,-0.001,-0.023,0.033,0.012,-1.568,-0.04,-0.184,99.97,90.0,40.575241,-3.533587,639.8,4,5,123.0,1.055
101.69,1,-0.041,0.046,0.023,-0.039,0.044,0.013,-1.57,-0.04,-0.186,99.97,90.0,40.575241,-3.533587,639.8,4,5,123.0,1.055
101.79,1,-0.009,0.02,0.027,-0.026,0.033,0.023,-1.571,-0.039,-0.188,100.96,89.2,40.575119,-3.533336,640.5,4,5,122.7,0.352
101.89,1,0.027,0.021,0.021,-0.002,0.021,0.024,-1.572,-0.041,-0.189,100.96,89.2,40.575119,-3.533336,640.5,4,5,122.7,0.352
102.1,1,-0.014,-0.0,0.027,0.013,0.02,0.016,-1.571,-0.042,-0.19,100.96,89.2,40.575119,-3.533336,640.5,4,5,122.7,0.352
102.19,1,-0.008,-0.035,0.027,-0.002,-0.008,0.026,-1.573,-0.036,-0.19,100.96,89.2,40.575119,-3.533336,640.5,4,5,122.7,0.352
102.29,1,-0.031,-0.018,-0.008,-0.022,-0.021,0.011,-1.575,-0.033,-0.19,100.96,89.2,40.575119,-3.533336,640.5,4,5,122.7,0.352
102.39,1,-0.065,-0.022,0.001,-0.04,-0.018,0.005,-1.576,-0.03,-0.189,100.96,89.2,40.575119,-3.533336,640.5,4,5,122.7,0.352
102.49,1,0.011,-0.029,0.022,-0.018,-0.021,0.01,-1.574,-0.028,-0.188,100.96,89.2,40.575119,-3.533336,640.5,4,5,122.7,0.352
102.59,1,0.019,-0.022,0.02,-0.001,-0.028,0.013,-1.576,-0.026,-0.189,100.96,89.2,40.575119,-3.533336,640.5,4,5,122.7,0.352
102.69,1,0.002,0.017,0.016,0.003,-0.005,0.014,-1.579,-0.025,-0.189,100.96,89.2,40.575119,-3.533336,640.5,4,5,122.7,0.352
102.8,1,-0.019,0.018,-0.017,-0.007,0.009,0.004,-1.58,-0.028,-0.19,100.96,89.2,40.575119,-3.533336,640.5,4,5,122.7,0.352
102.89,1,-0.013,-0.019,0.005,-0.002,0.001,-0.001,-1.58,-0.03,-0.191,101.96,89.3,40.574997,-3.533091,640.9,4,5,122.7,0.352
102.99,1,0.001,-0.019,-0.0,-0.01,-0.013,0.002,-1.579,-0.03,-0.192,101.96,89.3,40.574997,-3.533091,640.9,4,5,122.7,0.352
103.11,1,-0.008,-0.025,-0.02,-0.007,-0.019,-0.007,-1.579,-0.029,-0.192,101.96,89.3,40.574997,-3.533091,640.9,4,5,122.7,0.352
103.19,1,-0.024,-0.056,-0.022,-0.012,-0.03,-0.019,-1.578,-0.027,-0.191,101.96,89.3,40.574997,-3.533091,640.9,4,5,122.7,0.352
103.3,1,-0.003,-0.048,-0.016,-0.013,-0.045,-0.016,-1.573,-0.018,-0.189,101.96,89.3,40.574997,-3.533091,640.9,4,5,122.7,0.352
103.39,1,-0.001,-0.044,-0.027,-0.001,-0.048,-0.016,-1.571,-0.012,-0.187,101.96,89.3,40.574997,-3.533091,640.9,4,5,122.7,0.352
103.49,1,-0.085,-0.015,-0.022,-0.039,-0.035,-0.025,-1.57,-0.011,-0.186,101.96,89.3,40.574997,-3.533091,640.9,4,5,122.7,0.352
103.59,1,-0.025,-0.005,0.015,-0.049,-0.016,-0.007,-1.571,-0.011,-0.185,101.96,89.3,40.574997,-3.533091,640.9,4,5,122.7,0.352
103.7,1,0.045,0.02,-0.007,-0.003,0.001,-0.001,-1.569,-0.014,-0.186,101.96,89.3,40.574997,-3.533091,640.9,4,5,122.7,0.352
103.8,1,0.042,0.027,-0.038,0.027,0.016,-0.02,-1.565,-0.014,-0.186,101.96,89.3,40.574997,-3.533091,640.9,4,5,122.7,0.352
103.9,1,-0.024,0.017,-0.016,0.016,0.019,-0.024,-1.563,-0.018,-0.186,102.97,89.8,40.574875,-3.532846,641.5,4,5,123.8,1.055
104.01,1,-0.055,0.012,0.001,-0.025,0.014,-0.014,-1.564,-0.02,-0.185,102.97,89.8,40.574875,-3.532846,641.5,4,5,123.8,1.055
104.1,1,-0.014,-0.009,0.011,-0.033,0.008,0.006,-1.564,-0.022,-0.185,102.97,89.8,40.574875,-3.532846,641.5,4,5,123.8,1.055
104.2,1,-0.007,-0.005,-0.004,-0.012,-0.006,0.002,-1.563,-0.023,-0.184,102.97,89.8,40.574875,-3.532846,641.5,4,5,123.8,1.055
104.31,1,0.02,-0.007,-0.003,-0.005,-0.005,-0.003,-1.562,-0.022,-0.183,102.97,89.8,40.574875,-3.532846,641.5,4,5,123.8,1.055
104.4,1,0.024,-0.023,0.0,0.021,-0.007,0.002,-1.561,-0.02,-0.181,102.97,89.8,40.574875,-3.532846,641.5,4,5,123.8,1.055
104.5,1,-0.031,-0.037,0.003,0.001,-0.027,-0.003,-1.563,-0.015,-0.179,102.97,89.8,40.574875,-3.532846,641.5,4,5,123.8,1.055
104.6,1,-0.041,-0.027,-0.009,-0.026,-0.027,-0.0,-1.564,-0.013,-0.177,102.97,89.8,40.574875,-3.532846,641.5,4,5,123.8,1.055
104.7,1,-0.046,-0.064,0.013,-0.037,-0.043,-0.002,-1.566,-0.008,-0.175,102.97,89.8,40.574875,-3.532846,641.5,4,5,123.8,1.055
104.8,1,0.025,-0.035,0.025,-0.017,-0.046,0.016,-1.567,-0.006,-0.174,102.97,89.8,40.574875,-3.532846,641.5,4,5,123.8,1.055
104.9,1,0.004,-0.009,-0.017,0.001,-0.029,0.002,-1.567,-0.004,-0.172,103.99,90.1,40.574753,-3.532596,642.6,4,5,124.1,1.406
105.01,1,0.007,-0.031,-0.01,0.004,-0.026,-0.009,-1.566,-0.003,-0.17,103.99,90.1,40.574753,-3.532596,642.6,4,5,124.1,1.406
105.1,1,-0.052,-0.013,0.024,-0.011,-0.024,0.006,-1.568,-0.0,-0.168,103.99,90.1,40.574753,-3.532596,642.6,4,5,124.1,1.406
105.2,1,-0.017,-0.005,0.014,-0.033,-0.013,0.016,-1.569,-0.0,-0.166,103.99,90.1,40.574753,-3.532596,642.6,4,5,124.1,1.406
105.3,1,-0.021,-0.008,-0.026,-0.019,-0.005,-0.002,-1.568,0.0,-0.165,103.99,90.1,40.574753,-3.532596,642.6,4,5,124.1,1.406
105.4,1,0.011,-0.027,-0.001,-0.006,-0.021,-0.011,-1.567,0.004,-0.162,103.99,90.1,40.574753,-3.532596,642.6,4,5,124.1,1.406
105.5,1,0.032,-0.046,0.01,0.01,-0.029,0.002,-1.568,0.007,-0.159,103.99,90.1,40.574753,-3.532596,642.6,4,5,124.1,1.406
105.6,1,-0.013,-0.053,-0.014,0.007,-0.038,-0.001,-1.567,0.013,-0.156,103.99,90.1,40.574753,-3.532596,642.6,4,5,124.1,1.406
105.7,1,-0.015,-0.054,0.001,-0.009,-0.048,-0.009,-1.565,0.019,-0.153,103.99,90.1,40.574753,-3.532596,642.6,4,5,124.1,1.406
105.8,1,-0.011,-0.021,-0.015,-0.008,-0.046,-0.006,-1.565,0.021,-0.15,103.99,90.1,40.574753,-3.532596,642.6,4,5,124.1,1.406
105.9,1,-0.011,-0.009,0.02,-0.009,-0.025,0.006,-1.565,0.021,-0.148,105.01,89.6,40.574627,-3.532345,643.4,4,5,123.8,0.352
106.0,1,-0.036,-0.001,0.011,-0.015,-0.011,0.005,-1.564,0.019,-0.146,105.01,89.6,40.574627,-3.532345,643.4,4,5,123.8,0.352
106.1,1,-0.003,-0.022,0.003,-0.027,-0.016,0.007,-1.565,0.021,-0.144,105.01,89.6,40.574627,-3.532345,643.4,4,5,123.8,0.352
106.21,1,-0.014,-0.03,-0.005,-0.007,-0.022,0.002,-1.566,0.024,-0.139,105.01,89.6,40.574627,-3.532345,643.4,4,5,123.8,0.352
106.3,1,-0.003,-0.066,0.007,-0.016,-0.029,-0.0,-1.567,0.028,-0.134,105.01,89.6,40.574627,-3.532345,643.4,4,5,123.8,0.352
106.41,1,0.017,-0.05,0.038,0.005,-0.053,0.018,-1.569,0.028,-0.129,105.01,89.6,40.574627,-3.532345,643.4,4,5,123.8,0.352
106.5,1,0.042,-0.001,0.008,0.02,-0.031,0.026,-1.573,0.026,-0.127,105.01,89.6,40.574627,-3.532345,643.4,4,5,123.8,0.352
106.6,1,-0.012,0.017,-0.0,0.018,-0.004,0.004,-1.572,0.023,-0.125,105.01,89.6,40.574627,-3.532345,643.4,4,5,123.8,0.352
106.7,1,-0.042,0.017,0.014,-0.012,0.009,0.01,-1.575,0.019,-0.123,105.01,89.6,40.574627,-3.532345,643.4,4,5,123.8,0.352
106.8,1,-0.071,0.012,0.007,-0.046,0.011,0.01,-1.577,0.02,-0.121,105.01,89.6,40.574627,-3.532345,643.4,4,5,123.8,0.352
106.92,1,-0.001,0.02,0.001,-0.03,0.015,0.007,-1.577,0.018,-0.12,105.99,89.5,40.574505,-3.532099,643.8,4,5,123.0,1.055
107.0,1,-0.015,0.017,-0.011,-0.021,0.015,-0.007,-1.577,0.017,-0.119,105.99,89.5,40.574505,-3.532099,643.8,4,5,123.0,1.055
107.1,1,0.012,0.036,0.014,-0.004,0.025,0.001,-1.578,0.012,-0.119,105.99,89.5,40.574505,-3.532099,643.8,4,5,123.0,1.055
107.2,1,0.028,0.019,0.016,0.01,0.024,0.013,-1.579,0.011,-0.118,105.99,89.5,40.574505,-3.532099,643.8,4,5,123.0,1.055
107.31,1,-0.011,-0.003,-0.01,0.009,0.015,0.006,-1.578,0.009,-0.117,105.99,89.5,40.574505,-3.532099,643.8,4,5,123.0,1.055
107.41,1,0.003,-0.028,0.011,-0.006,-0.007,-0.001,-1.577,0.009,-0.114,105.99,89.5,40.574505,-3.532099,643.8,4,5,123.0,1.055
107.5,1,-0.024,-0.028,-0.008,0.0,-0.019,0.004,-1.578,0.013,-0.112,105.99,89.5,40.574505,-3.532099,643.8,4,5,123.0,1.055
107.62,1,0.004,-0.023,-0.006,-0.013,-0.023,-0.007,-1.577,0.016,-0.108,105.99,89.5,40.574505,-3.532099,643.8,4,5,123.0,1.055
107.7,1,-0.002,-0.047,-0.014,-0.0,-0.035,-0.004,-1.576,0.02,-0.105,105.99,89.5,40.574505,-3.532099,643.8,4,5,123.0,1.055
107.81,1,-0.022,-0.044,-0.014,-0.012,-0.042,-0.015,-1.574,0.025,-0.102,105.99,89.5,40.574505,-3.532099,643.8,4,5,123.0,1.055
107.91,1,0.004,0.007,-0.02,-0.008,-0.023,-0.019,-1.572,0.027,-0.099,106.98,89.5,40.57439,-3.531862,644.7,4,5,122.0,1.758
108.01,1,-0.03,-0.002,0.01,-0.015,-0.01,-0.002,-1.572,0.024,-0.097,106.98,89.5,40.57439,-3.531862,644.7,4,5,122.0,1.758
108.12,1,0.017,0.005,-0.024,-0.0,0.0,-0.01,-1.569,0.021,-0.095,106.98,89.5,40.57439,-3.531862,644.7,4,5,122.0,1.758
108.21,1,-0.016,-0.004,-0.017,-0.009,-0.002,-0.021,-1.567,0.018,-0.094,106.98,89.5,40.57439,-3.531862,644.7,4,5,122.0,1.758
108.32,1,-0.022,-0.001,0.005,-0.009,0.003,-0.001,-1.569,0.014,-0.093,106.98,89.5,40.57439,-3.531862,644.7,4,5,122.0,1.758
108.41,1,-0.066,0.02,-0.004,-0.033,0.012,-0.006,-1.569,0.013,-0.092,106.98,89.5,40.57439,-3.531862,644.7,4,5,122.0,1.758
108.51,1,0.004,0.061,0.017,-0.029,0.029,0.006,-1.569,0.01,-0.093,106.98,89.5,40.57439,-3.531862,644.7,4,5,122.0,1.758
108.61,1,-0.028,0.056,-0.004,-0.021,0.047,0.006,-1.57,0.006,-0.093,106.98,89.5,40.57439,-3.531862,644.7,4,5,122.0,1.758
108.71,1,-0.034,0.047,-0.013,-0.03,0.049,-0.008,-1.569,0.003,-0.094,106.98,89.5,40.57439,-3.531862,644.7,4,5,122.0,1.758
108.81,1,-0.001,0.045,0.014,-0.023,0.049,-0.001,-1.569,-0.002,-0.094,106.98,89.5,40.57439,-3.531862,644.7,4,5,122.0,1.758
108.91,1,0.011,0.046,0.01,-0.002,0.043,0.011,-1.571,-0.007,-0.095,107.96,89.3,40.574272,-3.5316,645.0,4,5,120.6,2.461
109.01,1,0.004,0.052,-0.021,0.006,0.046,-0.004,-1.569,-0.009,-0.096,107.96,89.3,40.574272,-3.5316,645.0,4,5,120.6,2.461
109.11,1,-0.004,0.039,-0.004,0.003,0.046,-0.009,-1.568,-0.015,-0.097,107.96,89.3,40.574272,-3.5316,645.0,4,5,120.6,2.461
109.21,1,-0.021,0.048,-0.011,-0.011,0.043,-0.007,-1.567,-0.017,-0.098,107.96,89.3,40.574272,-3.5316,645.0,4,5,120.6,2.461
109.32,1,-0.05,0.03,-0.015,-0.027,0.041,-0.012,-1.567,-0.02,-0.099,107.96,89.3,40.574272,-3.5316,645.0,4,5,120.6,2.461
109.41,1,-0.002,0.025,-0.013,-0.032,0.033,-0.013,-1.569,-0.022,-0.1,107.96,89.3,40.574272,-3.5316,645.0,4,5,120.6,2.461
109.52,1,-0.02,0.027,0.005,-0.013,0.029,-0.005,-1.57,-0.024,-0.101,107.96,89.3,40.574272,-3.5316,645.0,4,5,120.6,2.461
109.61,1,0.005,0.027,-0.01,-0.013,0.026,-0.007,-1.57,-0.026,-0.101,107.96,89.3,40.574272,-3.5316,645.0,4,5,120.6,2.461
109.71,1,0.015,-0.005,-0.011,0.005,0.017,-0.007,-1.569,-0.024,-0.101,107.96,89.3,40.574272,-3.5316,645.0,4,5,120.6,2.461
109.81,1,-0.002,-0.001,-0.014,0.007,0.006,-0.012,-1.568,-0.021,-0.101,107.96,89.3,40.574272,-3.5316,645.0,4,5,120.6,2.461
109.91,1,-0.001,-0.012,-0.015,0.005,-0.009,-0.012,-1.566,-0.021,-0.101,108.96,89.6,40.574158,-3.531346,645.8,3,5,119.5,2.461
110.02,1,-0.049,-0.033,-0.0,-0.024,-0.016,-0.011,-1.565,-0.022,-0.1,108.96,89.6,40.574158,-3.531346,645.8,3,5,119.5,2.461
110.11,1,-0.019,-0.017,0.001,-0.03,-0.021,-0.003,-1.563,-0.021,-0.1,108.96,89.6,40.574158,-3.531346,645.8,3,5,119.5,2.461
110.21,1,0.028,-0.007,0.0,0.001,-0.011,0.002,-1.561,-0.02,-0.099,108.96,89.6,40.574158,-3.531346,645.8,3,5,119.5,2.461
110.31,1,-0.028,-0.035,-0.036,-0.0,-0.02,-0.014,-1.559,-0.017,-0.097,108.96,89.6,40.574158,-3.531346,645.8,3,5,119.5,2.461
110.41,1,-0.05,-0.096,0.011,-0.039,-0.058,-0.013,-1.56,-0.012,-0.094,108.96,89.6,40.574158,-3.531346,645.8,3,5,119.5,2.461
110.51,1,0.013,-0.073,0.002,-0.014,-0.071,0.005,-1.563,-0.005,-0.09,108.96,89.6,40.574158,-3.531346,645.8,3,5,119.5,2.461
110.61,1,-0.038,-0.072,-0.018,-0.015,-0.071,-0.007,-1.562,0.003,-0.087,108.96,89.6,40.574158,-3.531346,645.8,3,5,119.5,2.461
110.72,1,-0.022,-0.034,-0.001,-0.028,-0.06,-0.008,-1.563,0.007,-0.084,108.96,89.6,40.574158,-3.531346,645.8,3,5,119.5,2.461
110.82,1,-0.009,0.012,0.004,-0.013,-0.022,-0.002,-1.565,0.008,-0.083,108.96,89.6,40.574158,-3.531346,645.8,3,5,119.5,2.461
110.91,1,0.001,0.042,-0.026,-0.012,0.011,-0.009,-1.564,0.005,-0.083,109.98,90.1,40.574051,-3.531107,646.6,4,5,119.9,0.703
111.02,1,-0.024,0.047,-0.022,-0.011,0.034,-0.023,-1.562,0.002,-0.083,109.98,90.1,40.574051,-3.531107,646.6,4,5,119.9,0.703
111.12,1,-0.042,0.047,-0.019,-0.032,0.044,-0.018,-1.562,-0.001,-0.083,109.98,90.1,40.574051,-3.531107,646.6,4,5,119.9,0.703
111.22,1,0.012,0.006,0.004,-0.008,0.03,-0.01,-1.562,-0.001,-0.082,109.98,90.1,40.574051,-3.531107,646.6,4,5,119.9,0.703
111.32,1,-0.007,-0.009,-0.004,-0.008,0.006,-0.004,-1.563,-0.0,-0.081,109.98,90.1,40.574051,-3.531107,646.6,4,5,119.9,0.703
111.43,1,-0.014,-0.013,0.001,-0.002,-0.003,-0.002,-1.564,0.0,-0.08,109.98,90.1,40.574051,-3.531107,646.6,4,5,119.9,0.703
111.53,1,-0.044,-0.012,0.001,-0.027,-0.011,-0.002,-1.565,-0.001,-0.079,109.98,90.1,40.574051,-3.531107,646.6,4,5,119.9,0.703
111.62,1,-0.01,-0.014,-0.003,-0.028,-0.011,-0.004,-1.566,-0.0,-0.078,109.98,90.1,40.574051,-3.531107,646.6,4,5,119.9,0.703
111.72,1,-0.006,-0.035,-0.003,-0.016,-0.025,0.0,-1.567,0.002,-0.075,109.98,90.1,40.574051,-3.531107,646.6,4,5,119.9,0.703
111.82,1,-0.01,-0.041,0.002,-0.007,-0.032,0.002,-1.567,0.006,-0.073,109.98,90.1,40.574051,-3.531107,646.6,4,5,119.9,0.703
111.92,1,-0.0,-0.031,-0.009,-0.01,-0.033,-0.002,-1.567,0.009,-0.071,111.0,89.1,40.573936,-3.530859,647.4,4,5,119.9,0.352
112.12,1,-0.003,-0.014,-0.011,-0.005,-0.029,-0.008,-1.564,0.012,-0.067,111.0,89.1,40.573936,-3.530859,647.4,4,5,119.9,0.352
112.22,1,-0.011,-0.013,0.004,-0.001,-0.018,-0.001,-1.564,0.011,-0.066,111.0,89.1,40.573936,-3.530859,647.4,4,5,119.9,0.352
112.32,1,-0.031,-0.016,-0.014,-0.017,-0.02,-0.004,-1.564,0.012,-0.064,111.0,89.1,40.573936,-3.530859,647.4,4,5,119.9,0.352
112.43,1,0.011,0.003,0.004,-0.009,-0.004,-0.005,-1.564,0.017,-0.062,111.0,89.1,40.573936,-3.530859,647.4,4,5,119.9,0.352
112.52,1,-0.006,0.021,-0.022,-0.004,0.006,-0.008,-1.563,0.019,-0.061,111.0,89.1,40.573936,-3.530859,647.4,4,5,119.9,0.352
112.63,1,-0.032,-0.001,0.005,-0.016,0.005,-0.008,-1.566,0.017,-0.06,111.0,89.1,40.573936,-3.530859,647.4,4,5,119.9,0.352
112.73,1,-0.009,0.003,0.009,-0.021,0.009,-0.0,-1.568,0.016,-0.059,111.0,89.1,40.573936,-3.530859,647.4,4,5,119.9,0.352
112.82,1,0.015,0.006,0.01,-0.002,0.005,0.009,-1.569,0.015,-0.058,111.0,89.1,40.573936,-3.530859,647.4,4,5,119.9,0.352
112.92,1,0.011,0.008,-0.01,0.01,0.001,-0.0,-1.567,0.015,-0.057,111.0,89.1,40.573936,-3.530859,647.4,4,5,119.9,0.352
113.02,1,-0.002,0.015,0.01,0.006,0.006,0.004,-1.566,0.013,-0.056,111.98,88.7,40.573833,-3.530609,647.7,3,5,118.8,1.055
113.13,1,-0.015,0.02,-0.007,-0.008,0.016,-0.004,-1.565,0.009,-0.055,111.98,88.7,40.573833,-3.530609,647.7,3,5,118.8,1.055
113.22,1,-0.014,0.003,0.011,-0.011,0.015,0.004,-1.566,0.009,-0.055,111.98,88.7,40.573833,-3.530609,647.7,3,5,118.8,1.055
113.32,1,-0.037,0.011,0.001,-0.018,0.009,0.003,-1.566,0.009,-0.055,111.98,88.7,40.573833,-3.530609,647.7,3,5,118.8,1.055
113.42,1,-0.018,0.014,-0.01,-0.026,0.015,-0.0,-1.566,0.008,-0.055,111.98,88.7,40.573833,-3.530609,647.7,3,5,118.8,1.055
113.52,1,-0.022,0.014,0.021,-0.025,0.008,0.003,-1.567,0.007,-0.055,111.98,88.7,40.573833,-3.530609,647.7,3,5,118.8,1.055
113.62,1,0.003,0.026,0.005,-0.008,0.022,0.009,-1.569,0.005,-0.054,111.98,88.7,40.573833,-3.530609,647.7,3,5,118.8,1.055
113.72,1,-0.0,0.033,0.01,-0.005,0.028,0.011,-1.571,0.002,-0.054,111.98,88.7,40.573833,-3.530609,647.7,3,5,118.8,1.055
113.83,1,-0.007,0.01,-0.019,-0.002,0.023,-0.004,-1.57,0.003,-0.054,111.98,88.7,40.573833,-3.530609,647.7,3,5,118.8,1.055
113.93,1,-0.021,-0.026,-0.003,-0.012,-0.001,-0.007,-1.569,0.006,-0.052,111.98,88.7,40.573833,-3.530609,647.7,3,5,118.8,1.055
114.02,1,-0.006,-0.008,0.012,-0.015,-0.012,0.004,-1.571,0.01,-0.051,112.98,88.1,40.573727,-3.530349,648.2,3,5,117.8,2.109
114.12,1,-0.009,-0.024,0.006,-0.01,-0.011,0.007,-1.57,0.01,-0.049,112.98,88.1,40.573727,-3.530349,648.2,3,5,117.8,2.109
114.22,1,-0.072,-0.005,-0.022,-0.033,-0.023,-0.004,-1.57,0.01,-0.048,112.98,88.1,40.573727,-3.530349,648.2,3,5,117.8,2.109
114.33,1,0.009,-0.023,0.03,-0.024,-0.012,-0.0,-1.57,0.011,-0.046,112.98,88.1,40.573727,-3.530349,648.2,3,5,117.8,2.109
114.42,1,-0.016,-0.068,-0.011,-0.01,-0.033,0.009,-1.57,0.015,-0.043,112.98,88.1,40.573727,-3.530349,648.2,3,5,117.8,2.109
114.53,1,0.038,-0.034,0.003,0.003,-0.042,-0.002,-1.568,0.021,-0.042,112.98,88.1,40.573727,-3.530349,648.2,3,5,117.8,2.109
114.63,1,-0.048,-0.032,-0.009,-0.004,-0.033,-0.005,-1.569,0.02,-0.039,112.98,88.1,40.573727,-3.530349,648.2,3,5,117.8,2.109
114.72,1,-0.057,-0.031,0.019,-0.036,-0.032,0.005,-1.571,0.024,-0.036,112.98,88.1,40.573727,-3.530349,648.2,3,5,117.8,2.109
114.83,1,-0.04,-0.074,0.024,-0.049,-0.051,0.019,-1.572,0.029,-0.032,112.98,88.1,40.573727,-3.530349,648.2,3,5,117.8,2.109
114.92,1,0.035,-0.112,0.039,-0.0,-0.085,0.025,-1.573,0.037,-0.026,112.98,88.1,40.573727,-3.530349,648.2,3,5,117.8,2.109
115.02,1,-0.004,-0.123,0.017,0.0,-0.11,0.027,-1.576,0.049,-0.019,113.97,87.9,40.573616,-3.530094,649.1,3,5,117.1,1.758
115.13,1,-0.008,-0.112,0.011,-0.006,-0.111,0.017,-1.578,0.059,-0.012,113.97,87.9,40.573616,-3.530094,649.1,3,5,117.1,1.758
115.22,1,0.002,-0.046,0.033,-0.001,-0.089,0.023,-1.579,0.062,-0.008,113.97,87.9,40.573616,-3.530094,649.1,3,5,117.1,1.758
115.32,1,-0.023,0.047,-0.004,-0.01,-0.022,0.018,-1.577,0.057,-0.009,113.97,87.9,40.573616,-3.530094,649.1,3,5,117.1,1.758
115.43,1,-0.002,0.087,0.018,-0.017,0.038,0.009,-1.577,0.051,-0.01,113.97,87.9,40.573616,-3.530094,649.1,3,5,117.1,1.758
115.53,1,-0.026,0.122,-0.015,-0.014,0.088,0.003,-1.577,0.04,-0.01,113.97,87.9,40.573616,-3.530094,649.1,3,5,117.1,1.758
115.63,1,-0.015,0.071,-0.003,-0.013,0.079,-0.001,-1.579,0.038,-0.008,113.97,87.9,40.573616,-3.530094,649.1,3,5,117.1,1.758
115.74,1,-0.027,-0.026,-0.019,-0.03,0.039,-0.009,-1.577,0.041,-0.005,113.97,87.9,40.573616,-3.530094,649.1,3,5,117.1,1.758
115.84,1,0.03,-0.011,-0.043,0.004,0.017,-0.027,-1.575,0.041,-0.004,113.97,87.9,40.573616,-3.530094,649.1,3,5,117.1,1.758
115.93,1,-0.046,0.02,-0.05,-0.015,0.001,-0.043,-1.573,0.04,-0.003,113.97,87.9,40.573616,-3.530094,649.1,3,5,117.1,1.758
116.03,1,0.009,0.057,-0.042,-0.011,0.025,-0.043,-1.569,0.037,-0.003,114.96,87.8,40.573521,-3.529843,649.7,4,5,116.4,1.406
116.13,1,-0.008,0.071,-0.042,-0.003,0.06,-0.045,-1.566,0.027,-0.004,114.96,87.8,40.573521,-3.529843,649.7,4,5,116.4,1.406
116.23,1,0.0,0.063,-0.016,-0.006,0.061,-0.031,-1.564,0.021,-0.004,114.96,87.8,40.573521,-3.529843,649.7,4,5,116.4,1.406
116.34,1,0.016,0.045,-0.037,0.007,0.051,-0.03,-1.561,0.016,-0.004,114.96,87.8,40.573521,-3.529843,649.7,4,5,116.4,1.406
116.43,1,-0.016,0.047,-0.007,0.0,0.047,-0.022,-1.559,0.012,-0.005,114.96,87.8,40.573521,-3.529843,649.7,4,5,116.4,1.406
116.53,1,-0.031,0.063,-0.006,-0.018,0.058,-0.012,-1.559,0.005,-0.008,114.96,87.8,40.573521,-3.529843,649.7,4,5,116.4,1.406
116.63,1,-0.048,0.101,-0.007,-0.029,0.072,-0.01,-1.559,-0.006,-0.011,114.96,87.8,40.573521,-3.529843,649.7,4,5,116.4,1.406
116.73,1,-0.024,0.086,0.004,-0.032,0.081,-0.001,-1.561,-0.012,-0.013,114.96,87.8,40.573521,-3.529843,649.7,4,5,116.4,1.406
116.83,1,0.01,0.055,-0.001,-0.016,0.077,-0.001,-1.561,-0.018,-0.015,114.96,87.8,40.573521,-3.529843,649.7,4,5,116.4,1.406
116.94,1,0.012,0.039,-0.005,0.01,0.054,-0.003,-1.56,-0.023,-0.017,114.96,87.8,40.573521,-3.529843,649.7,4,5,116.4,1.406
117.04,1,0.012,0.017,0.019,0.005,0.039,0.006,-1.562,-0.025,-0.018,115.98,88.1,40.573425,-3.529583,650.2,3,5,114.3,2.812
117.13,1,0.006,-0.009,0.042,0.008,0.016,0.024,-1.566,-0.025,-0.019,115.98,88.1,40.573425,-3.529583,650.2,3,5,114.3,2.812
117.23,1,-0.015,0.011,0.032,-0.007,0.009,0.028,-1.569,-0.026,-0.02,115.98,88.1,40.573425,-3.529583,650.2,3,5,114.3,2.812
117.33,1,-0.009,-0.004,0.041,-0.002,-0.002,0.031,-1.569,-0.025,-0.02,115.98,88.1,40.573425,-3.529583,650.2,3,5,114.3,2.812
117.44,1,-0.013,-0.051,0.022,-0.014,-0.017,0.033,-1.572,-0.021,-0.019,115.98,88.1,40.573425,-3.529583,650.2,3,5,114.3,2.812
117.53,1,0.006,-0.063,0.001,-0.001,-0.041,0.018,-1.574,-0.014,-0.016,115.98,88.1,40.573425,-3.529583,650.2,3,5,114.3,2.812
117.63,1,-0.039,-0.044,0.024,-0.02,-0.054,0.015,-1.575,-0.004,-0.014,115.98,88.1,40.573425,-3.529583,650.2,3,5,114.3,2.812
117.73,1,-0.002,-0.039,0.039,-0.019,-0.045,0.032,-1.577,-0.002,-0.013,115.98,88.1,40.573425,-3.529583,650.2,3,5,114.3,2.812
117.83,1,-0.026,-0.007,0.028,-0.013,-0.027,0.026,-1.579,-0.001,-0.012,115.98,88.1,40.573425,-3.529583,650.2,3,5,114.3,2.812
117.93,1,0.001,-0.005,0.024,-0.013,-0.017,0.031,-1.581,0.001,-0.012,115.98,88.1,40.573425,-3.529583,650.2,3,5,114.3,2.812
118.04,1,-0.021,0.007,0.006,-0.009,0.002,0.017,-1.581,0.002,-0.011,116.95,87.8,40.573341,-3.529312,650.7,3,5,113.2,3.164
118.13,1,0.003,-0.006,0.017,-0.017,-0.002,0.014,-1.582,0.003,-0.01,116.95,87.8,40.573341,-3.529312,650.7,3,5,113.2,3.164
118.24,1,0.01,0.018,0.024,0.008,0.005,0.02,-1.583,0.003,-0.01,116.95,87.8,40.573341,-3.529312,650.7,3,5,113.2,3.164
118.33,1,0.004,0.016,0.011,0.006,0.014,0.016,-1.584,0.002,-0.011,116.95,87.8,40.573341,-3.529312,650.7,3,5,113.2,3.164
118.43,1,0.01,0.024,0.024,0.004,0.015,0.019,-1.585,0.001,-0.011,116.95,87.8,40.573341,-3.529312,650.7,3,5,113.2,3.164
118.53,1,-0.003,0.033,-0.005,0.009,0.032,0.014,-1.587,0.002,-0.012,116.95,87.8,40.573341,-3.529312,650.7,3,5,113.2,3.164
118.64,1,-0.029,0.014,0.004,-0.017,0.018,0.004,-1.586,0.002,-0.012,116.95,87.8,40.573341,-3.529312,650.7,3,5,113.2,3.164
118.74,1,0.034,0.06,-0.022,0.005,0.036,-0.006,-1.585,-0.002,-0.013,116.95,87.8,40.573341,-3.529312,650.7,3,5,113.2,3.164
118.85,1,-0.045,0.049,-0.03,-0.007,0.045,-0.024,-1.584,-0.005,-0.015,116.95,87.8,40.573341,-3.529312,650.7,3,5,113.2,3.164
118.94,1,-0.036,0.044,-0.024,-0.033,0.043,-0.017,-1.583,-0.009,-0.017,116.95,87.8,40.573341,-3.529312,650.7,3,5,113.2,3.164
119.04,1,0.009,0.017,-0.038,-0.016,0.039,-0.035,-1.582,-0.009,-0.017,118.01,87.2,40.573254,-3.52905,651.2,3,5,113.9,0.703
119.14,1,-0.044,-0.06,-0.011,-0.018,-0.007,-0.024,-1.58,-0.005,-0.016,118.01,87.2,40.573254,-3.52905,651.2,3,5,113.9,0.703
119.24,1,-0.003,-0.07,-0.024,-0.017,-0.047,-0.02,-1.577,0.002,-0.015,118.01,87.2,40.573254,-3.52905,651.2,3,5,113.9,0.703
119.34,1,0.033,-0.041,-0.019,0.003,-0.049,-0.022,-1.574,0.006,-0.013,118.01,87.2,40.573254,-3.52905,651.2,3,5,113.9,0.703
119.44,1,-0.009,-0.03,-0.009,0.007,-0.037,-0.015,-1.573,0.008,-0.012,118.01,87.2,40.573254,-3.52905,651.2,3,5,113.9,0.703
119.54,1,0.012,-0.005,-0.023,0.004,-0.022,-0.015,-1.571,0.01,-0.011,118.01,87.2,40.573254,-3.52905,651.2,3,5,113.9,0.703
119.64,1,0.018,-0.008,-0.013,0.012,-0.014,-0.019,-1.568,0.008,-0.011,118.01,87.2,40.573254,-3.52905,651.2,3,5,113.9,0.703
119.74,1,-0.017,-0.001,-0.035,0.006,-0.005,-0.025,-1.565,0.006,-0.01,118.01,87.2,40.573254,-3.52905,651.2,3,5,113.9,0.703
119.84,1,-0.035,0.002,-0.02,-0.022,-0.001,-0.025,-1.566,0.006,-0.01,118.01,87.2,40.573254,-3.52905,651.2,3,5,113.9,0.703
119.94,1,-0.0,0.002,-0.012,-0.019,-0.001,-0.019,-1.565,0.005,-0.01,118.01,87.2,40.573254,-3.52905,651.2,3,5,113.9,0.703
120.04,1,-0.039,0.02,-0.018,-0.016,0.006,-0.014,-1.564,0.003,-0.011,119.01,88.8,40.573166,-3.528785,651.6,4,5,112.1,1.758
120.14,1,0.006,0.026,0.011,-0.016,0.019,-0.004,-1.564,0.003,-0.011,119.01,88.8,40.573166,-3.528785,651.6,4,5,112.1,1.758
120.24,1,0.018,0.002,0.0,0.006,0.013,0.001,-1.564,0.004,-0.011,119.01,88.8,40.573166,-3.528785,651.6,4,5,112.1,1.758
120.34,1,0.003,-0.007,-0.008,0.007,0.003,-0.005,-1.563,0.006,-0.011,119.01,88.8,40.573166,-3.528785,651.6,4,5,112.1,1.758
120.44,1,-0.024,0.018,0.009,-0.006,0.004,0.002,-1.564,0.005,-0.012,119.01,88.8,40.573166,-3.528785,651.6,4,5,112.1,1.758
120.55,1,-0.014,0.036,0.02,-0.015,0.023,0.009,-1.566,0.003,-0.012,119.01,88.8,40.573166,-3.528785,651.6,4,5,112.1,1.758
120.64,1,-0.003,0.008,0.011,-0.014,0.017,0.014,-1.569,0.001,-0.013,119.01,88.8,40.573166,-3.528785,651.6,4,5,112.1,1.758
120.75,1,0.022,0.022,0.018,0.007,0.017,0.015,-1.57,0.002,-0.013,119.01,88.8,40.573166,-3.528785,651.6,4,5,112.1,1.758
120.84,1,-0.019,0.021,0.011,0.002,0.022,0.013,-1.57,0.004,-0.013,119.01,88.8,40.573166,-3.528785,651.6,4,5,112.1,1.758
120.94,1,-0.044,-0.027,0.004,-0.028,0.001,0.005,-1.57,0.009,-0.013,119.01,88.8,40.573166,-3.528785,651.6,4,5,112.1,1.758
121.04,1,0.012,-0.009,0.043,-0.009,-0.014,0.024,-1.574,0.012,-0.012,119.95,88.3,40.573078,-3.528523,652.4,3,5,112.9,1.055
121.14,1,-0.042,0.011,0.019,-0.021,0.001,0.025,-1.575,0.011,-0.011,119.95,88.3,40.573078,-3.528523,652.4,3,5,112.9,1.055
121.24,1,-0.016,-0.025,0.01,-0.025,-0.007,0.019,-1.578,0.014,-0.011,119.95,88.3,40.573078,-3.528523,652.4,3,5,112.9,1.055
121.35,1,0.01,0.008,0.04,-0.002,-0.002,0.024,-1.579,0.015,-0.01,119.95,88.3,40.573078,-3.528523,652.4,3,5,112.9,1.055
121.44,1,-0.063,-0.007,0.015,-0.027,-0.005,0.028,-1.585,0.014,-0.01,119.95,88.3,40.573078,-3.528523,652.4,3,5,112.9,1.055
121.54,1,0.024,0.008,0.023,-0.018,-0.001,0.019,-1.589,0.012,-0.011,119.95,88.3,40.573078,-3.528523,652.4,3,5,112.9,1.055
121.64,1,-0.005,0.027,-0.009,0.003,0.012,0.013,-1.589,0.011,-0.011,119.95,88.3,40.573078,-3.528523,652.4,3,5,112.9,1.055
121.74,1,-0.003,0.005,-0.005,0.0,0.013,-0.001,-1.589,0.01,-0.012,119.95,88.3,40.573078,-3.528523,652.4,3,5,112.9,1.055
121.84,1,-0.002,0.008,-0.007,-0.002,0.007,-0.004,-1.588,0.006,-0.012,119.95,88.3,40.573078,-3.528523,652.4,3,5,112.9,1.055
121.95,1,-0.027,0.023,-0.02,-0.014,0.017,-0.011,-1.588,0.003,-0.013,119.95,88.3,40.573078,-3.528523,652.4,3,5,112.9,1.055
122.05,1,-0.027,0.034,-0.026,-0.027,0.027,-0.024,-1.585,-0.001,-0.015,120.96,88.0,40.572994,-3.528255,652.9,3,5,112.1,0.703
122.15,1,-0.024,0.048,-0.032,-0.024,0.036,-0.025,-1.584,-0.005,-0.017,120.96,88.0,40.572994,-3.528255,652.9,3,5,112.1,0.703
122.24,1,0.003,0.072,-0.014,-0.014,0.054,-0.02,-1.584,-0.011,-0.02,120.96,88.0,40.572994,-3.528255,652.9,3,5,112.1,0.703
122.35,1,0.026,0.055,-0.031,0.013,0.059,-0.025,-1.582,-0.016,-0.022,120.96,88.0,40.572994,-3.528255,652.9,3,5,112.1,0.703
122.44,1,-0.034,0.015,-0.025,-0.008,0.039,-0.027,-1.578,-0.018,-0.024,120.96,88.0,40.572994,-3.528255,652.9,3,5,112.1,0.703
122.55,1,0.014,0.015,-0.036,0.001,0.023,-0.029,-1.578,-0.016,-0.025,120.96,88.0,40.572994,-3.528255,652.9,3,5,112.1,0.703
122.64,1,-0.072,-0.044,-0.028,-0.031,-0.003,-0.03,-1.578,-0.014,-0.026,120.96,88.0,40.572994,-3.528255,652.9,3,5,112.1,0.703
122.74,1,0.011,-0.032,-0.046,-0.029,-0.023,-0.037,-1.577,-0.011,-0.026,120.96,88.0,40.572994,-3.528255,652.9,3,5,112.1,0.703
122.85,1,-0.005,-0.009,-0.016,-0.008,-0.017,-0.032,-1.574,-0.012,-0.027,120.96,88.0,40.572994,-3.528255,652.9,3,5,112.1,0.703
122.95,1,0.021,0.019,-0.025,0.005,-0.005,-0.023,-1.572,-0.016,-0.028,120.96,88.0,40.572994,-3.528255,652.9,3,5,112.1,0.703
123.05,1,0.022,0.01,-0.035,0.019,0.009,-0.029,-1.567,-0.018,-0.03,122.01,88.3,40.57291,-3.527992,653.2,3,5,111.4,1.406
123.15,1,-0.017,0.008,-0.044,0.007,0.003,-0.036,-1.564,-0.017,-0.032,122.01,88.3,40.57291,-3.527992,653.2,3,5,111.4,1.406
123.25,1,-0.023,0.015,-0.019,-0.012,0.011,-0.032,-1.562,-0.018,-0.033,122.01,88.3,40.57291,-3.527992,653.2,3,5,111.4,1.406
123.35,1,0.003,-0.007,-0.015,-0.009,0.006,-0.022,-1.562,-0.016,-0.034,122.01,88.3,40.57291,-3.527992,653.2,3,5,111.4,1.406
123.45,1,-0.006,-0.046,-0.01,-0.007,-0.021,-0.013,-1.561,-0.012,-0.033,122.01,88.3,40.57291,-3.527992,653.2,3,5,111.4,1.406
123.55,1,0.003,-0.006,-0.0,-0.005,-0.014,-0.011,-1.561,-0.01,-0.034,122.01,88.3,40.57291,-3.527992,653.2,3,5,111.4,1.406
123.65,1,-0.02,0.014,0.017,-0.006,-0.001,0.001,-1.562,-0.008,-0.035,122.01,88.3,40.57291,-3.527992,653.2,3,5,111.4,1.406
123.75,1,-0.028,0.019,0.019,-0.014,0.003,0.017,-1.565,-0.008,-0.036,122.01,88.3,40.57291,-3.527992,653.2,3,5,111.4,1.406
123.85,1,-0.009,0.01,0.013,-0.017,0.013,0.014,-1.566,-0.01,-0.038,122.01,88.3,40.57291,-3.527992,653.2,3,5,111.4,1.406
