Timestamp_Accel,SystemActivated,accelerometerXAxis,accelerometerYAxis,accelerometerZAxis,AccelX_KF,AccelY_KF,AccelZ_KF,gyroscopeXAxis,gyroscopeYAxis,gyroscopeZAxis,Timestamp_GPS,Speed,latitude,longitude,Altitude,VerticalAccuracy,HorizontalAccuracy,Course,Difcourse
14.71,1,-0.028,0.044,-0.083,0.03,0.027,-0.066,-1.689,-0.02,-1.538,14.75,75.2,40.505695,-3.354856,603.4,3,5,271.4,0.703
14.8,1,-0.083,0.044,-0.062,-0.03,0.042,-0.078,-1.679,-0.023,-1.539,14.75,75.2,40.505695,-3.354856,603.4,3,5,271.4,0.703
14.9,1,-0.038,-0.003,-0.069,-0.053,0.024,-0.062,-1.675,-0.02,-1.541,14.75,75.2,40.505695,-3.354856,603.4,3,5,271.4,0.703
15.0,1,-0.06,0.009,-0.053,-0.057,0.012,-0.057,-1.672,-0.019,-1.543,14.75,75.2,40.505695,-3.354856,603.4,3,5,271.4,0.703
15.1,1,0.028,0.002,-0.042,-0.02,0.003,-0.057,-1.666,-0.02,-1.545,14.75,75.2,40.505695,-3.354856,603.4,3,5,271.4,0.703
15.2,1,0.086,0.02,-0.042,0.036,0.009,-0.044,-1.66,-0.024,-1.547,14.75,75.2,40.505695,-3.354856,603.4,3,5,271.4,0.703
15.3,1,0.031,0.046,-0.048,0.053,0.028,-0.044,-1.656,-0.026,-1.549,14.75,75.2,40.505695,-3.354856,603.4,3,5,271.4,0.703
15.41,1,0.081,0.007,-0.093,0.058,0.022,-0.067,-1.649,-0.028,-1.551,14.75,75.2,40.505695,-3.354856,603.4,3,5,271.4,0.703
15.5,1,0.01,-0.003,-0.107,0.042,0.01,-0.09,-1.638,-0.029,-1.552,14.75,75.2,40.505695,-3.354856,603.4,3,5,271.4,0.703
15.6,1,-0.035,-0.008,-0.096,0.002,0.001,-0.101,-1.623,-0.03,-1.554,14.75,75.2,40.505695,-3.354856,603.4,3,5,271.4,0.703
15.7,1,0.005,0.027,-0.09,-0.013,0.008,-0.09,-1.612,-0.032,-1.556,15.72,78.3,40.505703,-3.355109,604.0,3,5,272.1,1.406
15.82,1,-0.041,0.045,-0.082,-0.018,0.035,-0.088,-1.607,-0.032,-1.558,15.72,78.3,40.505703,-3.355109,604.0,3,5,272.1,1.406
15.9,1,0.035,0.022,-0.051,0.007,0.02,-0.071,-1.607,-0.03,-1.56,15.72,78.3,40.505703,-3.355109,604.0,3,5,272.1,1.406
16.01,1,0.027,-0.009,-0.073,0.019,0.012,-0.063,-1.603,-0.028,-1.562,15.72,78.3,40.505703,-3.355109,604.0,3,5,272.1,1.406
16.11,1,-0.051,0.004,-0.098,-0.002,0.006,-0.086,-1.598,-0.024,-1.563,15.72,78.3,40.505703,-3.355109,604.0,3,5,272.1,1.406
16.21,1,-0.147,0.008,-0.061,-0.081,0.005,-0.079,-1.597,-0.022,-1.565,15.72,78.3,40.505703,-3.355109,604.0,3,5,272.1,1.406
16.31,1,-0.046,-0.009,-0.016,-0.082,-0.001,-0.044,-1.6,-0.021,-1.567,15.72,78.3,40.505703,-3.355109,604.0,3,5,272.1,1.406
16.41,1,-0.033,-0.004,-0.066,-0.066,0.0,-0.05,-1.599,-0.019,-1.568,15.72,78.3,40.505703,-3.355109,604.0,3,5,272.1,1.406
16.51,1,0.032,-0.015,-0.042,0.0,-0.012,-0.048,-1.591,-0.02,-1.569,15.72,78.3,40.505703,-3.355109,604.0,3,5,272.1,1.406
16.61,1,0.026,-0.011,-0.054,0.016,-0.013,-0.05,-1.584,-0.019,-1.57,15.72,78.3,40.505703,-3.355109,604.0,3,5,272.1,1.406
16.71,1,-0.019,-0.01,-0.048,-0.006,-0.008,-0.054,-1.578,-0.018,-1.571,16.74,78.7,40.505714,-3.355369,603.2,3,5,273.5,2.109
16.81,1,-0.034,0.01,-0.051,-0.007,-0.004,-0.05,-1.574,-0.016,-1.571,16.74,78.7,40.505714,-3.355369,603.2,3,5,273.5,2.109
16.91,1,-0.011,-0.01,-0.028,-0.024,-0.002,-0.04,-1.576,-0.014,-1.572,16.74,78.7,40.505714,-3.355369,603.2,3,5,273.5,2.109
17.02,1,-0.049,-0.004,-0.011,-0.03,-0.003,-0.022,-1.58,-0.013,-1.573,16.74,78.7,40.505714,-3.355369,603.2,3,5,273.5,2.109
17.11,1,-0.002,-0.015,-0.0,-0.016,-0.006,-0.011,-1.582,-0.013,-1.574,16.74,78.7,40.505714,-3.355369,603.2,3,5,273.5,2.109
17.21,1,-0.013,-0.006,-0.02,-0.017,-0.009,-0.014,-1.58,-0.014,-1.575,16.74,78.7,40.505714,-3.355369,603.2,3,5,273.5,2.109
17.31,1,0.008,0.003,-0.025,-0.009,-0.005,-0.02,-1.575,-0.017,-1.576,16.74,78.7,40.505714,-3.355369,603.2,3,5,273.5,2.109
17.41,1,0.036,-0.0,-0.002,0.017,-0.002,-0.015,-1.573,-0.018,-1.577,16.74,78.7,40.505714,-3.355369,603.2,3,5,273.5,2.109
17.51,1,-0.03,0.017,-0.043,-0.006,0.013,-0.025,-1.571,-0.018,-1.578,16.74,78.7,40.505714,-3.355369,603.2,3,5,273.5,2.109
17.61,1,0.013,-0.023,-0.036,0.012,-0.008,-0.027,-1.571,-0.019,-1.579,16.74,78.7,40.505714,-3.355369,603.2,3,5,273.5,2.109
17.71,1,-0.023,0.008,-0.04,-0.011,-0.001,-0.037,-1.569,-0.017,-1.58,17.71,77.8,40.50573,-3.355628,601.8,4,5,274.6,2.461
17.82,1,-0.027,0.023,-0.028,-0.01,0.005,-0.032,-1.568,-0.018,-1.581,17.71,77.8,40.50573,-3.355628,601.8,4,5,274.6,2.461
17.91,1,-0.018,0.023,-0.023,-0.027,0.018,-0.032,-1.566,-0.02,-1.581,17.71,77.8,40.50573,-3.355628,601.8,4,5,274.6,2.461
18.01,1,-0.007,0.013,-0.018,-0.019,0.019,-0.022,-1.567,-0.019,-1.581,17.71,77.8,40.50573,-3.355628,601.8,4,5,274.6,2.461
18.11,1,0.035,-0.041,-0.019,0.009,-0.006,-0.018,-1.564,-0.016,-1.581,17.71,77.8,40.50573,-3.355628,601.8,4,5,274.6,2.461
18.21,1,0.056,-0.062,-0.039,0.039,-0.038,-0.03,-1.558,-0.011,-1.581,17.71,77.8,40.50573,-3.355628,601.8,4,5,274.6,2.461
18.32,1,-0.004,-0.023,-0.058,0.019,-0.038,-0.044,-1.553,-0.007,-1.581,17.71,77.8,40.50573,-3.355628,601.8,4,5,274.6,2.461
18.41,1,-0.052,-0.002,-0.028,-0.011,-0.023,-0.037,-1.55,-0.007,-1.58,17.71,77.8,40.50573,-3.355628,601.8,4,5,274.6,2.461
18.52,1,-0.029,0.005,-0.03,-0.026,-0.006,-0.034,-1.548,-0.009,-1.58,17.71,77.8,40.50573,-3.355628,601.8,4,5,274.6,2.461
18.62,1,-0.008,0.006,-0.013,-0.02,0.005,-0.024,-1.549,-0.009,-1.579,17.71,77.8,40.50573,-3.355628,601.8,4,5,274.6,2.461
18.71,1,0.019,-0.057,-0.032,-0.001,-0.017,-0.026,-1.549,-0.004,-1.577,18.74,77.9,40.505745,-3.355879,601.2,3,5,275.3,1.758
18.82,1,0.023,-0.083,0.004,0.009,-0.053,-0.013,-1.549,0.007,-1.573,18.74,77.9,40.505745,-3.355879,601.2,3,5,275.3,1.758
18.92,1,0.004,-0.066,0.004,0.011,-0.066,-0.004,-1.548,0.018,-1.57,18.74,77.9,40.505745,-3.355879,601.2,3,5,275.3,1.758
19.02,1,0.028,-0.077,0.03,0.018,-0.07,0.013,-1.549,0.026,-1.566,18.74,77.9,40.505745,-3.355879,601.2,3,5,275.3,1.758
19.12,1,0.02,-0.056,0.032,0.026,-0.066,0.026,-1.551,0.028,-1.563,18.74,77.9,40.505745,-3.355879,601.2,3,5,275.3,1.758
19.22,1,-0.03,-0.043,0.023,-0.009,-0.057,0.024,-1.555,0.031,-1.559,18.74,77.9,40.505745,-3.355879,601.2,3,5,275.3,1.758
19.31,1,-0.064,-0.029,0.055,-0.03,-0.044,0.033,-1.56,0.033,-1.556,18.74,77.9,40.505745,-3.355879,601.2,3,5,275.3,1.758
19.42,1,0.005,-0.01,0.049,-0.03,-0.026,0.045,-1.566,0.031,-1.553,18.74,77.9,40.505745,-3.355879,601.2,3,5,275.3,1.758
19.52,1,-0.004,-0.001,0.037,-0.01,-0.009,0.041,-1.569,0.029,-1.55,18.74,77.9,40.505745,-3.355879,601.2,3,5,275.3,1.758
19.62,1,0.019,-0.025,0.01,0.004,-0.018,0.034,-1.573,0.033,-1.547,18.74,77.9,40.505745,-3.355879,601.2,3,5,275.3,1.758
19.72,1,-0.029,-0.028,0.022,-0.002,-0.02,0.02,-1.574,0.035,-1.545,19.74,77.1,40.505768,-3.356141,601.1,3,5,274.2,1.055
19.83,1,0.011,-0.029,0.01,0.004,-0.033,0.019,-1.573,0.036,-1.543,19.74,77.1,40.505768,-3.356141,601.1,3,5,274.2,1.055
19.92,1,-0.052,0.016,-0.002,-0.039,-0.005,0.009,-1.572,0.032,-1.541,19.74,77.1,40.505768,-3.356141,601.1,3,5,274.2,1.055
20.02,1,0.077,0.001,-0.023,0.024,0.002,-0.003,-1.574,0.032,-1.54,19.74,77.1,40.505768,-3.356141,601.1,3,5,274.2,1.055
20.12,1,-0.08,0.042,-0.025,-0.008,0.021,-0.023,-1.576,0.029,-1.538,19.74,77.1,40.505768,-3.356141,601.1,3,5,274.2,1.055
20.22,1,-0.032,-0.023,0.009,-0.039,0.001,-0.007,-1.578,0.029,-1.536,19.74,77.1,40.505768,-3.356141,601.1,3,5,274.2,1.055
20.32,1,-0.003,0.04,0.004,-0.026,0.014,-0.002,-1.579,0.028,-1.535,19.74,77.1,40.505768,-3.356141,601.1,3,5,274.2,1.055
20.42,1,0.017,0.035,0.004,-0.003,0.028,-0.003,-1.579,0.029,-1.534,19.74,77.1,40.505768,-3.356141,601.1,3,5,274.2,1.055
20.52,1,0.045,-0.006,-0.021,0.03,0.017,-0.002,-1.578,0.031,-1.532,19.74,77.1,40.505768,-3.356141,601.1,3,5,274.2,1.055
20.62,1,0.036,0.046,-0.043,0.038,0.027,-0.02,-1.572,0.03,-1.533,19.74,77.1,40.505768,-3.356141,601.1,3,5,274.2,1.055
20.73,1,0.005,0.05,-0.02,0.018,0.037,-0.029,-1.567,0.025,-1.534,20.71,78.3,40.505779,-3.3564,600.6,3,5,273.9,1.406
20.83,1,-0.065,0.088,-0.019,-0.015,0.057,-0.022,-1.566,0.018,-1.535,20.71,78.3,40.505779,-3.3564,600.6,3,5,273.9,1.406
20.93,1,-0.04,0.024,-0.014,-0.042,0.057,-0.02,-1.567,0.016,-1.536,20.71,78.3,40.505779,-3.3564,600.6,3,5,273.9,1.406
21.03,1,-0.051,0.006,-0.027,-0.047,0.024,-0.021,-1.566,0.012,-1.537,20.71,78.3,40.505779,-3.3564,600.6,3,5,273.9,1.406
21.12,1,0.034,0.023,0.009,-0.012,0.021,-0.008,-1.567,0.006,-1.538,20.71,78.3,40.505779,-3.3564,600.6,3,5,273.9,1.406
21.22,1,0.023,0.061,-0.01,0.013,0.037,-0.007,-1.568,-0.001,-1.539,20.71,78.3,40.505779,-3.3564,600.6,3,5,273.9,1.406
21.32,1,0.04,0.028,0.001,0.033,0.036,0.002,-1.567,-0.007,-1.54,20.71,78.3,40.505779,-3.3564,600.6,3,5,273.9,1.406
21.42,1,-0.009,0.016,-0.029,0.006,0.035,-0.016,-1.565,-0.009,-1.541,20.71,78.3,40.505779,-3.3564,600.6,3,5,273.9,1.406
21.53,1,0.005,0.005,-0.017,0.011,0.015,-0.018,-1.562,-0.012,-1.543,20.71,78.3,40.505779,-3.3564,600.6,3,5,273.9,1.406
21.62,1,-0.05,0.001,-0.015,-0.018,0.005,-0.017,-1.559,-0.013,-1.543,20.71,78.3,40.505779,-3.3564,600.6,3,5,273.9,1.406
21.72,1,-0.012,0.016,-0.01,-0.028,0.012,-0.015,-1.559,-0.013,-1.544,21.73,78.0,40.505795,-3.356657,600.7,3,5,274.2,0.352
21.82,1,-0.042,0.027,-0.015,-0.034,0.021,-0.014,-1.561,-0.013,-1.545,21.73,78.0,40.505795,-3.356657,600.7,3,5,274.2,0.352
21.92,1,0.037,0.0,0.014,0.007,0.006,-0.002,-1.563,-0.013,-1.545,21.73,78.0,40.505795,-3.356657,600.7,3,5,274.2,0.352
22.02,1,0.023,-0.001,-0.006,0.01,0.007,-0.001,-1.563,-0.013,-1.545,21.73,78.0,40.505795,-3.356657,600.7,3,5,274.2,0.352
22.13,1,-0.002,0.01,-0.029,0.013,0.006,-0.013,-1.56,-0.014,-1.546,21.73,78.0,40.505795,-3.356657,600.7,3,5,274.2,0.352
22.23,1,0.008,-0.02,-0.02,0.012,-0.005,-0.019,-1.557,-0.013,-1.546,21.73,78.0,40.505795,-3.356657,600.7,3,5,274.2,0.352
22.32,1,-0.019,-0.016,-0.018,-0.008,-0.013,-0.022,-1.555,-0.011,-1.546,21.73,78.0,40.505795,-3.356657,600.7,3,5,274.2,0.352
22.42,1,-0.035,0.002,-0.015,-0.023,-0.01,-0.016,-1.556,-0.009,-1.546,21.73,78.0,40.505795,-3.356657,600.7,3,5,274.2,0.352
22.52,1,-0.027,0.003,-0.008,-0.027,-0.008,-0.016,-1.558,-0.007,-1.546,21.73,78.0,40.505795,-3.356657,600.7,3,5,274.2,0.352
22.63,1,-0.057,0.026,-0.035,-0.04,0.013,-0.024,-1.559,-0.007,-1.546,21.73,78.0,40.505795,-3.356657,600.7,3,5,274.2,0.352
22.73,1,0.018,-0.03,0.011,-0.021,0.002,-0.009,-1.56,-0.007,-1.546,22.72,78.0,40.505817,-3.35692,600.0,3,5,275.3,1.406
22.82,1,0.036,-0.038,-0.015,0.016,-0.024,-0.001,-1.56,-0.008,-1.546,22.72,78.0,40.505817,-3.35692,600.0,3,5,275.3,1.406
22.92,1,-0.016,0.003,-0.018,0.006,-0.014,-0.013,-1.559,-0.009,-1.546,22.72,78.0,40.505817,-3.35692,600.0,3,5,275.3,1.406
23.02,1,0.019,0.009,-0.002,0.015,0.0,-0.008,-1.557,-0.008,-1.545,22.72,78.0,40.505817,-3.35692,600.0,3,5,275.3,1.406
23.12,1,-0.001,0.008,-0.001,0.005,0.007,-0.005,-1.556,-0.007,-1.545,22.72,78.0,40.505817,-3.35692,600.0,3,5,275.3,1.406
23.23,1,-0.005,-0.003,0.01,-0.007,0.005,-0.001,-1.559,-0.009,-1.544,22.72,78.0,40.505817,-3.35692,600.0,3,5,275.3,1.406
23.33,1,0.048,-0.001,0.059,0.012,-0.005,0.03,-1.559,-0.011,-1.544,22.72,78.0,40.505817,-3.35692,600.0,3,5,275.3,1.406
23.44,1,0.033,0.003,0.039,0.029,0.003,0.037,-1.558,-0.01,-1.543,22.72,78.0,40.505817,-3.35692,600.0,3,5,275.3,1.406
23.54,1,-0.001,0.005,0.02,0.03,0.002,0.031,-1.559,-0.004,-1.543,22.72,78.0,40.505817,-3.35692,600.0,3,5,275.3,1.406
23.63,1,0.001,0.002,0.035,0.004,0.007,0.028,-1.56,0.0,-1.543,22.72,78.0,40.505817,-3.35692,600.0,3,5,275.3,1.406
23.73,1,-0.016,0.014,0.037,0.001,0.005,0.039,-1.563,0.002,-1.543,23.75,77.7,40.505829,-3.35718,599.9,3,5,275.3,1.055
23.83,1,-0.049,-0.016,0.035,-0.025,0.001,0.033,-1.565,0.004,-1.543,23.75,77.7,40.505829,-3.35718,599.9,3,5,275.3,1.055
23.93,1,-0.024,-0.017,0.052,-0.033,-0.012,0.043,-1.57,0.002,-1.543,23.75,77.7,40.505829,-3.35718,599.9,3,5,275.3,1.055
24.03,1,0.012,0.016,0.046,-0.012,-0.005,0.045,-1.572,0.002,-1.543,23.75,77.7,40.505829,-3.35718,599.9,3,5,275.3,1.055
24.13,1,0.01,0.043,0.038,-0.004,0.019,0.039,-1.575,-0.001,-1.543,23.75,77.7,40.505829,-3.35718,599.9,3,5,275.3,1.055
24.23,1,-0.027,-0.007,0.012,-0.004,0.01,0.029,-1.576,0.0,-1.543,23.75,77.7,40.505829,-3.35718,599.9,3,5,275.3,1.055
24.33,1,-0.036,-0.055,0.048,-0.025,-0.012,0.028,-1.577,0.002,-1.543,23.75,77.7,40.505829,-3.35718,599.9,3,5,275.3,1.055
24.44,1,-0.057,-0.033,0.05,-0.038,-0.029,0.048,-1.578,0.002,-1.544,23.75,77.7,40.505829,-3.35718,599.9,3,5,275.3,1.055
24.53,1,-0.037,0.009,0.035,-0.035,-0.03,0.043,-1.579,-0.001,-1.544,23.75,77.7,40.505829,-3.35718,599.9,3,5,275.3,1.055
24.64,1,-0.016,-0.007,0.06,-0.032,0.003,0.049,-1.581,-0.004,-1.544,23.75,77.7,40.505829,-3.35718,599.9,3,5,275.3,1.055
24.74,1,0.009,0.016,0.036,-0.014,0.005,0.044,-1.581,-0.006,-1.544,24.72,78.6,40.505844,-3.357434,599.6,3,5,275.6,0.352
24.83,1,0.016,0.037,0.043,-0.001,0.021,0.045,-1.582,-0.006,-1.544,24.72,78.6,40.505844,-3.357434,599.6,3,5,275.6,0.352
24.93,1,-0.034,0.038,0.051,-0.001,0.029,0.045,-1.589,-0.005,-1.544,24.72,78.6,40.505844,-3.357434,599.6,3,5,275.6,0.352
25.03,1,-0.042,-0.016,0.035,-0.032,0.012,0.044,-1.596,-0.001,-1.544,24.72,78.6,40.505844,-3.357434,599.6,3,5,275.6,0.352
25.13,1,-0.024,-0.005,0.038,-0.022,-0.003,0.038,-1.601,-0.004,-1.543,24.72,78.6,40.505844,-3.357434,599.6,3,5,275.6,0.352
25.24,1,0.028,-0.007,0.047,-0.01,-0.001,0.041,-1.606,-0.004,-1.544,24.72,78.6,40.505844,-3.357434,599.6,3,5,275.6,0.352
25.33,1,-0.012,-0.01,0.023,-0.01,-0.004,0.037,-1.61,-0.006,-1.543,24.72,78.6,40.505844,-3.357434,599.6,3,5,275.6,0.352
25.43,1,-0.052,0.023,0.025,-0.014,0.002,0.026,-1.612,-0.007,-1.543,24.72,78.6,40.505844,-3.357434,599.6,3,5,275.6,0.352
25.53,1,-0.013,0.035,0.037,-0.031,0.021,0.029,-1.618,-0.006,-1.542,24.72,78.6,40.505844,-3.357434,599.6,3,5,275.6,0.352
25.64,1,0.031,0.01,0.042,-0.002,0.021,0.042,-1.62,-0.007,-1.541,24.72,78.6,40.505844,-3.357434,599.6,3,5,275.6,0.352
25.73,1,-0.023,-0.002,-0.009,0.004,0.009,0.017,-1.618,-0.003,-1.541,25.76,80.7,40.505867,-3.357707,599.7,3,5,276.0,0.703
25.84,1,0.037,-0.034,0.046,0.01,-0.013,0.024,-1.621,-0.001,-1.54,25.76,80.7,40.505867,-3.357707,599.7,3,5,276.0,0.703
25.94,1,0.039,-0.04,0.028,0.029,-0.027,0.031,-1.623,-0.001,-1.54,25.76,80.7,40.505867,-3.357707,599.7,3,5,276.0,0.703
26.03,1,0.007,-0.006,-0.002,0.028,-0.029,0.018,-1.621,-0.007,-1.541,25.76,80.7,40.505867,-3.357707,599.7,3,5,276.0,0.703
26.13,1,-0.02,0.02,0.019,-0.004,-0.001,0.007,-1.621,-0.011,-1.541,25.76,80.7,40.505867,-3.357707,599.7,3,5,276.0,0.703
26.23,1,-0.049,-0.022,0.018,-0.035,-0.003,0.015,-1.62,-0.01,-1.54,25.76,80.7,40.505867,-3.357707,599.7,3,5,276.0,0.703
26.33,1,0.033,-0.027,0.027,-0.003,-0.016,0.024,-1.621,-0.011,-1.54,25.76,80.7,40.505867,-3.357707,599.7,3,5,276.0,0.703
26.44,1,0.045,-0.02,0.022,0.028,-0.019,0.025,-1.623,-0.014,-1.54,25.76,80.7,40.505867,-3.357707,599.7,3,5,276.0,0.703
26.53,1,0.001,0.002,0.022,0.023,-0.011,0.021,-1.622,-0.017,-1.54,25.76,80.7,40.505867,-3.357707,599.7,3,5,276.0,0.703
26.63,1,-0.043,0.006,-0.007,-0.008,-0.004,0.011,-1.623,-0.021,-1.54,25.76,80.7,40.505867,-3.357707,599.7,3,5,276.0,0.703
26.74,1,-0.069,0.014,-0.005,-0.047,0.009,0.002,-1.624,-0.022,-1.54,26.71,83.4,40.50589,-3.357978,599.8,3,5,276.7,1.055
26.84,1,-0.054,-0.015,-0.003,-0.051,0.003,-0.001,-1.625,-0.021,-1.54,26.71,83.4,40.50589,-3.357978,599.8,3,5,276.7,1.055
26.94,1,-0.045,-0.012,-0.026,-0.051,-0.009,-0.012,-1.623,-0.019,-1.54,26.71,83.4,40.50589,-3.357978,599.8,3,5,276.7,1.055
27.04,1,-0.002,-0.0,0.005,-0.033,-0.008,-0.013,-1.625,-0.017,-1.54,26.71,83.4,40.50589,-3.357978,599.8,3,5,276.7,1.055
27.14,1,-0.017,0.021,-0.018,-0.024,0.011,-0.009,-1.624,-0.018,-1.539,26.71,83.4,40.50589,-3.357978,599.8,3,5,276.7,1.055
27.24,1,-0.025,-0.047,-0.011,-0.015,-0.016,-0.012,-1.622,-0.017,-1.539,26.71,83.4,40.50589,-3.357978,599.8,3,5,276.7,1.055
27.34,1,0.025,-0.023,0.016,-0.001,-0.025,0.001,-1.622,-0.017,-1.539,26.71,83.4,40.50589,-3.357978,599.8,3,5,276.7,1.055
27.44,1,0.014,-0.012,-0.035,0.011,-0.019,-0.011,-1.618,-0.016,-1.539,26.71,83.4,40.50589,-3.357978,599.8,3,5,276.7,1.055
27.54,1,-0.006,-0.026,-0.03,0.004,-0.019,-0.027,-1.613,-0.012,-1.538,26.71,83.4,40.50589,-3.357978,599.8,3,5,276.7,1.055
27.65,1,0.014,-0.01,-0.013,0.013,-0.023,-0.017,-1.611,-0.011,-1.537,26.71,83.4,40.50589,-3.357978,599.8,3,5,276.7,1.055
27.74,1,-0.022,-0.015,-0.021,-0.005,-0.013,-0.018,-1.607,-0.007,-1.535,27.72,86.5,40.505917,-3.358264,599.4,4,5,276.7,0.703
27.84,1,-0.028,-0.038,-0.035,-0.021,-0.023,-0.025,-1.604,-0.004,-1.534,27.72,86.5,40.505917,-3.358264,599.4,4,5,276.7,0.703
27.94,1,0.002,-0.008,-0.047,-0.016,-0.025,-0.032,-1.599,-0.003,-1.534,27.72,86.5,40.505917,-3.358264,599.4,4,5,276.7,0.703
28.04,1,-0.017,-0.004,-0.05,-0.009,-0.009,-0.045,-1.593,-0.004,-1.533,27.72,86.5,40.505917,-3.358264,599.4,4,5,276.7,0.703
28.14,1,-0.03,-0.007,-0.056,-0.027,-0.003,-0.056,-1.588,-0.004,-1.532,27.72,86.5,40.505917,-3.358264,599.4,4,5,276.7,0.703
28.24,1,-0.05,-0.011,-0.058,-0.026,-0.012,-0.055,-1.584,-0.004,-1.531,27.72,86.5,40.505917,-3.358264,599.4,4,5,276.7,0.703
28.35,1,-0.014,-0.034,-0.045,-0.028,-0.018,-0.052,-1.58,-0.003,-1.529,27.72,86.5,40.505917,-3.358264,599.4,4,5,276.7,0.703
28.44,1,-0.028,-0.023,-0.042,-0.03,-0.025,-0.046,-1.577,-0.002,-1.528,27.72,86.5,40.505917,-3.358264,599.4,4,5,276.7,0.703
28.54,1,-0.005,-0.027,-0.025,-0.011,-0.029,-0.038,-1.577,-0.003,-1.527,27.72,86.5,40.505917,-3.358264,599.4,4,5,276.7,0.703
28.64,1,-0.001,-0.024,-0.032,-0.014,-0.024,-0.033,-1.575,-0.003,-1.526,27.72,86.5,40.505917,-3.358264,599.4,4,5,276.7,0.703
28.75,1,0.005,0.004,-0.025,0.006,-0.02,-0.024,-1.574,-0.004,-1.524,28.73,87.8,40.505943,-3.358541,599.3,4,5,276.0,0.703
28.84,1,-0.029,-0.003,-0.041,-0.02,0.005,-0.037,-1.573,-0.004,-1.523,28.73,87.8,40.505943,-3.358541,599.3,4,5,276.0,0.703
28.94,1,-0.06,-0.018,-0.007,-0.039,-0.009,-0.025,-1.572,-0.003,-1.52,28.73,87.8,40.505943,-3.358541,599.3,4,5,276.0,0.703
29.04,1,-0.035,-0.034,-0.033,-0.027,-0.024,-0.019,-1.573,0.001,-1.518,28.73,87.8,40.505943,-3.358541,599.3,4,5,276.0,0.703
29.14,1,0.052,-0.075,-0.035,-0.003,-0.047,-0.034,-1.571,0.003,-1.515,28.73,87.8,40.505943,-3.358541,599.3,4,5,276.0,0.703
29.24,1,0.0,-0.056,0.037,0.007,-0.058,-0.003,-1.565,0.003,-1.513,28.73,87.8,40.505943,-3.358541,599.3,4,5,276.0,0.703
29.35,1,-0.001,-0.063,0.008,0.017,-0.063,0.013,-1.565,0.0,-1.511,28.73,87.8,40.505943,-3.358541,599.3,4,5,276.0,0.703
29.44,1,-0.0,-0.03,0.025,-0.025,-0.038,0.01,-1.566,-0.002,-1.509,28.73,87.8,40.505943,-3.358541,599.3,4,5,276.0,0.703
29.55,1,-0.019,0.001,-0.003,0.006,-0.026,0.008,-1.565,-0.0,-1.507,28.73,87.8,40.505943,-3.358541,599.3,4,5,276.0,0.703
29.64,1,-0.017,-0.033,0.022,-0.015,-0.025,0.014,-1.568,0.004,-1.504,28.73,87.8,40.505943,-3.358541,599.3,4,5,276.0,0.703
29.74,1,-0.031,-0.026,0.005,-0.02,-0.026,0.016,-1.573,0.007,-1.501,29.73,86.8,40.505962,-3.358822,599.0,3,5,275.3,1.406
29.84,1,-0.018,-0.037,0.022,-0.027,-0.027,0.012,-1.575,0.009,-1.499,29.73,86.8,40.505962,-3.358822,599.0,3,5,275.3,1.406
29.94,1,-0.024,-0.031,0.001,-0.017,-0.036,0.014,-1.575,0.011,-1.496,29.73,86.8,40.505962,-3.358822,599.0,3,5,275.3,1.406
30.04,1,0.052,-0.053,0.051,0.004,-0.039,0.022,-1.576,0.012,-1.493,29.73,86.8,40.505962,-3.358822,599.0,3,5,275.3,1.406
30.14,1,-0.076,-0.024,0.014,-0.015,-0.038,0.027,-1.58,0.013,-1.49,29.73,86.8,40.505962,-3.358822,599.0,3,5,275.3,1.406
30.25,1,0.041,-0.05,0.022,-0.004,-0.039,0.023,-1.582,0.016,-1.487,29.73,86.8,40.505962,-3.358822,599.0,3,5,275.3,1.406
30.35,1,-0.016,-0.029,-0.004,0.002,-0.037,0.011,-1.584,0.022,-1.484,29.73,86.8,40.505962,-3.358822,599.0,3,5,275.3,1.406
30.45,1,0.012,-0.046,0.013,-0.002,-0.038,0.009,-1.587,0.028,-1.48,29.73,86.8,40.505962,-3.358822,599.0,3,5,275.3,1.406
30.55,1,0.005,-0.035,-0.005,0.006,-0.041,0.003,-1.59,0.029,-1.476,29.73,86.8,40.505962,-3.358822,599.0,3,5,275.3,1.406
30.65,1,0.024,-0.026,-0.003,0.009,-0.031,0.0,-1.589,0.03,-1.473,29.73,86.8,40.505962,-3.358822,599.0,3,5,275.3,1.406
30.75,1,-0.036,-0.019,-0.002,-0.007,-0.024,-0.004,-1.588,0.033,-1.469,30.76,86.8,40.505978,-3.359105,598.5,3,5,274.9,1.055
30.85,1,-0.041,-0.037,0.019,-0.028,-0.031,0.007,-1.588,0.036,-1.465,30.76,86.8,40.505978,-3.359105,598.5,3,5,274.9,1.055
30.95,1,-0.04,-0.009,0.002,-0.033,-0.023,0.008,-1.591,0.04,-1.461,30.76,86.8,40.505978,-3.359105,598.5,3,5,274.9,1.055
31.05,1,0.027,-0.046,0.041,-0.008,-0.03,0.021,-1.595,0.04,-1.458,30.76,86.8,40.505978,-3.359105,598.5,3,5,274.9,1.055
31.15,1,-0.035,-0.043,-0.003,-0.024,-0.039,0.017,-1.598,0.038,-1.454,30.76,86.8,40.505978,-3.359105,598.5,3,5,274.9,1.055
31.25,1,-0.027,0.005,0.001,-0.009,-0.023,0.007,-1.599,0.039,-1.451,30.76,86.8,40.505978,-3.359105,598.5,3,5,274.9,1.055
31.35,1,-0.015,0.002,0.005,-0.022,-0.003,-0.002,-1.601,0.042,-1.446,30.76,86.8,40.505978,-3.359105,598.5,3,5,274.9,1.055
31.45,1,-0.025,-0.041,0.008,-0.022,-0.019,0.007,-1.6,0.043,-1.443,30.76,86.8,40.505978,-3.359105,598.5,3,5,274.9,1.055
31.55,1,-0.042,-0.029,0.022,-0.03,-0.027,0.015,-1.599,0.046,-1.44,30.76,86.8,40.505978,-3.359105,598.5,3,5,274.9,1.055
31.65,1,-0.021,-0.001,0.029,-0.026,-0.018,0.017,-1.6,0.048,-1.437,30.76,86.8,40.505978,-3.359105,598.5,3,5,274.9,1.055
31.75,1,-0.007,0.011,0.031,-0.021,-0.001,0.03,-1.603,0.05,-1.434,31.72,86.8,40.505993,-3.359389,598.5,3,5,273.5,1.758
31.85,1,0.008,0.009,0.023,-0.007,0.008,0.025,-1.605,0.049,-1.431,31.72,86.8,40.505993,-3.359389,598.5,3,5,273.5,1.758
31.96,1,-0.01,0.007,0.041,-0.006,0.005,0.03,-1.607,0.049,-1.428,31.72,86.8,40.505993,-3.359389,598.5,3,5,273.5,1.758
32.06,1,0.015,0.009,0.035,-0.001,0.009,0.04,-1.613,0.046,-1.424,31.72,86.8,40.505993,-3.359389,598.5,3,5,273.5,1.758
32.15,1,-0.01,0.009,0.027,0.009,0.006,0.032,-1.615,0.047,-1.421,31.72,86.8,40.505993,-3.359389,598.5,3,5,273.5,1.758
32.25,1,-0.022,0.006,0.034,-0.011,0.007,0.03,-1.616,0.05,-1.418,31.72,86.8,40.505993,-3.359389,598.5,3,5,273.5,1.758
32.35,1,-0.048,0.004,0.011,-0.025,0.007,0.021,-1.618,0.052,-1.415,31.72,86.8,40.505993,-3.359389,598.5,3,5,273.5,1.758
32.46,1,-0.003,0.017,0.052,-0.026,0.009,0.035,-1.62,0.05,-1.412,31.72,86.8,40.505993,-3.359389,598.5,3,5,273.5,1.758
32.55,1,-0.017,0.035,0.021,-0.017,0.022,0.031,-1.624,0.048,-1.406,31.72,86.8,40.505993,-3.359389,598.5,3,5,273.5,1.758
32.65,1,-0.032,-0.008,0.003,-0.02,0.018,0.018,-1.627,0.048,-1.402,31.72,86.8,40.505993,-3.359389,598.5,3,5,273.5,1.758
32.75,1,-0.058,-0.042,0.043,-0.043,-0.017,0.023,-1.632,0.049,-1.399,32.72,87.9,40.505997,-3.359673,598.7,3,5,271.4,3.516
32.86,1,-0.015,-0.03,0.009,-0.023,-0.031,0.025,-1.635,0.05,-1.395,32.72,87.9,40.505997,-3.359673,598.7,3,5,271.4,3.516
32.95,1,-0.041,-0.021,0.018,-0.042,-0.02,0.014,-1.635,0.053,-1.39,32.72,87.9,40.505997,-3.359673,598.7,3,5,271.4,3.516
33.06,1,-0.036,-0.05,0.02,-0.029,-0.038,0.018,-1.638,0.056,-1.385,32.72,87.9,40.505997,-3.359673,598.7,3,5,271.4,3.516
33.16,1,-0.054,-0.012,0.001,-0.051,-0.027,0.013,-1.638,0.058,-1.38,32.72,87.9,40.505997,-3.359673,598.7,3,5,271.4,3.516
33.26,1,-0.008,-0.056,0.018,-0.03,-0.041,0.012,-1.642,0.062,-1.374,32.72,87.9,40.505997,-3.359673,598.7,3,5,271.4,3.516
33.35,1,0.02,-0.067,0.004,-0.012,-0.048,0.006,-1.642,0.064,-1.369,32.72,87.9,40.505997,-3.359673,598.7,3,5,271.4,3.516
33.45,1,0.023,-0.037,-0.001,0.018,-0.047,0.002,-1.64,0.064,-1.365,32.72,87.9,40.505997,-3.359673,598.7,3,5,271.4,3.516
33.56,1,-0.02,-0.026,0.009,0.005,-0.036,0.004,-1.641,0.063,-1.36,32.72,87.9,40.505997,-3.359673,598.7,3,5,271.4,3.516
33.66,1,-0.05,-0.015,-0.015,-0.018,-0.027,0.004,-1.641,0.064,-1.355,32.72,87.9,40.505997,-3.359673,598.7,3,5,271.4,3.516
33.76,1,-0.078,-0.014,0.016,-0.058,-0.024,0.002,-1.64,0.066,-1.351,33.79,92.4,40.505993,-3.35998,598.8,3,5,268.6,4.922
33.86,1,-0.06,0.012,0.0,-0.069,-0.006,0.008,-1.641,0.069,-1.347,33.79,92.4,40.505993,-3.35998,598.8,3,5,268.6,4.922
33.96,1,-0.012,0.003,0.013,-0.037,0.004,-0.001,-1.642,0.068,-1.343,33.79,92.4,40.505993,-3.35998,598.8,3,5,268.6,4.922
34.06,1,-0.0,-0.006,0.023,-0.019,0.002,0.015,-1.642,0.07,-1.339,33.79,92.4,40.505993,-3.35998,598.8,3,5,268.6,4.922
34.16,1,0.041,-0.003,0.004,0.01,-0.009,0.018,-1.642,0.071,-1.334,33.79,92.4,40.505993,-3.35998,598.8,3,5,268.6,4.922
34.26,1,-0.036,0.022,-0.011,-0.002,0.006,-0.003,-1.64,0.07,-1.332,33.79,92.4,40.505993,-3.35998,598.8,3,5,268.6,4.922
34.37,1,-0.029,0.06,0.011,-0.021,0.029,0.004,-1.642,0.065,-1.33,33.79,92.4,40.505993,-3.35998,598.8,3,5,268.6,4.922
34.46,1,-0.048,0.034,-0.021,-0.029,0.043,-0.006,-1.641,0.065,-1.327,33.79,92.4,40.505993,-3.35998,598.8,3,5,268.6,4.922
34.56,1,-0.026,0.004,0.033,-0.044,0.028,0.009,-1.644,0.067,-1.324,33.79,92.4,40.505993,-3.35998,598.8,3,5,268.6,4.922
34.66,1,0.053,0.023,0.0,0.005,0.016,0.014,-1.643,0.068,-1.322,33.79,92.4,40.505993,-3.35998,598.8,3,5,268.6,4.922
34.76,1,0.013,0.057,-0.022,0.019,0.036,-0.004,-1.642,0.06,-1.321,34.72,94.0,40.505981,-3.360293,598.9,3,5,266.1,5.273
34.86,1,-0.071,0.076,-0.026,-0.017,0.056,-0.016,-1.642,0.051,-1.32,34.72,94.0,40.505981,-3.360293,598.9,3,5,266.1,5.273
34.96,1,-0.139,0.051,-0.006,-0.075,0.056,-0.02,-1.643,0.048,-1.318,34.72,94.0,40.505981,-3.360293,598.9,3,5,266.1,5.273
35.06,1,-0.122,0.048,-0.004,-0.114,0.054,-0.004,-1.646,0.046,-1.316,34.72,94.0,40.505981,-3.360293,598.9,3,5,266.1,5.273
35.16,1,-0.025,0.02,0.027,-0.082,0.039,0.002,-1.647,0.045,-1.314,34.72,94.0,40.505981,-3.360293,598.9,3,5,266.1,5.273
35.26,1,0.046,0.041,0.011,-0.016,0.032,0.015,-1.646,0.044,-1.313,34.72,94.0,40.505981,-3.360293,598.9,3,5,266.1,5.273
35.36,1,0.034,0.032,-0.001,0.021,0.037,0.004,-1.644,0.041,-1.312,34.72,94.0,40.505981,-3.360293,598.9,3,5,266.1,5.273
35.46,1,-0.018,0.045,-0.023,0.009,0.038,-0.001,-1.645,0.038,-1.311,34.72,94.0,40.505981,-3.360293,598.9,3,5,266.1,5.273
35.56,1,-0.049,0.04,0.016,-0.019,0.046,-0.008,-1.645,0.034,-1.31,34.72,94.0,40.505981,-3.360293,598.9,3,5,266.1,5.273
35.67,1,0.003,0.022,0.004,-0.016,0.032,0.01,-1.645,0.034,-1.308,34.72,94.0,40.505981,-3.360293,598.9,3,5,266.1,5.273
35.76,1,-0.044,0.023,-0.028,-0.023,0.025,-0.011,-1.641,0.035,-1.305,35.77,97.0,40.505959,-3.360599,599.5,3,5,264.7,3.867
35.86,1,0.009,-0.015,-0.021,-0.021,0.012,-0.018,-1.639,0.038,-1.303,35.77,97.0,40.505959,-3.360599,599.5,3,5,264.7,3.867
35.96,1,0.012,-0.019,-0.014,0.007,-0.012,-0.016,-1.639,0.037,-1.301,35.77,97.0,40.505959,-3.360599,599.5,3,5,264.7,3.867
36.06,1,0.006,0.03,0.004,0.004,0.005,-0.012,-1.638,0.034,-1.298,35.77,97.0,40.505959,-3.360599,599.5,3,5,264.7,3.867
36.17,1,0.028,0.019,0.036,0.014,0.018,0.015,-1.64,0.03,-1.296,35.77,97.0,40.505959,-3.360599,599.5,3,5,264.7,3.867
36.26,1,0.044,0.016,0.013,0.032,0.014,0.017,-1.639,0.028,-1.294,35.77,97.0,40.505959,-3.360599,599.5,3,5,264.7,3.867
36.36,1,0.024,0.013,0.015,0.037,0.019,0.019,-1.635,0.028,-1.292,35.77,97.0,40.505959,-3.360599,599.5,3,5,264.7,3.867
36.46,1,-0.012,-0.035,0.019,0.013,-0.006,0.018,-1.63,0.03,-1.29,35.77,97.0,40.505959,-3.360599,599.5,3,5,264.7,3.867
36.56,1,-0.089,0.009,0.031,-0.038,-0.01,0.023,-1.631,0.03,-1.288,35.77,97.0,40.505959,-3.360599,599.5,3,5,264.7,3.867
36.67,1,-0.087,0.04,0.043,-0.077,0.014,0.028,-1.632,0.026,-1.287,35.77,97.0,40.505959,-3.360599,599.5,3,5,264.7,3.867
36.76,1,-0.052,-0.006,-0.002,-0.07,0.021,0.028,-1.633,0.024,-1.286,36.75,98.7,40.505932,-3.360913,599.9,3,5,263.7,2.461
36.87,1,0.053,0.02,0.025,-0.014,0.006,0.017,-1.633,0.024,-1.283,36.75,98.7,40.505932,-3.360913,599.9,3,5,263.7,2.461
36.97,1,0.074,0.048,-0.001,0.034,0.018,0.009,-1.632,0.023,-1.285,36.75,98.7,40.505932,-3.360913,599.9,3,5,263.7,2.461
37.07,1,0.003,0.102,-0.025,0.043,0.072,-0.003,-1.631,0.023,-1.284,36.75,98.7,40.505932,-3.360913,599.9,3,5,263.7,2.461
37.17,1,0.0,0.063,0.002,0.014,0.074,-0.009,-1.631,0.023,-1.285,36.75,98.7,40.505932,-3.360913,599.9,3,5,263.7,2.461
37.27,1,-0.091,0.09,-0.009,-0.035,0.079,-0.005,-1.63,0.018,-1.285,36.75,98.7,40.505932,-3.360913,599.9,3,5,263.7,2.461
37.37,1,-0.006,0.058,-0.002,-0.033,0.076,-0.008,-1.629,0.012,-1.285,36.75,98.7,40.505932,-3.360913,599.9,3,5,263.7,2.461
37.47,1,-0.017,0.042,-0.008,-0.023,0.052,-0.006,-1.629,0.004,-1.283,36.75,98.7,40.505932,-3.360913,599.9,3,5,263.7,2.461
37.57,1,-0.024,0.028,0.009,-0.025,0.042,0.002,-1.632,0.0,-1.282,36.75,98.7,40.505932,-3.360913,599.9,3,5,263.7,2.461
37.67,1,-0.018,0.011,-0.003,-0.018,0.027,0.001,-1.632,-0.002,-1.281,36.75,98.7,40.505932,-3.360913,599.9,3,5,263.7,2.461
37.77,1,0.017,0.026,0.019,-0.007,0.023,0.009,-1.632,-0.004,-1.282,37.73,100.5,40.505905,-3.361243,600.4,3,5,262.6,2.109
37.87,1,-0.002,0.014,-0.023,0.003,0.018,-0.002,-1.63,-0.005,-1.281,37.73,100.5,40.505905,-3.361243,600.4,3,5,262.6,2.109
37.97,1,-0.033,0.014,-0.0,-0.014,0.018,-0.006,-1.628,-0.006,-1.281,37.73,100.5,40.505905,-3.361243,600.4,3,5,262.6,2.109
38.08,1,0.006,-0.004,0.02,-0.009,0.008,0.006,-1.63,-0.007,-1.279,37.73,100.5,40.505905,-3.361243,600.4,3,5,262.6,2.109
38.17,1,-0.014,-0.019,0.003,-0.009,-0.005,0.007,-1.632,-0.004,-1.277,37.73,100.5,40.505905,-3.361243,600.4,3,5,262.6,2.109
38.27,1,-0.018,-0.02,0.001,-0.014,-0.014,0.006,-1.632,-0.002,-1.275,37.73,100.5,40.505905,-3.361243,600.4,3,5,262.6,2.109
38.37,1,-0.009,-0.019,-0.004,-0.014,-0.021,-0.002,-1.633,0.001,-1.272,37.73,100.5,40.505905,-3.361243,600.4,3,5,262.6,2.109
38.47,1,0.009,-0.044,-0.006,-0.004,-0.03,-0.003,-1.633,0.004,-1.27,37.73,100.5,40.505905,-3.361243,600.4,3,5,262.6,2.109
38.57,1,-0.041,-0.008,-0.019,-0.007,-0.029,-0.009,-1.631,0.004,-1.268,37.73,100.5,40.505905,-3.361243,600.4,3,5,262.6,2.109
38.67,1,-0.001,-0.015,0.016,-0.024,-0.011,-0.004,-1.633,0.006,-1.267,37.73,100.5,40.505905,-3.361243,600.4,3,5,262.6,2.109
38.77,1,-0.032,0.014,-0.012,-0.023,0.002,-0.002,-1.634,0.007,-1.264,38.79,101.9,40.505871,-3.361573,601.0,3,5,262.3,1.406
38.87,1,0.013,-0.019,-0.009,-0.005,-0.01,-0.006,-1.634,0.008,-1.262,38.79,101.9,40.505871,-3.361573,601.0,3,5,262.3,1.406
38.97,1,-0.066,0.005,-0.005,-0.028,-0.004,-0.009,-1.634,0.012,-1.26,38.79,101.9,40.505871,-3.361573,601.0,3,5,262.3,1.406
39.07,1,0.035,-0.017,0.011,-0.012,-0.008,0.005,-1.634,0.014,-1.258,38.79,101.9,40.505871,-3.361573,601.0,3,5,262.3,1.406
39.17,1,0.004,-0.002,-0.003,0.003,-0.004,0.002,-1.632,0.014,-1.257,38.79,101.9,40.505871,-3.361573,601.0,3,5,262.3,1.406
39.28,1,-0.012,0.003,-0.022,0.007,-0.003,-0.01,-1.63,0.012,-1.255,38.79,101.9,40.505871,-3.361573,601.0,3,5,262.3,1.406
39.37,1,-0.048,-0.005,0.003,-0.021,-0.002,-0.01,-1.63,0.011,-1.252,38.79,101.9,40.505871,-3.361573,601.0,3,5,262.3,1.406
39.47,1,0.005,-0.022,0.025,-0.022,-0.011,0.009,-1.632,0.012,-1.25,38.79,101.9,40.505871,-3.361573,601.0,3,5,262.3,1.406
39.57,1,0.005,-0.017,-0.007,-0.005,-0.019,0.005,-1.632,0.012,-1.248,38.79,101.9,40.505871,-3.361573,601.0,3,5,262.3,1.406
39.67,1,-0.025,-0.004,0.0,-0.008,-0.013,-0.001,-1.63,0.011,-1.246,38.79,101.9,40.505871,-3.361573,601.0,3,5,262.3,1.406
39.77,1,-0.033,0.005,-0.007,-0.029,0.005,-0.001,-1.629,0.009,-1.244,39.72,103.9,40.505833,-3.361901,601.6,3,5,260.5,2.109
39.87,1,-0.016,-0.023,-0.007,-0.016,-0.009,-0.0,-1.627,0.007,-1.242,39.72,103.9,40.505833,-3.361901,601.6,3,5,260.5,2.109
39.98,1,0.018,0.006,-0.035,-0.001,-0.007,-0.022,-1.624,0.008,-1.24,39.72,103.9,40.505833,-3.361901,601.6,3,5,260.5,2.109
40.07,1,-0.014,-0.013,-0.029,-0.002,-0.008,-0.028,-1.622,0.009,-1.238,39.72,103.9,40.505833,-3.361901,601.6,3,5,260.5,2.109
40.17,1,-0.011,-0.001,-0.02,-0.019,-0.008,-0.023,-1.62,0.007,-1.235,39.72,103.9,40.505833,-3.361901,601.6,3,5,260.5,2.109
40.28,1,0.032,0.013,-0.016,0.017,-0.002,-0.016,-1.619,0.007,-1.234,39.72,103.9,40.505833,-3.361901,601.6,3,5,260.5,2.109
40.38,1,0.003,-0.006,-0.031,0.011,0.004,-0.024,-1.616,0.008,-1.232,39.72,103.9,40.505833,-3.361901,601.6,3,5,260.5,2.109
40.48,1,-0.027,0.009,-0.032,-0.007,0.003,-0.034,-1.613,0.007,-1.23,39.72,103.9,40.505833,-3.361901,601.6,3,5,260.5,2.109
40.58,1,-0.022,0.007,-0.019,-0.017,0.003,-0.022,-1.614,0.007,-1.228,39.72,103.9,40.505833,-3.361901,601.6,3,5,260.5,2.109
40.68,1,0.042,-0.01,-0.013,-0.003,0.005,-0.021,-1.612,0.01,-1.226,39.72,103.9,40.505833,-3.361901,601.6,3,5,260.5,2.109
40.78,1,-0.04,-0.003,-0.044,-0.008,-0.004,-0.027,-1.608,0.011,-1.224,40.82,105.0,40.505783,-3.362241,604.0,3,5,258.8,3.516
40.88,1,-0.006,-0.018,0.003,-0.011,-0.008,-0.015,-1.607,0.015,-1.222,40.82,105.0,40.505783,-3.362241,604.0,3,5,258.8,3.516
40.98,1,-0.026,-0.018,-0.019,-0.01,-0.009,-0.02,-1.607,0.017,-1.219,40.82,105.0,40.505783,-3.362241,604.0,3,5,258.8,3.516
41.08,1,-0.074,0.004,-0.03,-0.039,-0.013,-0.019,-1.607,0.016,-1.217,40.82,105.0,40.505783,-3.362241,604.0,3,5,258.8,3.516
41.19,1,-0.038,0.002,-0.017,-0.047,-0.006,-0.025,-1.603,0.014,-1.215,40.82,105.0,40.505783,-3.362241,604.0,3,5,258.8,3.516
41.28,1,0.02,0.009,-0.005,-0.021,0.01,-0.01,-1.6,0.014,-1.213,40.82,105.0,40.505783,-3.362241,604.0,3,5,258.8,3.516
41.38,1,0.024,-0.022,-0.026,0.01,-0.008,-0.017,-1.597,0.019,-1.21,40.82,105.0,40.505783,-3.362241,604.0,3,5,258.8,3.516
41.48,1,-0.005,-0.009,0.005,0.003,-0.01,-0.011,-1.594,0.022,-1.208,40.82,105.0,40.505783,-3.362241,604.0,3,5,258.8,3.516
41.58,1,-0.021,0.003,0.013,-0.009,-0.006,0.002,-1.595,0.021,-1.207,40.82,105.0,40.505783,-3.362241,604.0,3,5,258.8,3.516
41.68,1,-0.026,-0.017,-0.003,-0.014,-0.006,0.007,-1.593,0.021,-1.205,40.82,105.0,40.505783,-3.362241,604.0,3,5,258.8,3.516
41.78,1,-0.007,-0.008,0.019,-0.017,-0.011,0.008,-1.595,0.019,-1.203,41.75,104.9,40.505711,-3.362574,602.4,3,5,257.0,3.516
41.88,1,-0.007,0.007,0.013,-0.007,-0.004,0.01,-1.595,0.02,-1.2,41.75,104.9,40.505711,-3.362574,602.4,3,5,257.0,3.516
41.98,1,-0.012,0.002,-0.0,-0.014,0.005,0.008,-1.595,0.021,-1.198,41.75,104.9,40.505711,-3.362574,602.4,3,5,257.0,3.516
42.08,1,-0.015,-0.008,0.015,-0.012,-0.004,0.006,-1.597,0.022,-1.196,41.75,104.9,40.505711,-3.362574,602.4,3,5,257.0,3.516
42.19,1,-0.004,0.017,0.023,-0.011,0.004,0.017,-1.599,0.022,-1.194,41.75,104.9,40.505711,-3.362574,602.4,3,5,257.0,3.516
42.29,1,0.033,0.029,0.018,-0.002,0.017,0.018,-1.601,0.023,-1.192,41.75,104.9,40.505711,-3.362574,602.4,3,5,257.0,3.516
42.38,1,-0.006,0.016,0.021,0.015,0.018,0.022,-1.6,0.022,-1.191,41.75,104.9,40.505711,-3.362574,602.4,3,5,257.0,3.516
42.48,1,-0.013,-0.019,0.026,0.002,-0.001,0.022,-1.602,0.018,-1.19,41.75,104.9,40.505711,-3.362574,602.4,3,5,257.0,3.516
42.58,1,-0.014,0.033,0.026,-0.008,0.011,0.023,-1.603,0.014,-1.189,41.75,104.9,40.505711,-3.362574,602.4,3,5,257.0,3.516
42.68,1,-0.036,0.052,0.009,-0.019,0.037,0.018,-1.606,0.009,-1.188,41.75,104.9,40.505711,-3.362574,602.4,3,5,257.0,3.516
42.78,1,-0.027,0.026,0.032,-0.029,0.032,0.021,-1.609,0.009,-1.187,42.77,104.8,40.505646,-3.362894,602.6,4,5,255.6,3.164
42.88,1,0.014,0.01,0.007,-0.014,0.019,0.018,-1.61,0.009,-1.186,42.77,104.8,40.505646,-3.362894,602.6,4,5,255.6,3.164
42.99,1,-0.027,0.017,0.01,-0.004,0.015,0.014,-1.612,0.008,-1.185,42.77,104.8,40.505646,-3.362894,602.6,4,5,255.6,3.164
43.08,1,-0.001,0.009,0.012,-0.02,0.015,0.012,-1.612,0.007,-1.184,42.77,104.8,40.505646,-3.362894,602.6,4,5,255.6,3.164
43.18,1,-0.042,0.028,0.007,-0.017,0.02,0.009,-1.61,0.004,-1.183,42.77,104.8,40.505646,-3.362894,602.6,4,5,255.6,3.164
43.28,1,0.02,0.016,-0.002,-0.007,0.021,0.005,-1.61,0.004,-1.182,42.77,104.8,40.505646,-3.362894,602.6,4,5,255.6,3.164
43.38,1,-0.028,0.009,0.005,-0.006,0.014,0.003,-1.608,0.004,-1.181,42.77,104.8,40.505646,-3.362894,602.6,4,5,255.6,3.164
43.49,1,-0.039,-0.01,-0.005,-0.031,0.007,-0.002,-1.608,0.006,-1.179,42.77,104.8,40.505646,-3.362894,602.6,4,5,255.6,3.164
43.6,1,-0.022,-0.04,0.001,-0.033,-0.018,0.0,-1.606,0.008,-1.177,42.77,104.8,40.505646,-3.362894,602.6,4,5,255.6,3.164
43.69,1,0.013,-0.019,-0.005,-0.005,-0.026,-0.0,-1.606,0.011,-1.175,42.77,104.8,40.505646,-3.362894,602.6,4,5,255.6,3.164
43.99,1,0.0,-0.01,-0.005,0.003,-0.01,-0.006,-1.606,0.016,-1.168,43.74,105.9,40.505581,-3.363222,603.6,4,5,254.2,2.812
44.09,1,-0.017,-0.02,-0.002,-0.007,-0.014,-0.003,-1.605,0.016,-1.166,43.74,105.9,40.505581,-3.363222,603.6,4,5,254.2,2.812
44.19,1,-0.027,0.002,-0.012,-0.016,-0.01,-0.008,-1.603,0.018,-1.164,43.74,105.9,40.505581,-3.363222,603.6,4,5,254.2,2.812
44.29,1,-0.012,-0.004,0.004,-0.019,-0.006,-0.004,-1.603,0.02,-1.162,43.74,105.9,40.505581,-3.363222,603.6,4,5,254.2,2.812
44.39,1,0.036,-0.011,0.009,0.004,-0.002,0.003,-1.602,0.022,-1.16,43.74,105.9,40.505581,-3.363222,603.6,4,5,254.2,2.812
44.49,1,-0.035,0.019,-0.012,-0.005,0.002,0.002,-1.6,0.021,-1.158,43.74,105.9,40.505581,-3.363222,603.6,4,5,254.2,2.812
44.59,1,0.049,-0.015,0.013,0.014,-0.002,0.002,-1.599,0.021,-1.156,43.74,105.9,40.505581,-3.363222,603.6,4,5,254.2,2.812
44.69,1,-0.03,-0.029,0.001,-0.009,-0.009,-0.001,-1.598,0.019,-1.155,43.74,105.9,40.505581,-3.363222,603.6,4,5,254.2,2.812
44.79,1,-0.017,0.004,-0.004,-0.006,-0.015,0.002,-1.598,0.022,-1.153,43.74,105.9,40.505581,-3.363222,603.6,4,5,254.2,2.812
44.89,1,0.014,-0.006,0.006,-0.004,-0.006,0.002,-1.599,0.021,-1.151,43.74,105.9,40.505581,-3.363222,603.6,4,5,254.2,2.812
44.99,1,0.021,-0.014,0.01,0.017,-0.011,0.006,-1.598,0.022,-1.148,44.75,104.8,40.505505,-3.36356,605.2,4,5,253.5,2.109
45.09,1,-0.023,0.001,-0.017,-0.0,-0.008,-0.003,-1.598,0.023,-1.146,44.75,104.8,40.505505,-3.36356,605.2,4,5,253.5,2.109
45.19,1,-0.029,0.003,0.015,-0.017,-0.001,0.003,-1.598,0.023,-1.144,44.75,104.8,40.505505,-3.36356,605.2,4,5,253.5,2.109
45.29,1,0.01,-0.038,-0.009,-0.013,-0.012,0.001,-1.597,0.022,-1.142,44.75,104.8,40.505505,-3.36356,605.2,4,5,253.5,2.109
45.4,1,-0.016,-0.027,0.007,-0.003,-0.03,-0.001,-1.596,0.02,-1.14,44.75,104.8,40.505505,-3.36356,605.2,4,5,253.5,2.109
45.49,1,-0.018,0.008,-0.025,-0.014,-0.013,-0.007,-1.597,0.019,-1.138,44.75,104.8,40.505505,-3.36356,605.2,4,5,253.5,2.109
45.59,1,-0.043,0.001,0.02,-0.024,0.002,-0.001,-1.596,0.021,-1.136,44.75,104.8,40.505505,-3.36356,605.2,4,5,253.5,2.109
45.7,1,0.03,-0.027,-0.018,-0.008,-0.014,-0.001,-1.595,0.022,-1.135,44.75,104.8,40.505505,-3.36356,605.2,4,5,253.5,2.109
45.79,1,-0.001,-0.011,-0.013,0.007,-0.016,-0.01,-1.593,0.024,-1.133,44.75,104.8,40.505505,-3.36356,605.2,4,5,253.5,2.109
45.91,1,-0.046,0.004,-0.007,-0.023,-0.006,-0.008,-1.593,0.023,-1.13,44.75,104.8,40.505505,-3.36356,605.2,4,5,253.5,2.109
46.0,1,0.006,0.001,-0.018,-0.013,0.001,-0.017,-1.591,0.024,-1.129,45.71,107.6,40.505421,-3.36389,605.9,4,5,250.7,3.516
46.1,1,-0.002,-0.007,-0.02,-0.009,-0.004,-0.019,-1.589,0.027,-1.126,45.71,107.6,40.505421,-3.36389,605.9,4,5,250.7,3.516
46.2,1,-0.023,-0.005,-0.029,-0.011,-0.004,-0.02,-1.587,0.029,-1.124,45.71,107.6,40.505421,-3.36389,605.9,4,5,250.7,3.516
46.3,1,-0.052,0.002,-0.024,-0.027,-0.003,-0.022,-1.585,0.032,-1.122,45.71,107.6,40.505421,-3.36389,605.9,4,5,250.7,3.516
46.39,1,0.029,-0.026,-0.021,-0.015,-0.011,-0.02,-1.585,0.034,-1.121,45.71,107.6,40.505421,-3.36389,605.9,4,5,250.7,3.516
46.49,1,-0.033,0.045,-0.035,-0.012,0.006,-0.032,-1.581,0.031,-1.119,45.71,107.6,40.505421,-3.36389,605.9,4,5,250.7,3.516
46.59,1,-0.009,0.021,-0.014,-0.012,0.026,-0.025,-1.58,0.032,-1.117,45.71,107.6,40.505421,-3.36389,605.9,4,5,250.7,3.516
46.69,1,-0.017,-0.005,-0.024,-0.022,0.011,-0.021,-1.579,0.028,-1.115,45.71,107.6,40.505421,-3.36389,605.9,4,5,250.7,3.516
46.79,1,0.011,-0.022,-0.024,-0.0,-0.005,-0.025,-1.576,0.027,-1.113,45.71,107.6,40.505421,-3.36389,605.9,4,5,250.7,3.516
46.89,1,0.01,0.01,-0.03,0.006,-0.003,-0.022,-1.575,0.029,-1.112,45.71,107.6,40.505421,-3.36389,605.9,4,5,250.7,3.516
46.99,1,0.002,-0.0,-0.027,0.006,-0.0,-0.03,-1.572,0.03,-1.11,46.73,108.3,40.505325,-3.364219,606.8,4,5,248.2,5.273
47.1,1,-0.064,0.025,-0.018,-0.02,0.01,-0.023,-1.57,0.029,-1.109,46.73,108.3,40.505325,-3.364219,606.8,4,5,248.2,5.273
47.2,1,-0.017,0.012,-0.011,-0.037,0.016,-0.019,-1.568,0.029,-1.107,46.73,108.3,40.505325,-3.364219,606.8,4,5,248.2,5.273
47.3,1,0.016,0.015,0.004,-0.008,0.012,-0.008,-1.565,0.027,-1.106,46.73,108.3,40.505325,-3.364219,606.8,4,5,248.2,5.273
47.4,1,0.011,0.025,-0.018,0.009,0.016,-0.009,-1.563,0.025,-1.104,46.73,108.3,40.505325,-3.364219,606.8,4,5,248.2,5.273
47.5,1,-0.012,0.012,-0.006,0.003,0.017,-0.006,-1.563,0.025,-1.103,46.73,108.3,40.505325,-3.364219,606.8,4,5,248.2,5.273
47.6,1,0.023,0.013,-0.002,0.005,0.014,-0.009,-1.564,0.025,-1.101,46.73,108.3,40.505325,-3.364219,606.8,4,5,248.2,5.273
47.7,1,-0.037,0.026,-0.011,-0.004,0.018,-0.007,-1.561,0.022,-1.1,46.73,108.3,40.505325,-3.364219,606.8,4,5,248.2,5.273
47.8,1,-0.047,0.017,-0.017,-0.034,0.021,-0.01,-1.561,0.023,-1.099,46.73,108.3,40.505325,-3.364219,606.8,4,5,248.2,5.273
47.9,1,0.01,-0.004,0.012,-0.023,0.008,-0.005,-1.562,0.023,-1.097,46.73,108.3,40.505325,-3.364219,606.8,4,5,248.2,5.273
48.0,1,-0.006,0.03,0.021,-0.005,0.016,0.011,-1.564,0.023,-1.096,47.77,108.2,40.505219,-3.364551,606.0,4,5,246.8,3.867
48.1,1,0.017,0.021,-0.002,0.005,0.021,0.006,-1.566,0.024,-1.094,47.77,108.2,40.505219,-3.364551,606.0,4,5,246.8,3.867
48.2,1,0.041,-0.012,0.005,0.02,0.007,0.006,-1.567,0.025,-1.093,47.77,108.2,40.505219,-3.364551,606.0,4,5,246.8,3.867
48.3,1,0.018,0.01,-0.003,0.021,0.002,0.002,-1.569,0.026,-1.091,47.77,108.2,40.505219,-3.364551,606.0,4,5,246.8,3.867
48.4,1,-0.027,0.013,0.015,0.007,0.009,0.002,-1.567,0.022,-1.089,47.77,108.2,40.505219,-3.364551,606.0,4,5,246.8,3.867
48.5,1,-0.059,0.007,0.014,-0.036,0.014,0.008,-1.567,0.02,-1.087,47.77,108.2,40.505219,-3.364551,606.0,4,5,246.8,3.867
48.6,1,-0.0,-0.013,0.037,-0.022,-0.001,0.027,-1.57,0.022,-1.085,47.77,108.2,40.505219,-3.364551,606.0,4,5,246.8,3.867
48.7,1,0.042,-0.029,0.005,0.004,-0.013,0.019,-1.571,0.026,-1.083,47.77,108.2,40.505219,-3.364551,606.0,4,5,246.8,3.867
48.8,1,-0.014,-0.018,0.027,0.01,-0.021,0.019,-1.573,0.03,-1.08,47.77,108.2,40.505219,-3.364551,606.0,4,5,246.8,3.867
48.9,1,-0.014,-0.04,0.009,-0.009,-0.022,0.019,-1.574,0.033,-1.078,47.77,108.2,40.505219,-3.364551,606.0,4,5,246.8,3.867
49.0,1,-0.004,-0.044,0.013,0.002,-0.039,0.011,-1.575,0.036,-1.075,48.75,107.7,40.505112,-3.364872,603.2,4,5,245.0,3.164
49.1,1,0.004,-0.049,0.032,-0.0,-0.045,0.022,-1.578,0.041,-1.071,48.75,107.7,40.505112,-3.364872,603.2,4,5,245.0,3.164
49.2,1,-0.044,-0.03,0.009,-0.016,-0.042,0.02,-1.58,0.043,-1.067,48.75,107.7,40.505112,-3.364872,603.2,4,5,245.0,3.164
49.3,1,-0.024,-0.02,0.031,-0.032,-0.026,0.021,-1.584,0.044,-1.064,48.75,107.7,40.505112,-3.364872,603.2,4,5,245.0,3.164
49.4,1,0.019,-0.024,0.02,-0.009,-0.027,0.024,-1.587,0.048,-1.06,48.75,107.7,40.505112,-3.364872,603.2,4,5,245.0,3.164
49.51,1,0.004,-0.005,0.011,0.004,-0.016,0.017,-1.587,0.054,-1.056,48.75,107.7,40.505112,-3.364872,603.2,4,5,245.0,3.164
49.6,1,0.008,-0.047,0.021,0.011,-0.028,0.018,-1.588,0.054,-1.053,48.75,107.7,40.505112,-3.364872,603.2,4,5,245.0,3.164
49.7,1,-0.044,-0.014,0.015,-0.014,-0.028,0.015,-1.588,0.053,-1.051,48.75,107.7,40.505112,-3.364872,603.2,4,5,245.0,3.164
49.8,1,-0.074,-0.0,-0.003,-0.054,-0.013,0.007,-1.589,0.052,-1.046,48.75,107.7,40.505112,-3.364872,603.2,4,5,245.0,3.164
49.91,1,0.002,-0.006,0.026,-0.038,-0.011,0.014,-1.594,0.053,-1.043,48.75,107.7,40.505112,-3.364872,603.2,4,5,245.0,3.164
50.0,1,0.024,0.013,0.005,0.005,0.004,0.014,-1.591,0.053,-1.041,49.74,108.0,40.50499,-3.365185,604.1,4,5,242.9,3.867
50.1,1,-0.031,-0.003,0.008,-0.004,0.003,0.011,-1.593,0.051,-1.038,49.74,108.0,40.50499,-3.365185,604.1,4,5,242.9,3.867
50.21,1,-0.005,-0.011,0.021,-0.012,-0.002,0.011,-1.596,0.052,-1.036,49.74,108.0,40.50499,-3.365185,604.1,4,5,242.9,3.867
50.31,1,-0.033,0.017,0.001,-0.022,0.003,0.009,-1.597,0.047,-1.034,49.74,108.0,40.50499,-3.365185,604.1,4,5,242.9,3.867
50.41,1,0.005,0.029,0.02,-0.005,0.015,0.012,-1.597,0.045,-1.033,49.74,108.0,40.50499,-3.365185,604.1,4,5,242.9,3.867
50.51,1,-0.042,0.04,0.018,-0.02,0.031,0.015,-1.599,0.042,-1.031,49.74,108.0,40.50499,-3.365185,604.1,4,5,242.9,3.867
50.61,1,0.074,0.012,0.015,0.014,0.024,0.018,-1.6,0.044,-1.029,49.74,108.0,40.50499,-3.365185,604.1,4,5,242.9,3.867
50.72,1,-0.013,0.03,-0.003,0.021,0.022,0.006,-1.598,0.042,-1.028,49.74,108.0,40.50499,-3.365185,604.1,4,5,242.9,3.867
50.81,1,-0.028,0.041,0.017,-0.014,0.034,0.01,-1.599,0.04,-1.027,49.74,108.0,40.50499,-3.365185,604.1,4,5,242.9,3.867
50.91,1,-0.034,0.04,0.008,-0.025,0.038,0.013,-1.601,0.036,-1.027,49.74,108.0,40.50499,-3.365185,604.1,4,5,242.9,3.867
51.01,1,-0.003,0.04,0.003,-0.018,0.041,0.007,-1.601,0.034,-1.025,50.75,110.1,40.504864,-3.365508,604.3,4,5,240.5,4.57
51.11,1,-0.011,0.058,0.001,-0.008,0.047,0.006,-1.602,0.034,-1.025,50.75,110.1,40.504864,-3.365508,604.3,4,5,240.5,4.57
51.21,1,-0.027,0.034,0.026,-0.024,0.043,0.011,-1.603,0.034,-1.024,50.75,110.1,40.504864,-3.365508,604.3,4,5,240.5,4.57
51.31,1,-0.003,0.045,0.014,-0.014,0.04,0.019,-1.605,0.031,-1.024,50.75,110.1,40.504864,-3.365508,604.3,4,5,240.5,4.57
51.41,1,-0.03,0.036,-0.015,-0.019,0.044,-0.0,-1.605,0.031,-1.023,50.75,110.1,40.504864,-3.365508,604.3,4,5,240.5,4.57
51.52,1,0.008,0.048,0.024,-0.009,0.039,0.006,-1.606,0.031,-1.023,50.75,110.1,40.504864,-3.365508,604.3,4,5,240.5,4.57
51.61,1,0.03,0.064,-0.007,0.011,0.052,0.006,-1.605,0.031,-1.029,50.75,110.1,40.504864,-3.365508,604.3,4,5,240.5,4.57
51.71,1,-0.026,0.039,-0.021,0.001,0.051,-0.008,-1.604,0.028,-1.027,50.75,110.1,40.504864,-3.365508,604.3,4,5,240.5,4.57
51.81,1,-0.003,0.037,0.002,-0.011,0.042,-0.008,-1.605,0.026,-1.022,50.75,110.1,40.504864,-3.365508,604.3,4,5,240.5,4.57
51.92,1,-0.024,0.065,0.017,-0.014,0.05,0.005,-1.606,0.023,-1.024,50.75,110.1,40.504864,-3.365508,604.3,4,5,240.5,4.57
52.01,1,-0.019,0.063,-0.011,-0.022,0.059,0.001,-1.603,0.024,-1.03,51.73,110.4,40.504719,-3.36582,604.3,4,5,238.7,4.219
52.11,1,-0.002,0.055,-0.009,-0.01,0.057,-0.007,-1.603,0.019,-1.03,51.73,110.4,40.504719,-3.36582,604.3,4,5,238.7,4.219
52.21,1,-0.007,0.03,0.016,-0.003,0.045,0.005,-1.606,0.018,-1.03,51.73,110.4,40.504719,-3.36582,604.3,4,5,238.7,4.219
52.31,1,-0.027,0.038,-0.013,-0.013,0.039,-0.002,-1.605,0.024,-1.032,51.73,110.4,40.504719,-3.36582,604.3,4,5,238.7,4.219
52.41,1,-0.002,0.022,0.005,-0.011,0.032,-0.004,-1.604,0.03,-1.029,51.73,110.4,40.504719,-3.36582,604.3,4,5,238.7,4.219
52.51,1,-0.006,0.034,-0.005,-0.006,0.029,0.002,-1.603,0.026,-1.032,51.73,110.4,40.504719,-3.36582,604.3,4,5,238.7,4.219
52.61,1,-0.016,0.028,-0.03,-0.006,0.027,-0.013,-1.599,0.021,-1.034,51.73,110.4,40.504719,-3.36582,604.3,4,5,238.7,4.219
52.72,1,0.037,0.013,-0.006,0.002,0.026,-0.019,-1.599,0.022,-1.035,51.73,110.4,40.504719,-3.36582,604.3,4,5,238.7,4.219
52.81,1,-0.06,0.061,0.001,-0.014,0.039,-0.003,-1.599,0.024,-1.036,51.73,110.4,40.504719,-3.36582,604.3,4,5,238.7,4.219
52.91,1,0.066,0.01,-0.012,0.003,0.035,-0.008,-1.597,0.024,-1.038,51.73,110.4,40.504719,-3.36582,604.3,4,5,238.7,4.219
53.01,1,-0.041,0.038,-0.013,0.001,0.033,-0.01,-1.594,0.025,-1.039,52.73,112.6,40.50457,-3.366134,605.0,4,5,237.7,2.812
53.12,1,0.007,0.026,0.005,-0.017,0.034,-0.008,-1.593,0.026,-1.041,52.73,112.6,40.50457,-3.366134,605.0,4,5,237.7,2.812
53.22,1,0.016,0.027,-0.003,0.018,0.02,0.002,-1.592,0.026,-1.042,52.73,112.6,40.50457,-3.366134,605.0,4,5,237.7,2.812
53.32,1,-0.01,0.018,-0.017,-0.005,0.026,-0.01,-1.589,0.024,-1.043,52.73,112.6,40.50457,-3.366134,605.0,4,5,237.7,2.812
53.42,1,0.033,0.0,0.01,0.018,0.01,-0.006,-1.588,0.027,-1.045,52.73,112.6,40.50457,-3.366134,605.0,4,5,237.7,2.812
53.51,1,-0.026,0.03,-0.02,0.009,0.02,0.003,-1.586,0.03,-1.047,52.73,112.6,40.50457,-3.366134,605.0,4,5,237.7,2.812
53.62,1,-0.063,0.022,-0.012,-0.032,0.026,-0.018,-1.584,0.03,-1.048,52.73,112.6,40.50457,-3.366134,605.0,4,5,237.7,2.812
53.72,1,0.031,0.023,-0.002,-0.015,0.017,-0.011,-1.587,0.027,-1.051,52.73,112.6,40.50457,-3.366134,605.0,4,5,237.7,2.812
53.83,1,-0.004,0.031,-0.001,0.006,0.022,0.001,-1.588,0.026,-1.053,52.73,112.6,40.50457,-3.366134,605.0,4,5,237.7,2.812
53.92,1,0.045,0.015,-0.002,0.011,0.021,-0.004,-1.588,0.029,-1.055,52.73,112.6,40.50457,-3.366134,605.0,4,5,237.7,2.812
54.02,1,-0.065,0.059,-0.007,-0.002,0.037,-0.005,-1.589,0.031,-1.057,53.74,113.5,40.504417,-3.366444,605.9,4,5,237.7,1.055
54.12,1,0.045,0.023,-0.006,-0.012,0.037,-0.006,-1.585,0.03,-1.059,53.74,113.5,40.504417,-3.366444,605.9,4,5,237.7,1.055
54.22,1,-0.141,0.075,-0.026,-0.042,0.047,-0.013,-1.587,0.032,-1.061,53.74,113.5,40.504417,-3.366444,605.9,4,5,237.7,1.055
54.32,1,0.039,-0.002,0.003,-0.043,0.039,-0.013,-1.587,0.033,-1.063,53.74,113.5,40.504417,-3.366444,605.9,4,5,237.7,1.055
54.42,1,0.05,0.009,-0.005,0.019,0.014,-0.004,-1.585,0.033,-1.065,53.74,113.5,40.504417,-3.366444,605.9,4,5,237.7,1.055
54.52,1,-0.0,0.043,-0.026,0.027,0.017,-0.012,-1.582,0.028,-1.068,53.74,113.5,40.504417,-3.366444,605.9,4,5,237.7,1.055
54.63,1,0.013,0.031,0.005,0.007,0.034,-0.011,-1.579,0.024,-1.07,53.74,113.5,40.504417,-3.366444,605.9,4,5,237.7,1.055
54.72,1,-0.028,0.035,-0.006,0.001,0.034,-0.001,-1.576,0.023,-1.072,53.74,113.5,40.504417,-3.366444,605.9,4,5,237.7,1.055
54.82,1,0.024,0.008,0.008,-0.008,0.03,-0.005,-1.572,0.022,-1.075,53.74,113.5,40.504417,-3.366444,605.9,4,5,237.7,1.055
54.92,1,-0.062,0.046,-0.007,-0.004,0.022,0.001,-1.571,0.022,-1.077,53.74,113.5,40.504417,-3.366444,605.9,4,5,237.7,1.055
55.03,1,-0.019,0.016,-0.004,-0.045,0.033,-0.002,-1.57,0.021,-1.079,54.73,114.2,40.504265,-3.366755,605.4,4,5,237.7,0.0
55.12,1,0.066,0.001,0.014,0.019,0.011,-0.002,-1.569,0.021,-1.082,54.73,114.2,40.504265,-3.366755,605.4,4,5,237.7,0.0
55.22,1,0.022,0.052,0.03,0.038,0.02,0.023,-1.569,0.02,-1.085,54.73,114.2,40.504265,-3.366755,605.4,4,5,237.7,0.0
55.32,1,-0.008,0.07,0.018,-0.003,0.058,0.02,-1.568,0.018,-1.087,54.73,114.2,40.504265,-3.366755,605.4,4,5,237.7,0.0
55.42,1,0.043,0.032,0.011,0.037,0.041,0.013,-1.567,0.017,-1.089,54.73,114.2,40.504265,-3.366755,605.4,4,5,237.7,0.0
55.52,1,-0.007,0.027,-0.002,0.002,0.039,0.007,-1.567,0.014,-1.091,54.73,114.2,40.504265,-3.366755,605.4,4,5,237.7,0.0
55.63,1,0.026,0.018,0.021,0.014,0.026,0.012,-1.565,0.012,-1.094,54.73,114.2,40.504265,-3.366755,605.4,4,5,237.7,0.0
55.72,1,-0.046,0.044,-0.021,0.003,0.032,0.002,-1.562,0.005,-1.097,54.73,114.2,40.504265,-3.366755,605.4,4,5,237.7,0.0
55.82,1,0.059,-0.038,0.017,0.003,0.006,0.002,-1.56,0.003,-1.099,54.73,114.2,40.504265,-3.366755,605.4,4,5,237.7,0.0
55.92,1,-0.028,0.01,0.004,0.019,-0.011,0.003,-1.559,0.001,-1.102,54.73,114.2,40.504265,-3.366755,605.4,4,5,237.7,0.0
56.02,1,0.083,0.005,-0.013,0.019,0.008,-0.0,-1.56,-0.002,-1.104,55.79,114.9,40.504112,-3.367079,604.4,4,5,237.7,0.0
56.12,1,-0.016,0.041,-0.003,0.026,0.021,-0.006,-1.56,-0.006,-1.107,55.79,114.9,40.504112,-3.367079,604.4,4,5,237.7,0.0
56.23,1,-0.005,-0.006,-0.002,-0.005,0.018,-0.003,-1.559,-0.005,-1.109,55.79,114.9,40.504112,-3.367079,604.4,4,5,237.7,0.0
56.33,1,-0.022,0.011,-0.004,0.004,0.002,0.004,-1.56,-0.006,-1.111,55.79,114.9,40.504112,-3.367079,604.4,4,5,237.7,0.0
56.42,1,0.024,-0.035,0.002,-0.007,-0.002,-0.006,-1.558,-0.008,-1.113,55.79,114.9,40.504112,-3.367079,604.4,4,5,237.7,0.0
56.52,1,0.03,-0.027,0.004,0.023,-0.029,0.0,-1.557,-0.007,-1.115,55.79,114.9,40.504112,-3.367079,604.4,4,5,237.7,0.0
56.62,1,0.071,-0.024,-0.0,0.035,-0.023,0.003,-1.557,-0.007,-1.116,55.79,114.9,40.504112,-3.367079,604.4,4,5,237.7,0.0
56.72,1,-0.014,-0.025,0.006,0.038,-0.026,0.002,-1.555,-0.005,-1.117,55.79,114.9,40.504112,-3.367079,604.4,4,5,237.7,0.0
56.83,1,-0.035,-0.031,-0.005,-0.03,-0.021,-0.01,-1.556,-0.002,-1.118,55.79,114.9,40.504112,-3.367079,604.4,4,5,237.7,0.0
56.93,1,0.001,-0.048,0.0,-0.018,-0.031,0.003,-1.555,0.001,-1.12,55.79,114.9,40.504112,-3.367079,604.4,4,5,237.7,0.0
57.03,1,-0.051,-0.034,0.003,-0.009,-0.044,0.003,-1.555,0.002,-1.121,56.73,115.4,40.503963,-3.367396,604.5,4,5,238.4,0.703
57.13,1,-0.014,-0.038,-0.023,-0.036,-0.036,-0.009,-1.556,0.006,-1.122,56.73,115.4,40.503963,-3.367396,604.5,4,5,238.4,0.703
57.23,1,-0.056,0.041,0.001,-0.028,-0.014,-0.003,-1.555,0.007,-1.123,56.73,115.4,40.503963,-3.367396,604.5,4,5,238.4,0.703
57.33,1,0.01,-0.003,-0.019,-0.023,0.011,-0.011,-1.554,0.007,-1.124,56.73,115.4,40.503963,-3.367396,604.5,4,5,238.4,0.703
57.43,1,0.013,-0.03,0.011,0.008,-0.013,-0.003,-1.553,0.008,-1.125,56.73,115.4,40.503963,-3.367396,604.5,4,5,238.4,0.703
57.53,1,0.057,-0.032,0.008,0.012,-0.017,-0.0,-1.55,0.01,-1.126,56.73,115.4,40.503963,-3.367396,604.5,4,5,238.4,0.703
57.63,1,0.064,-0.054,0.016,0.057,-0.042,0.016,-1.55,0.011,-1.128,56.73,115.4,40.503963,-3.367396,604.5,4,5,238.4,0.703
57.73,1,-0.049,-0.005,-0.028,0.022,-0.035,-0.008,-1.552,0.01,-1.129,56.73,115.4,40.503963,-3.367396,604.5,4,5,238.4,0.703
57.83,1,-0.022,-0.011,0.012,-0.027,-0.013,-0.001,-1.552,0.011,-1.131,56.73,115.4,40.503963,-3.367396,604.5,4,5,238.4,0.703
57.93,1,-0.018,-0.012,-0.003,-0.009,-0.018,0.002,-1.552,0.013,-1.132,56.73,115.4,40.503963,-3.367396,604.5,4,5,238.4,0.703
58.04,1,-0.07,-0.021,-0.003,-0.05,-0.011,-0.003,-1.554,0.018,-1.132,57.73,115.5,40.503811,-3.367712,603.8,4,5,238.4,0.703
58.13,1,0.024,-0.034,0.023,-0.016,-0.026,0.011,-1.555,0.019,-1.134,57.73,115.5,40.503811,-3.367712,603.8,4,5,238.4,0.703
58.24,1,-0.023,-0.007,-0.013,-0.02,-0.012,-0.001,-1.554,0.022,-1.134,57.73,115.5,40.503811,-3.367712,603.8,4,5,238.4,0.703
58.33,1,-0.003,-0.03,-0.009,-0.006,-0.022,-0.004,-1.552,0.025,-1.135,57.73,115.5,40.503811,-3.367712,603.8,4,5,238.4,0.703
58.43,1,-0.092,0.005,0.0,-0.034,-0.016,0.0,-1.552,0.023,-1.137,57.73,115.5,40.503811,-3.367712,603.8,4,5,238.4,0.703
58.53,1,-0.021,-0.026,0.022,-0.052,-0.014,0.003,-1.556,0.022,-1.138,57.73,115.5,40.503811,-3.367712,603.8,4,5,238.4,0.703
58.63,1,0.003,0.001,0.031,-0.017,-0.006,0.021,-1.56,0.026,-1.138,57.73,115.5,40.503811,-3.367712,603.8,4,5,238.4,0.703
58.74,1,0.143,-0.002,0.003,0.058,-0.004,0.016,-1.559,0.029,-1.139,57.73,115.5,40.503811,-3.367712,603.8,4,5,238.4,0.703
58.83,1,0.144,-0.053,0.01,0.114,-0.027,0.013,-1.553,0.032,-1.139,57.73,115.5,40.503811,-3.367712,603.8,4,5,238.4,0.703
58.93,1,0.011,-0.041,0.002,0.07,-0.037,0.006,-1.553,0.038,-1.14,57.73,115.5,40.503811,-3.367712,603.8,4,5,238.4,0.703
59.03,1,-0.013,0.004,0.005,0.031,-0.021,-0.0,-1.556,0.039,-1.141,58.73,115.5,40.503662,-3.368034,603.6,4,5,238.4,0.0
59.13,1,-0.124,0.037,-0.029,-0.055,0.01,-0.006,-1.559,0.041,-1.141,58.73,115.5,40.503662,-3.368034,603.6,4,5,238.4,0.0
59.24,1,-0.039,0.012,-0.018,-0.052,0.011,-0.012,-1.562,0.04,-1.142,58.73,115.5,40.503662,-3.368034,603.6,4,5,238.4,0.0
59.33,1,-0.041,0.02,-0.004,-0.054,0.017,-0.016,-1.559,0.036,-1.143,58.73,115.5,40.503662,-3.368034,603.6,4,5,238.4,0.0
59.43,1,-0.011,-0.007,-0.001,-0.03,0.008,-0.004,-1.561,0.034,-1.143,58.73,115.5,40.503662,-3.368034,603.6,4,5,238.4,0.0
59.53,1,-0.029,0.002,-0.003,-0.024,0.002,-0.004,-1.561,0.036,-1.144,58.73,115.5,40.503662,-3.368034,603.6,4,5,238.4,0.0
59.63,1,0.013,-0.036,-0.008,-0.018,-0.013,-0.005,-1.56,0.034,-1.145,58.73,115.5,40.503662,-3.368034,603.6,4,5,238.4,0.0
59.74,1,-0.072,0.019,0.001,-0.023,-0.006,-0.002,-1.558,0.034,-1.146,58.73,115.5,40.503662,-3.368034,603.6,4,5,238.4,0.0
59.85,1,0.031,-0.0,0.011,-0.012,0.002,-0.002,-1.558,0.034,-1.147,58.73,115.5,40.503662,-3.368034,603.6,4,5,238.4,0.0
59.94,1,-0.055,0.008,0.001,-0.017,0.003,0.011,-1.559,0.036,-1.148,58.73,115.5,40.503662,-3.368034,603.6,4,5,238.4,0.0
60.04,1,-0.051,-0.012,-0.016,-0.062,0.002,-0.012,-1.56,0.04,-1.148,59.73,115.9,40.503513,-3.368345,603.3,4,5,238.4,0.0
60.14,1,-0.025,-0.001,-0.012,-0.032,-0.005,-0.008,-1.561,0.045,-1.149,59.73,115.9,40.503513,-3.368345,603.3,4,5,238.4,0.0
60.24,1,-0.092,0.017,-0.012,-0.046,0.001,-0.01,-1.562,0.044,-1.15,59.73,115.9,40.503513,-3.368345,603.3,4,5,238.4,0.0
60.34,1,-0.014,-0.018,0.012,-0.044,-0.002,0.001,-1.561,0.042,-1.151,59.73,115.9,40.503513,-3.368345,603.3,4,5,238.4,0.0
60.44,1,-0.055,0.03,-0.022,-0.048,0.008,-0.005,-1.559,0.04,-1.153,59.73,115.9,40.503513,-3.368345,603.3,4,5,238.4,0.0
60.54,1,-0.032,0.026,0.004,-0.049,0.022,-0.013,-1.56,0.034,-1.154,59.73,115.9,40.503513,-3.368345,603.3,4,5,238.4,0.0
60.64,1,-0.017,0.026,-0.011,-0.02,0.023,-0.002,-1.563,0.036,-1.155,59.73,115.9,40.503513,-3.368345,603.3,4,5,238.4,0.0
60.74,1,-0.013,0.013,-0.018,-0.025,0.027,-0.017,-1.561,0.037,-1.156,59.73,115.9,40.503513,-3.368345,603.3,4,5,238.4,0.0
60.84,1,0.025,-0.025,0.005,0.011,-0.008,-0.002,-1.559,0.037,-1.157,59.73,115.9,40.503513,-3.368345,603.3,4,5,238.4,0.0
60.94,1,-0.066,0.004,-0.002,-0.031,-0.001,-0.004,-1.56,0.035,-1.158,59.73,115.9,40.503513,-3.368345,603.3,4,5,238.4,0.0
61.04,1,-0.014,0.028,-0.01,-0.026,0.008,-0.002,-1.562,0.03,-1.16,60.74,115.7,40.503357,-3.368671,602.5,4,5,237.7,0.703
61.14,1,-0.012,0.025,0.01,-0.028,0.023,-0.0,-1.559,0.027,-1.162,60.74,115.7,40.503357,-3.368671,602.5,4,5,237.7,0.703
61.25,1,-0.021,-0.002,-0.004,-0.01,0.012,0.001,-1.558,0.028,-1.163,60.74,115.7,40.503357,-3.368671,602.5,4,5,237.7,0.703
61.36,1,-0.042,0.0,-0.009,-0.022,0.004,-0.007,-1.559,0.029,-1.164,60.74,115.7,40.503357,-3.368671,602.5,4,5,237.7,0.703
61.44,1,0.014,-0.0,-0.015,-0.026,0.004,-0.007,-1.558,0.026,-1.165,60.74,115.7,40.503357,-3.368671,602.5,4,5,237.7,0.703
61.54,1,-0.097,0.025,-0.017,-0.051,0.016,-0.019,-1.557,0.023,-1.166,60.74,115.7,40.503357,-3.368671,602.5,4,5,237.7,0.703
61.64,1,0.068,-0.017,0.014,0.007,-0.003,-0.002,-1.558,0.02,-1.168,60.74,115.7,40.503357,-3.368671,602.5,4,5,237.7,0.703
61.74,1,-0.087,0.026,-0.02,-0.04,0.012,-0.006,-1.56,0.017,-1.169,60.74,115.7,40.503357,-3.368671,602.5,4,5,237.7,0.703
61.85,1,0.071,-0.04,0.022,0.002,-0.009,0.002,-1.56,0.015,-1.17,60.74,115.7,40.503357,-3.368671,602.5,4,5,237.7,0.703
61.94,1,0.036,-0.02,-0.002,0.048,-0.027,0.009,-1.558,0.016,-1.171,60.74,115.7,40.503357,-3.368671,602.5,4,5,237.7,0.703
62.04,1,-0.026,0.001,-0.02,0.002,-0.01,-0.008,-1.558,0.017,-1.172,61.74,115.6,40.503197,-3.368985,602.0,4,5,237.7,0.703
62.14,1,0.018,-0.025,-0.014,0.012,-0.017,-0.013,-1.558,0.018,-1.173,61.74,115.6,40.503197,-3.368985,602.0,4,5,237.7,0.703
62.24,1,-0.05,0.004,-0.02,-0.015,-0.009,-0.014,-1.556,0.024,-1.173,61.74,115.6,40.503197,-3.368985,602.0,4,5,237.7,0.703
62.34,1,-0.013,-0.029,-0.0,-0.02,-0.014,-0.01,-1.555,0.025,-1.172,61.74,115.6,40.503197,-3.368985,602.0,4,5,237.7,0.703
62.44,1,-0.012,-0.024,-0.004,-0.017,-0.019,-0.008,-1.555,0.026,-1.173,61.74,115.6,40.503197,-3.368985,602.0,4,5,237.7,0.703
62.55,1,0.017,-0.018,-0.005,-0.005,-0.021,-0.006,-1.554,0.028,-1.174,61.74,115.6,40.503197,-3.368985,602.0,4,5,237.7,0.703
62.64,1,0.051,-0.032,-0.014,0.027,-0.024,-0.012,-1.552,0.028,-1.175,61.74,115.6,40.503197,-3.368985,602.0,4,5,237.7,0.703
62.74,1,-0.047,-0.0,-0.001,-0.007,-0.012,0.001,-1.551,0.028,-1.176,61.74,115.6,40.503197,-3.368985,602.0,4,5,237.7,0.703
62.84,1,0.007,-0.022,0.012,-0.006,-0.016,-0.003,-1.553,0.028,-1.176,61.74,115.6,40.503197,-3.368985,602.0,4,5,237.7,0.703
62.94,1,-0.062,-0.002,-0.011,-0.019,-0.018,0.001,-1.554,0.028,-1.177,61.74,115.6,40.503197,-3.368985,602.0,4,5,237.7,0.703
63.06,1,0.053,-0.032,-0.005,-0.009,-0.015,-0.004,-1.554,0.026,-1.177,62.73,114.0,40.50304,-3.369301,602.3,4,5,237.7,0.0
63.16,1,-0.017,0.022,-0.001,0.009,-0.009,-0.005,-1.554,0.026,-1.178,62.73,114.0,40.50304,-3.369301,602.3,4,5,237.7,0.0
63.25,1,-0.015,-0.004,-0.016,-0.018,0.005,-0.01,-1.555,0.028,-1.178,62.73,114.0,40.50304,-3.369301,602.3,4,5,237.7,0.0
63.35,1,0.025,-0.009,-0.008,0.007,-0.004,-0.003,-1.555,0.031,-1.179,62.73,114.0,40.50304,-3.369301,602.3,4,5,237.7,0.0
63.45,1,-0.058,0.001,-0.023,-0.019,-0.002,-0.016,-1.554,0.031,-1.179,62.73,114.0,40.50304,-3.369301,602.3,4,5,237.7,0.0
63.55,1,-0.038,-0.016,-0.001,-0.033,-0.008,-0.014,-1.556,0.031,-1.179,62.73,114.0,40.50304,-3.369301,602.3,4,5,237.7,0.0
63.65,1,-0.031,0.023,-0.033,-0.031,0.001,-0.016,-1.554,0.029,-1.181,62.73,114.0,40.50304,-3.369301,602.3,4,5,237.7,0.0
63.75,1,-0.013,0.007,-0.014,-0.024,0.008,-0.017,-1.553,0.025,-1.182,62.73,114.0,40.50304,-3.369301,602.3,4,5,237.7,0.0
63.95,1,0.024,-0.018,-0.004,-0.018,-0.005,0.0,-1.555,0.024,-1.184,62.73,114.0,40.50304,-3.369301,602.3,4,5,237.7,0.0
64.05,1,0.047,-0.004,0.007,0.021,-0.007,0.003,-1.554,0.025,-1.185,62.73,114.0,40.50304,-3.369301,602.3,4,5,237.7,0.0
64.15,1,-0.053,0.014,-0.012,-0.004,0.005,-0.002,-1.552,0.02,-1.185,63.74,114.7,40.502884,-3.369617,603.5,4,5,237.3,0.352
64.26,1,-0.003,-0.02,-0.008,-0.005,-0.01,-0.007,-1.551,0.018,-1.185,63.74,114.7,40.502884,-3.369617,603.5,4,5,237.3,0.352
64.35,1,-0.062,0.006,-0.005,-0.032,-0.0,-0.011,-1.55,0.017,-1.186,63.74,114.7,40.502884,-3.369617,603.5,4,5,237.3,0.352
64.45,1,-0.034,-0.006,0.017,-0.04,0.0,0.004,-1.549,0.017,-1.187,63.74,114.7,40.502884,-3.369617,603.5,4,5,237.3,0.352
64.55,1,0.051,-0.033,0.006,0.003,-0.019,0.007,-1.55,0.02,-1.188,63.74,114.7,40.502884,-3.369617,603.5,4,5,237.3,0.352
64.65,1,0.01,-0.021,0.007,0.012,-0.023,0.01,-1.551,0.02,-1.189,63.74,114.7,40.502884,-3.369617,603.5,4,5,237.3,0.352
64.75,1,-0.0,0.019,-0.022,0.007,-0.005,-0.002,-1.55,0.02,-1.19,63.74,114.7,40.502884,-3.369617,603.5,4,5,237.3,0.352
64.85,1,-0.006,0.025,0.005,0.006,0.009,-0.007,-1.547,0.018,-1.191,63.74,114.7,40.502884,-3.369617,603.5,4,5,237.3,0.352
64.96,1,0.043,-0.039,-0.01,0.003,0.001,-0.003,-1.547,0.019,-1.191,63.74,114.7,40.502884,-3.369617,603.5,4,5,237.3,0.352
65.05,1,-0.032,-0.002,-0.003,0.008,-0.013,-0.007,-1.547,0.02,-1.192,63.74,114.7,40.502884,-3.369617,603.5,4,5,237.3,0.352
65.15,1,-0.01,-0.018,-0.024,-0.007,-0.016,-0.012,-1.547,0.023,-1.192,64.77,113.8,40.502728,-3.369938,601.7,4,5,237.3,0.352
65.25,1,-0.017,-0.011,0.021,-0.027,-0.007,-0.001,-1.546,0.024,-1.193,64.77,113.8,40.502728,-3.369938,601.7,4,5,237.3,0.352
65.35,1,0.017,0.002,-0.002,0.012,-0.011,0.002,-1.545,0.024,-1.194,64.77,113.8,40.502728,-3.369938,601.7,4,5,237.3,0.352
65.46,1,-0.089,0.02,0.009,-0.039,0.009,0.0,-1.546,0.021,-1.194,64.77,113.8,40.502728,-3.369938,601.7,4,5,237.3,0.352
65.56,1,-0.004,-0.027,-0.003,-0.032,-0.007,0.004,-1.546,0.022,-1.195,64.77,113.8,40.502728,-3.369938,601.7,4,5,237.3,0.352
65.65,1,-0.009,-0.003,0.011,-0.015,-0.013,0.009,-1.547,0.024,-1.196,64.77,113.8,40.502728,-3.369938,601.7,4,5,237.3,0.352
65.75,1,-0.025,0.019,0.003,-0.02,0.006,0.005,-1.545,0.021,-1.196,64.77,113.8,40.502728,-3.369938,601.7,4,5,237.3,0.352
65.85,1,0.039,0.003,0.021,0.006,0.007,0.015,-1.546,0.019,-1.197,64.77,113.8,40.502728,-3.369938,601.7,4,5,237.3,0.352
65.96,1,-0.032,0.023,-0.013,-0.003,0.014,-0.0,-1.543,0.017,-1.197,64.77,113.8,40.502728,-3.369938,601.7,4,5,237.3,0.352
66.06,1,0.039,-0.006,0.007,0.009,0.009,0.003,-1.543,0.019,-1.198,64.77,113.8,40.502728,-3.369938,601.7,4,5,237.3,0.352
66.16,1,-0.05,0.025,-0.003,-0.01,0.01,0.003,-1.544,0.021,-1.199,65.74,113.3,40.502583,-3.370243,600.2,4,5,237.3,0.0
66.26,1,0.011,0.001,0.002,-0.018,0.011,-0.004,-1.542,0.02,-1.201,65.74,113.3,40.502583,-3.370243,600.2,4,5,237.3,0.0
66.35,1,-0.008,0.038,0.015,0.005,0.013,0.008,-1.543,0.016,-1.203,65.74,113.3,40.502583,-3.370243,600.2,4,5,237.3,0.0
66.46,1,-0.014,0.046,0.007,-0.013,0.039,0.012,-1.545,0.011,-1.204,65.74,113.3,40.502583,-3.370243,600.2,4,5,237.3,0.0
66.56,1,0.042,0.0,-0.008,0.008,0.025,0.002,-1.546,0.01,-1.207,65.74,113.3,40.502583,-3.370243,600.2,4,5,237.3,0.0
66.66,1,-0.056,0.069,-0.006,0.0,0.031,0.0,-1.549,0.004,-1.209,65.74,113.3,40.502583,-3.370243,600.2,4,5,237.3,0.0
66.77,1,-0.022,0.048,0.009,-0.036,0.052,-0.005,-1.549,-0.0,-1.212,65.74,113.3,40.502583,-3.370243,600.2,4,5,237.3,0.0
66.87,1,0.014,0.028,0.003,-0.013,0.044,0.005,-1.552,-0.003,-1.215,65.74,113.3,40.502583,-3.370243,600.2,4,5,237.3,0.0
66.97,1,-0.027,0.054,-0.016,-0.001,0.041,-0.003,-1.553,-0.004,-1.216,65.74,113.3,40.502583,-3.370243,600.2,4,5,237.3,0.0
67.06,1,-0.022,0.042,0.006,-0.021,0.043,-0.004,-1.554,-0.009,-1.219,65.74,113.3,40.502583,-3.370243,600.2,4,5,237.3,0.0
67.16,1,-0.0,0.016,-0.015,-0.01,0.033,-0.009,-1.555,-0.013,-1.222,66.72,113.3,40.50243,-3.370562,600.2,4,5,237.3,0.0
67.26,1,-0.034,0.022,-0.006,-0.018,0.022,-0.005,-1.553,-0.018,-1.224,66.72,113.3,40.50243,-3.370562,600.2,4,5,237.3,0.0
67.36,1,0.017,0.002,0.002,-0.009,0.02,-0.005,-1.552,-0.024,-1.226,66.72,113.3,40.50243,-3.370562,600.2,4,5,237.3,0.0
67.47,1,0.008,-0.008,-0.029,0.016,-0.004,-0.008,-1.552,-0.028,-1.228,66.72,113.3,40.50243,-3.370562,600.2,4,5,237.3,0.0
67.56,1,-0.044,0.01,0.003,-0.015,0.005,-0.015,-1.554,-0.028,-1.23,66.72,113.3,40.50243,-3.370562,600.2,4,5,237.3,0.0
67.66,1,-0.047,-0.009,-0.027,-0.045,0.009,-0.015,-1.555,-0.029,-1.232,66.72,113.3,40.50243,-3.370562,600.2,4,5,237.3,0.0
67.76,1,0.03,0.003,-0.01,-0.008,-0.007,-0.015,-1.557,-0.027,-1.234,66.72,113.3,40.50243,-3.370562,600.2,4,5,237.3,0.0
67.86,1,-0.048,-0.009,-0.018,-0.018,-0.001,-0.016,-1.555,-0.027,-1.235,66.72,113.3,40.50243,-3.370562,600.2,4,5,237.3,0.0
67.97,1,0.042,-0.041,-0.01,-0.003,-0.02,-0.012,-1.553,-0.023,-1.236,66.72,113.3,40.50243,-3.370562,600.2,4,5,237.3,0.0
68.06,1,0.0,-0.011,-0.003,0.017,-0.026,-0.008,-1.55,-0.023,-1.238,66.72,113.3,40.50243,-3.370562,600.2,4,5,237.3,0.0
68.16,1,-0.091,0.011,-0.02,-0.03,-0.003,-0.009,-1.549,-0.023,-1.239,67.75,113.0,40.502281,-3.370879,600.2,4,5,238.0,0.703
68.26,1,0.002,-0.038,0.007,-0.026,-0.02,-0.006,-1.551,-0.021,-1.24,67.75,113.0,40.502281,-3.370879,600.2,4,5,238.0,0.703
68.36,1,-0.062,-0.016,0.01,-0.031,-0.018,0.002,-1.552,-0.02,-1.24,67.75,113.0,40.502281,-3.370879,600.2,4,5,238.0,0.703
68.47,1,-0.046,-0.007,-0.019,-0.055,-0.007,-0.006,-1.553,-0.022,-1.241,67.75,113.0,40.502281,-3.370879,600.2,4,5,238.0,0.703
68.57,1,0.019,-0.075,-0.019,-0.024,-0.042,-0.012,-1.551,-0.018,-1.241,67.75,113.0,40.502281,-3.370879,600.2,4,5,238.0,0.703
68.67,1,-0.03,-0.039,0.004,-0.017,-0.048,-0.009,-1.551,-0.013,-1.241,67.75,113.0,40.502281,-3.370879,600.2,4,5,238.0,0.703
68.76,1,-0.035,-0.038,0.011,-0.035,-0.04,0.005,-1.552,-0.007,-1.24,67.75,113.0,40.502281,-3.370879,600.2,4,5,238.0,0.703
68.86,1,0.066,-0.057,0.01,0.006,-0.053,0.006,-1.55,-0.004,-1.24,67.75,113.0,40.502281,-3.370879,600.2,4,5,238.0,0.703
68.97,1,0.029,-0.077,-0.013,0.034,-0.059,-0.001,-1.548,-0.001,-1.239,67.75,113.0,40.502281,-3.370879,600.2,4,5,238.0,0.703
69.06,1,0.002,-0.04,0.015,0.012,-0.062,-0.004,-1.55,0.002,-1.238,67.75,113.0,40.502281,-3.370879,600.2,4,5,238.0,0.703
69.17,1,-0.016,-0.024,-0.002,0.007,-0.036,0.012,-1.553,0.009,-1.237,68.75,112.3,40.502136,-3.371194,600.0,3,5,239.1,1.758
69.26,1,-0.041,-0.064,-0.023,-0.021,-0.041,-0.012,-1.553,0.011,-1.236,68.75,112.3,40.502136,-3.371194,600.0,3,5,239.1,1.758
69.36,1,0.016,-0.058,-0.005,-0.012,-0.058,-0.011,-1.553,0.01,-1.236,68.75,112.3,40.502136,-3.371194,600.0,3,5,239.1,1.758
69.46,1,0.024,-0.021,-0.004,0.009,-0.042,-0.01,-1.553,0.013,-1.235,68.75,112.3,40.502136,-3.371194,600.0,3,5,239.1,1.758
69.57,1,-0.038,-0.023,-0.022,-0.004,-0.026,-0.009,-1.552,0.019,-1.234,68.75,112.3,40.502136,-3.371194,600.0,3,5,239.1,1.758
69.68,1,0.009,-0.072,0.015,-0.007,-0.046,-0.003,-1.551,0.025,-1.234,68.75,112.3,40.502136,-3.371194,600.0,3,5,239.1,1.758
69.78,1,-0.007,-0.05,-0.021,0.003,-0.056,-0.005,-1.55,0.03,-1.233,68.75,112.3,40.502136,-3.371194,600.0,3,5,239.1,1.758
69.88,1,-0.07,0.0,-0.003,-0.038,-0.031,-0.008,-1.548,0.032,-1.232,68.75,112.3,40.502136,-3.371194,600.0,3,5,239.1,1.758
69.97,1,0.048,-0.011,-0.006,-0.012,-0.012,-0.005,-1.548,0.028,-1.232,68.75,112.3,40.502136,-3.371194,600.0,3,5,239.1,1.758
70.07,1,0.063,-0.026,0.009,0.046,-0.022,-0.001,-1.547,0.026,-1.231,68.75,112.3,40.502136,-3.371194,600.0,3,5,239.1,1.758
70.17,1,0.04,-0.031,-0.001,0.045,-0.026,-0.001,-1.546,0.032,-1.23,69.74,111.8,40.501991,-3.371523,599.2,4,5,238.4,0.703
70.27,1,-0.059,0.001,-0.023,-0.0,-0.018,-0.01,-1.546,0.033,-1.229,69.74,111.8,40.501991,-3.371523,599.2,4,5,238.4,0.703
70.38,1,-0.024,-0.055,-0.007,-0.029,-0.026,-0.009,-1.547,0.037,-1.229,69.74,111.8,40.501991,-3.371523,599.2,4,5,238.4,0.703
70.47,1,-0.043,0.016,0.006,-0.032,-0.018,-0.002,-1.549,0.037,-1.228,69.74,111.8,40.501991,-3.371523,599.2,4,5,238.4,0.703
70.57,1,-0.026,0.014,-0.005,-0.032,0.009,-0.001,-1.549,0.036,-1.228,69.74,111.8,40.501991,-3.371523,599.2,4,5,238.4,0.703
70.67,1,-0.029,-0.026,-0.001,-0.018,-0.003,-0.004,-1.55,0.037,-1.227,69.74,111.8,40.501991,-3.371523,599.2,4,5,238.4,0.703
70.77,1,0.038,-0.044,-0.002,-0.002,-0.035,-0.002,-1.552,0.041,-1.226,69.74,111.8,40.501991,-3.371523,599.2,4,5,238.4,0.703
70.87,1,0.015,0.028,0.02,0.011,-0.013,0.007,-1.552,0.039,-1.225,69.74,111.8,40.501991,-3.371523,599.2,4,5,238.4,0.703
70.98,1,0.026,0.009,-0.024,0.015,0.015,-0.003,-1.549,0.037,-1.225,69.74,111.8,40.501991,-3.371523,599.2,4,5,238.4,0.703
71.08,1,0.052,-0.018,-0.003,0.034,-0.006,-0.006,-1.547,0.033,-1.225,69.74,111.8,40.501991,-3.371523,599.2,4,5,238.4,0.703
71.17,1,-0.03,-0.0,-0.005,0.018,-0.003,-0.006,-1.547,0.034,-1.224,70.79,111.2,40.50185,-3.37183,598.9,4,5,238.0,1.055
71.27,1,-0.066,-0.008,-0.038,-0.028,-0.005,-0.015,-1.547,0.036,-1.224,70.79,111.2,40.50185,-3.37183,598.9,4,5,238.0,1.055
71.37,1,-0.079,-0.013,0.021,-0.062,-0.01,-0.007,-1.547,0.035,-1.224,70.79,111.2,40.50185,-3.37183,598.9,4,5,238.0,1.055
71.47,1,-0.059,0.013,-0.013,-0.069,-0.003,-0.004,-1.546,0.034,-1.223,70.79,111.2,40.50185,-3.37183,598.9,4,5,238.0,1.055
71.58,1,0.015,-0.011,0.014,-0.031,-0.002,0.001,-1.551,0.035,-1.223,70.79,111.2,40.50185,-3.37183,598.9,4,5,238.0,1.055
71.67,1,0.034,-0.004,-0.007,0.007,-0.003,0.001,-1.55,0.035,-1.222,70.79,111.2,40.50185,-3.37183,598.9,4,5,238.0,1.055
71.77,1,-0.017,0.013,-0.024,0.008,0.0,-0.013,-1.548,0.036,-1.222,70.79,111.2,40.50185,-3.37183,598.9,4,5,238.0,1.055
71.87,1,0.002,0.003,0.005,-0.001,0.007,-0.006,-1.548,0.034,-1.222,70.79,111.2,40.50185,-3.37183,598.9,4,5,238.0,1.055
71.97,1,-0.038,-0.009,-0.025,-0.017,0.001,-0.008,-1.547,0.034,-1.222,70.79,111.2,40.50185,-3.37183,598.9,4,5,238.0,1.055
72.09,1,-0.051,-0.02,-0.006,-0.035,-0.013,-0.012,-1.547,0.035,-1.222,70.79,111.2,40.50185,-3.37183,598.9,4,5,238.0,1.055
72.17,1,-0.0,0.012,0.001,-0.031,-0.002,-0.01,-1.548,0.034,-1.221,71.71,110.6,40.501705,-3.37212,598.6,4,5,237.7,0.703
72.28,1,0.013,0.014,0.002,0.006,0.007,0.002,-1.548,0.032,-1.221,71.71,110.6,40.501705,-3.37212,598.6,4,5,237.7,0.703
72.37,1,0.005,0.001,-0.016,-0.004,0.009,-0.013,-1.548,0.03,-1.221,71.71,110.6,40.501705,-3.37212,598.6,4,5,237.7,0.703
72.47,1,-0.012,0.018,0.015,-0.004,0.01,0.004,-1.55,0.027,-1.222,71.71,110.6,40.501705,-3.37212,598.6,4,5,237.7,0.703
72.57,1,0.004,0.007,0.002,-0.0,0.009,0.004,-1.549,0.027,-1.221,71.71,110.6,40.501705,-3.37212,598.6,4,5,237.7,0.703
72.67,1,0.007,0.006,-0.015,0.003,0.006,-0.003,-1.549,0.027,-1.221,71.71,110.6,40.501705,-3.37212,598.6,4,5,237.7,0.703
72.79,1,-0.032,0.006,-0.012,-0.004,0.008,-0.012,-1.55,0.028,-1.221,71.71,110.6,40.501705,-3.37212,598.6,4,5,237.7,0.703
72.88,1,-0.039,-0.02,0.009,-0.033,-0.003,-0.005,-1.551,0.028,-1.221,71.71,110.6,40.501705,-3.37212,598.6,4,5,237.7,0.703
72.98,1,0.036,-0.006,0.018,-0.008,-0.01,0.01,-1.552,0.025,-1.222,71.71,110.6,40.501705,-3.37212,598.6,4,5,237.7,0.703
73.08,1,0.008,0.018,-0.014,0.01,0.001,0.005,-1.55,0.025,-1.222,71.71,110.6,40.501705,-3.37212,598.6,4,5,237.7,0.703
73.18,1,0.029,0.004,-0.004,0.021,0.006,-0.005,-1.549,0.026,-1.222,72.81,109.8,40.501549,-3.372426,598.3,4,5,237.7,0.352
73.28,1,0.008,0.007,-0.014,0.017,0.008,-0.007,-1.549,0.026,-1.222,72.81,109.8,40.501549,-3.372426,598.3,4,5,237.7,0.352
73.39,1,-0.007,-0.009,-0.007,0.007,0.003,-0.009,-1.548,0.025,-1.222,72.81,109.8,40.501549,-3.372426,598.3,4,5,237.7,0.352
73.49,1,-0.036,0.0,-0.012,-0.021,-0.002,-0.011,-1.547,0.028,-1.222,72.81,109.8,40.501549,-3.372426,598.3,4,5,237.7,0.352
73.58,1,-0.029,0.012,0.006,-0.024,0.004,-0.002,-1.55,0.03,-1.222,72.81,109.8,40.501549,-3.372426,598.3,4,5,237.7,0.352
73.68,1,-0.022,0.015,0.007,-0.026,0.01,-0.001,-1.552,0.033,-1.222,72.81,109.8,40.501549,-3.372426,598.3,4,5,237.7,0.352
73.88,1,-0.048,0.003,0.001,-0.032,0.001,-0.008,-1.556,0.035,-1.222,72.81,109.8,40.501549,-3.372426,598.3,4,5,237.7,0.352
73.98,1,-0.015,-0.006,0.001,-0.034,-0.001,-0.001,-1.557,0.033,-1.222,72.81,109.8,40.501549,-3.372426,598.3,4,5,237.7,0.352
74.08,1,0.02,0.016,-0.009,-0.007,0.004,-0.005,-1.555,0.029,-1.224,72.81,109.8,40.501549,-3.372426,598.3,4,5,237.7,0.352
74.18,1,0.061,0.007,-0.016,0.025,0.007,-0.005,-1.554,0.03,-1.224,72.81,109.8,40.501549,-3.372426,598.3,4,5,237.7,0.352
74.28,1,0.0,-0.0,-0.02,0.028,0.005,-0.017,-1.551,0.028,-1.224,73.75,109.8,40.501404,-3.372744,597.8,4,5,237.3,0.352
74.38,1,0.003,-0.019,0.022,0.008,-0.01,-0.001,-1.553,0.027,-1.223,73.75,109.8,40.501404,-3.372744,597.8,4,5,237.3,0.352
74.49,1,0.018,-0.004,0.006,0.015,-0.009,0.009,-1.552,0.024,-1.224,73.75,109.8,40.501404,-3.372744,597.8,4,5,237.3,0.352
74.58,1,-0.036,0.05,0.003,-0.005,0.013,0.006,-1.554,0.025,-1.224,73.75,109.8,40.501404,-3.372744,597.8,4,5,237.3,0.352
74.69,1,-0.034,0.022,0.015,-0.03,0.033,0.004,-1.556,0.026,-1.224,73.75,109.8,40.501404,-3.372744,597.8,4,5,237.3,0.352
74.78,1,-0.02,-0.018,0.01,-0.021,0.008,0.017,-1.556,0.027,-1.224,73.75,109.8,40.501404,-3.372744,597.8,4,5,237.3,0.352
74.88,1,0.02,-0.011,0.017,-0.008,-0.004,0.011,-1.558,0.03,-1.224,73.75,109.8,40.501404,-3.372744,597.8,4,5,237.3,0.352
74.98,1,-0.036,0.016,-0.002,-0.006,0.0,0.013,-1.558,0.032,-1.224,73.75,109.8,40.501404,-3.372744,597.8,4,5,237.3,0.352
75.08,1,-0.023,0.026,0.019,-0.023,0.008,0.004,-1.558,0.033,-1.224,73.75,109.8,40.501404,-3.372744,597.8,4,5,237.3,0.352
75.18,1,0.001,0.009,0.007,-0.017,0.016,0.008,-1.559,0.032,-1.224,73.75,109.8,40.501404,-3.372744,597.8,4,5,237.3,0.352
75.28,1,-0.057,-0.002,0.005,-0.025,0.009,0.01,-1.56,0.031,-1.224,74.74,109.0,40.501255,-3.373044,597.2,4,5,237.3,0.352
75.38,1,-0.003,-0.006,0.015,-0.024,-0.002,0.01,-1.561,0.033,-1.224,74.74,109.0,40.501255,-3.373044,597.2,4,5,237.3,0.352
75.48,1,-0.038,0.027,-0.006,-0.027,0.01,0.003,-1.563,0.036,-1.224,74.74,109.0,40.501255,-3.373044,597.2,4,5,237.3,0.352
75.58,1,0.017,0.005,0.026,-0.005,0.009,0.012,-1.564,0.035,-1.224,74.74,109.0,40.501255,-3.373044,597.2,4,5,237.3,0.352
75.69,1,0.003,-0.022,-0.0,0.0,-0.003,0.01,-1.563,0.038,-1.224,74.74,109.0,40.501255,-3.373044,597.2,4,5,237.3,0.352
75.78,1,-0.008,0.012,0.012,-0.003,-0.005,0.006,-1.564,0.037,-1.225,74.74,109.0,40.501255,-3.373044,597.2,4,5,237.3,0.352
75.89,1,-0.035,0.054,0.008,-0.022,0.031,0.011,-1.566,0.029,-1.226,74.74,109.0,40.501255,-3.373044,597.2,4,5,237.3,0.352
75.99,1,0.013,0.026,0.007,-0.004,0.038,0.009,-1.565,0.025,-1.226,74.74,109.0,40.501255,-3.373044,597.2,4,5,237.3,0.352
76.09,1,-0.034,0.005,-0.024,-0.011,0.015,-0.009,-1.564,0.023,-1.227,74.74,109.0,40.501255,-3.373044,597.2,4,5,237.3,0.352
76.19,1,-0.015,0.011,0.019,-0.023,0.01,0.003,-1.567,0.021,-1.227,74.74,109.0,40.501255,-3.373044,597.2,4,5,237.3,0.352
76.29,1,-0.036,0.001,0.006,-0.036,0.014,0.002,-1.568,0.021,-1.228,75.74,108.7,40.501102,-3.373335,597.1,4,5,237.0,0.352
76.39,1,0.011,-0.022,0.006,-0.017,-0.009,0.011,-1.567,0.019,-1.228,75.74,108.7,40.501102,-3.373335,597.1,4,5,237.0,0.352
76.49,1,-0.005,0.01,-0.003,0.009,-0.009,0.006,-1.567,0.019,-1.228,75.74,108.7,40.501102,-3.373335,597.1,4,5,237.0,0.352
76.59,1,-0.03,0.028,-0.004,-0.021,0.016,-0.003,-1.566,0.019,-1.228,75.74,108.7,40.501102,-3.373335,597.1,4,5,237.0,0.352
76.69,1,0.002,-0.018,0.01,-0.001,0.005,0.004,-1.565,0.017,-1.229,75.74,108.7,40.501102,-3.373335,597.1,4,5,237.0,0.352
76.79,1,-0.006,-0.009,0.005,-0.006,-0.007,0.006,-1.566,0.019,-1.229,75.74,108.7,40.501102,-3.373335,597.1,4,5,237.0,0.352
76.89,1,0.032,-0.003,0.014,0.012,-0.007,0.01,-1.567,0.021,-1.229,75.74,108.7,40.501102,-3.373335,597.1,4,5,237.0,0.352
76.99,1,-0.02,0.002,-0.016,0.003,-0.001,0.001,-1.567,0.022,-1.229,75.74,108.7,40.501102,-3.373335,597.1,4,5,237.0,0.352
77.09,1,-0.014,-0.03,0.011,-0.015,-0.012,-0.003,-1.567,0.025,-1.229,75.74,108.7,40.501102,-3.373335,597.1,4,5,237.0,0.352
77.19,1,0.018,-0.049,-0.01,0.003,-0.037,0.001,-1.566,0.026,-1.229,75.74,108.7,40.501102,-3.373335,597.1,4,5,237.0,0.352
77.29,1,-0.02,-0.011,0.006,-0.007,-0.027,0.001,-1.566,0.026,-1.229,76.74,109.2,40.500957,-3.373638,597.2,3,5,237.3,0.352
77.39,1,-0.034,0.011,0.0,-0.016,-0.007,-0.003,-1.564,0.024,-1.229,76.74,109.2,40.500957,-3.373638,597.2,3,5,237.3,0.352
77.49,1,0.002,0.004,-0.006,-0.022,0.006,-0.0,-1.564,0.024,-1.229,76.74,109.2,40.500957,-3.373638,597.2,3,5,237.3,0.352
77.59,1,-0.009,-0.008,-0.01,-0.004,-0.003,-0.006,-1.562,0.023,-1.229,76.74,109.2,40.500957,-3.373638,597.2,3,5,237.3,0.352
77.69,1,0.026,-0.019,-0.003,0.011,-0.012,-0.007,-1.56,0.024,-1.229,76.74,109.2,40.500957,-3.373638,597.2,3,5,237.3,0.352
77.79,1,0.018,-0.011,-0.022,0.014,-0.014,-0.013,-1.558,0.026,-1.229,76.74,109.2,40.500957,-3.373638,597.2,3,5,237.3,0.352
77.89,1,-0.019,0.003,-0.019,0.002,-0.003,-0.016,-1.556,0.027,-1.229,76.74,109.2,40.500957,-3.373638,597.2,3,5,237.3,0.352
77.99,1,0.016,-0.072,-0.021,0.004,-0.033,-0.019,-1.555,0.027,-1.229,76.74,109.2,40.500957,-3.373638,597.2,3,5,237.3,0.352
78.09,1,-0.032,0.003,-0.0,-0.009,-0.026,-0.01,-1.553,0.022,-1.229,76.74,109.2,40.500957,-3.373638,597.2,3,5,237.3,0.352
78.19,1,-0.065,0.009,-0.02,-0.033,-0.003,-0.013,-1.552,0.019,-1.23,76.74,109.2,40.500957,-3.373638,597.2,3,5,237.3,0.352
78.3,1,-0.026,-0.039,0.009,-0.041,-0.015,-0.006,-1.556,0.021,-1.226,77.74,109.2,40.500813,-3.373941,596.6,3,5,238.0,1.055
78.4,1,-0.002,-0.028,0.002,-0.026,-0.027,0.003,-1.56,0.025,-1.221,77.74,109.2,40.500813,-3.373941,596.6,3,5,238.0,1.055
78.49,1,-0.009,-0.031,-0.003,-0.016,-0.03,-0.006,-1.557,0.026,-1.221,77.74,109.2,40.500813,-3.373941,596.6,3,5,238.0,1.055
78.59,1,0.031,-0.01,-0.002,0.007,-0.02,0.003,-1.554,0.024,-1.227,77.74,109.2,40.500813,-3.373941,596.6,3,5,238.0,1.055
78.7,1,0.014,-0.001,-0.006,0.02,-0.013,-0.005,-1.552,0.024,-1.227,77.74,109.2,40.500813,-3.373941,596.6,3,5,238.0,1.055
78.79,1,-0.003,0.013,0.015,0.007,0.002,0.004,-1.551,0.025,-1.226,77.74,109.2,40.500813,-3.373941,596.6,3,5,238.0,1.055
78.89,1,-0.026,-0.01,0.009,-0.009,0.002,0.009,-1.551,0.024,-1.226,77.74,109.2,40.500813,-3.373941,596.6,3,5,238.0,1.055
79.0,1,-0.002,-0.021,-0.013,-0.006,-0.009,0.001,-1.549,0.028,-1.226,77.74,109.2,40.500813,-3.373941,596.6,3,5,238.0,1.055
79.09,1,-0.015,-0.011,-0.01,-0.011,-0.014,-0.008,-1.549,0.03,-1.226,77.74,109.2,40.500813,-3.373941,596.6,3,5,238.0,1.055
79.2,1,-0.016,0.008,-0.007,-0.014,-0.002,-0.014,-1.549,0.031,-1.226,77.74,109.2,40.500813,-3.373941,596.6,3,5,238.0,1.055
79.3,1,-0.011,-0.003,-0.011,-0.016,-0.003,-0.008,-1.549,0.032,-1.226,78.71,109.0,40.500668,-3.374249,596.3,3,5,237.3,0.703
80.29,1,-0.064,-0.032,-0.005,-0.029,-0.007,-0.004,-1.549,0.025,-1.229,78.71,109.0,40.500668,-3.374249,596.3,3,5,237.3,0.703
88.27,1,-0.06,0.021,0.005,-0.058,-0.017,-0.004,-1.552,0.024,-1.233,78.71,109.0,40.500668,-3.374249,596.3,3,5,237.3,0.703
88.27,1,-0.044,0.065,0.014,-0.05,0.033,0.007,-1.554,0.026,-1.234,78.71,109.0,40.500668,-3.374249,596.3,3,5,237.3,0.703
88.27,1,-0.044,0.065,0.014,-0.046,0.054,0.011,-1.554,0.026,-1.234,78.71,109.0,40.500668,-3.374249,596.3,3,5,237.3,0.703
88.27,1,-0.044,0.065,0.014,-0.045,0.061,0.013,-1.554,0.026,-1.234,78.71,109.0,40.500668,-3.374249,596.3,3,5,237.3,0.703
88.28,1,-0.044,0.065,0.014,-0.044,0.064,0.013,-1.554,0.026,-1.234,78.71,109.0,40.500668,-3.374249,596.3,3,5,237.3,0.703
88.28,1,-0.044,0.065,0.014,-0.044,0.065,0.013,-1.554,0.026,-1.234,78.71,109.0,40.500668,-3.374249,596.3,3,5,237.3,0.703
88.28,1,-0.044,0.065,0.014,-0.044,0.065,0.013,-1.554,0.026,-1.234,78.71,109.0,40.500668,-3.374249,596.3,3,5,237.3,0.703
88.28,1,-0.044,0.065,0.014,-0.044,0.065,0.014,-1.554,0.026,-1.234,78.71,109.0,40.500668,-3.374249,596.3,3,5,237.3,0.703
88.28,1,-0.044,0.065,0.014,-0.044,0.065,0.014,-1.554,0.026,-1.234,88.8,109.0,40.499161,-3.377187,593.0,4,5,236.2,0.0
88.28,1,-0.044,0.065,0.014,-0.044,0.065,0.014,-1.554,0.026,-1.234,88.8,109.0,40.499161,-3.377187,593.0,4,5,236.2,0.0
88.28,1,-0.044,0.065,0.014,-0.044,0.065,0.014,-1.554,0.026,-1.234,88.8,109.0,40.499161,-3.377187,593.0,4,5,236.2,0.0
88.28,1,-0.044,0.065,0.014,-0.044,0.065,0.014,-1.554,0.026,-1.234,88.8,109.0,40.499161,-3.377187,593.0,4,5,236.2,0.0
88.28,1,-0.044,0.065,0.014,-0.044,0.065,0.014,-1.554,0.026,-1.234,88.8,109.0,40.499161,-3.377187,593.0,4,5,236.2,0.0
88.28,1,-0.044,0.065,0.014,-0.044,0.065,0.014,-1.554,0.026,-1.234,88.8,109.0,40.499161,-3.377187,593.0,4,5,236.2,0.0
88.28,1,-0.044,0.065,0.014,-0.044,0.065,0.014,-1.554,0.026,-1.234,88.8,109.0,40.499161,-3.377187,593.0,4,5,236.2,0.0
88.29,1,-0.044,0.065,0.014,-0.044,0.065,0.014,-1.554,0.026,-1.234,88.8,109.0,40.499161,-3.377187,593.0,4,5,236.2,0.0
88.29,1,-0.044,0.065,0.014,-0.044,0.065,0.014,-1.554,0.026,-1.234,88.8,109.0,40.499161,-3.377187,593.0,4,5,236.2,0.0
88.29,1,-0.044,0.065,0.014,-0.044,0.065,0.014,-1.554,0.026,-1.234,88.8,109.0,40.499161,-3.377187,593.0,4,5,236.2,0.0
88.29,1,-0.034,0.058,0.006,-0.043,0.065,0.013,-1.554,0.026,-1.234,89.75,109.4,40.499012,-3.377486,592.9,3,5,236.2,0.0
88.29,1,0.057,-0.006,-0.058,0.002,0.033,-0.019,-1.554,0.027,-1.234,89.75,109.4,40.499012,-3.377486,592.9,3,5,236.2,0.0
88.29,1,0.015,-0.006,-0.033,0.026,0.008,-0.037,-1.554,0.027,-1.234,89.75,109.4,40.499012,-3.377486,592.9,3,5,236.2,0.0
88.29,1,-0.026,-0.006,-0.009,-0.003,-0.001,-0.022,-1.554,0.027,-1.234,89.75,109.4,40.499012,-3.377486,592.9,3,5,236.2,0.0
88.29,1,-0.026,-0.006,-0.009,-0.018,-0.004,-0.014,-1.554,0.027,-1.234,89.75,109.4,40.499012,-3.377486,592.9,3,5,236.2,0.0
88.29,1,-0.026,-0.006,-0.009,-0.023,-0.005,-0.011,-1.554,0.027,-1.234,89.75,109.4,40.499012,-3.377486,592.9,3,5,236.2,0.0
88.43,1,0.026,0.018,0.018,-0.011,0.001,-0.001,-1.553,0.027,-1.234,89.75,109.4,40.499012,-3.377486,592.9,3,5,236.2,0.0
88.47,1,0.043,0.032,0.014,0.03,0.021,0.014,-1.552,0.027,-1.235,89.75,109.4,40.499012,-3.377486,592.9,3,5,236.2,0.0
88.56,1,0.013,0.02,0.001,0.026,0.025,0.009,-1.552,0.026,-1.235,89.75,109.4,40.499012,-3.377486,592.9,3,5,236.2,0.0
88.66,1,-0.03,-0.005,-0.003,-0.001,0.013,-0.005,-1.557,0.024,-1.235,89.75,109.4,40.499012,-3.377486,592.9,3,5,236.2,0.0
88.77,1,-0.043,0.024,0.022,-0.039,0.013,0.008,-1.561,0.026,-1.235,90.77,108.9,40.498867,-3.377793,593.0,4,5,236.6,0.352
88.87,1,-0.037,0.034,-0.005,-0.031,0.021,0.009,-1.56,0.027,-1.236,90.77,108.9,40.498867,-3.377793,593.0,4,5,236.6,0.352
88.97,1,-0.069,0.011,0.017,-0.044,0.021,0.007,-1.561,0.026,-1.236,90.77,108.9,40.498867,-3.377793,593.0,4,5,236.6,0.352
89.07,1,-0.007,0.007,0.008,-0.031,0.009,0.013,-1.565,0.027,-1.236,90.77,108.9,40.498867,-3.377793,593.0,4,5,236.6,0.352
89.17,1,-0.013,0.014,-0.001,-0.019,0.016,0.005,-1.566,0.025,-1.236,90.77,108.9,40.498867,-3.377793,593.0,4,5,236.6,0.352
89.27,1,-0.007,0.019,0.005,-0.013,0.015,0.004,-1.57,0.025,-1.236,90.77,108.9,40.498867,-3.377793,593.0,4,5,236.6,0.352
89.37,1,0.005,-0.019,-0.002,-0.011,0.004,0.002,-1.571,0.025,-1.236,90.77,108.9,40.498867,-3.377793,593.0,4,5,236.6,0.352
89.48,1,-0.003,-0.008,-0.002,-0.003,-0.007,-0.001,-1.571,0.025,-1.236,90.77,108.9,40.498867,-3.377793,593.0,4,5,236.6,0.352
89.57,1,-0.001,0.024,0.008,0.004,0.002,0.003,-1.571,0.027,-1.235,90.77,108.9,40.498867,-3.377793,593.0,4,5,236.6,0.352
89.67,1,0.042,-0.024,-0.002,0.019,0.001,0.0,-1.569,0.025,-1.235,90.77,108.9,40.498867,-3.377793,593.0,4,5,236.6,0.352
89.77,1,-0.026,-0.02,-0.013,0.009,-0.019,-0.005,-1.567,0.03,-1.235,91.74,108.8,40.498714,-3.378094,592.8,3,5,236.2,0.352
89.87,1,-0.054,0.027,0.008,-0.023,0.001,-0.001,-1.568,0.028,-1.236,91.74,108.8,40.498714,-3.378094,592.8,3,5,236.2,0.352
89.98,1,-0.092,0.033,-0.009,-0.067,0.021,-0.003,-1.57,0.027,-1.236,91.74,108.8,40.498714,-3.378094,592.8,3,5,236.2,0.352
90.07,1,-0.004,-0.016,0.009,-0.048,0.011,0.002,-1.57,0.026,-1.236,91.74,108.8,40.498714,-3.378094,592.8,3,5,236.2,0.352
90.18,1,-0.001,0.016,0.015,-0.016,0.006,0.007,-1.571,0.028,-1.236,91.74,108.8,40.498714,-3.378094,592.8,3,5,236.2,0.352
90.28,1,-0.024,0.06,-0.008,-0.009,0.025,0.005,-1.57,0.027,-1.237,91.74,108.8,40.498714,-3.378094,592.8,3,5,236.2,0.352
90.37,1,0.026,0.03,0.021,-0.002,0.039,0.002,-1.572,0.025,-1.238,91.74,108.8,40.498714,-3.378094,592.8,3,5,236.2,0.352
90.47,1,0.019,0.014,-0.017,0.008,0.03,0.001,-1.574,0.022,-1.238,91.74,108.8,40.498714,-3.378094,592.8,3,5,236.2,0.352
90.57,1,-0.044,0.001,-0.003,-0.014,0.015,-0.003,-1.575,0.019,-1.239,91.74,108.8,40.498714,-3.378094,592.8,3,5,236.2,0.352
90.67,1,-0.081,0.032,-0.017,-0.042,0.02,-0.01,-1.576,0.02,-1.239,91.74,108.8,40.498714,-3.378094,592.8,3,5,236.2,0.352
90.77,1,-0.034,0.016,-0.0,-0.057,0.015,-0.006,-1.577,0.022,-1.239,92.78,110.1,40.498566,-3.378391,593.1,3,5,236.6,0.352
91.18,1,0.026,-0.004,-0.001,0.021,-0.008,-0.0,-1.572,0.024,-1.241,92.78,110.1,40.498566,-3.378391,593.1,3,5,236.6,0.352
91.27,1,-0.017,0.013,-0.01,0.009,-0.002,-0.005,-1.571,0.024,-1.241,92.78,110.1,40.498566,-3.378391,593.1,3,5,236.6,0.352
91.38,1,-0.048,0.003,-0.019,-0.021,0.01,-0.008,-1.57,0.022,-1.241,92.78,110.1,40.498566,-3.378391,593.1,3,5,236.6,0.352
91.48,1,-0.062,0.005,-0.012,-0.045,0.003,-0.016,-1.571,0.023,-1.241,92.78,110.1,40.498566,-3.378391,593.1,3,5,236.6,0.352
91.57,1,-0.068,-0.007,-0.004,-0.063,0.003,-0.01,-1.573,0.024,-1.241,92.78,110.1,40.498566,-3.378391,593.1,3,5,236.6,0.352
91.67,1,-0.007,0.001,0.006,-0.04,-0.002,0.003,-1.574,0.022,-1.241,92.78,110.1,40.498566,-3.378391,593.1,3,5,236.6,0.352
91.77,1,0.054,-0.017,-0.004,-0.006,-0.006,-0.003,-1.573,0.022,-1.242,92.78,110.1,40.498566,-3.378391,593.1,3,5,236.6,0.352
91.87,1,0.011,0.024,-0.023,0.032,-0.001,-0.01,-1.573,0.021,-1.242,92.78,110.1,40.498566,-3.378391,593.1,3,5,236.6,0.352
91.97,1,0.029,0.018,0.016,0.023,0.016,-0.005,-1.572,0.02,-1.243,92.78,110.1,40.498566,-3.378391,593.1,3,5,236.6,0.352
92.08,1,-0.005,-0.008,-0.013,0.006,0.009,-0.0,-1.573,0.021,-1.244,93.75,112.5,40.498413,-3.378696,592.8,4,5,236.2,0.352
92.18,1,-0.008,-0.0,-0.005,0.007,-0.002,-0.008,-1.573,0.02,-1.244,93.75,112.5,40.498413,-3.378696,592.8,4,5,236.2,0.352
92.28,1,-0.028,-0.007,-0.021,-0.017,-0.005,-0.01,-1.572,0.017,-1.244,93.75,112.5,40.498413,-3.378696,592.8,4,5,236.2,0.352
92.38,1,0.02,0.005,0.001,0.007,-0.001,-0.011,-1.569,0.015,-1.244,93.75,112.5,40.498413,-3.378696,592.8,4,5,236.2,0.352
92.48,1,0.012,-0.012,-0.025,0.004,-0.001,-0.014,-1.568,0.018,-1.244,93.75,112.5,40.498413,-3.378696,592.8,4,5,236.2,0.352
92.58,1,0.019,-0.037,-0.007,0.014,-0.02,-0.014,-1.567,0.02,-1.244,93.75,112.5,40.498413,-3.378696,592.8,4,5,236.2,0.352
92.69,1,-0.004,-0.001,-0.021,0.005,-0.016,-0.015,-1.567,0.021,-1.243,93.75,112.5,40.498413,-3.378696,592.8,4,5,236.2,0.352
92.78,1,-0.035,-0.015,0.007,-0.013,-0.011,-0.001,-1.567,0.023,-1.243,93.75,112.5,40.498413,-3.378696,592.8,4,5,236.2,0.352
92.88,1,-0.027,-0.012,0.001,-0.024,-0.014,-0.002,-1.567,0.023,-1.243,93.75,112.5,40.498413,-3.378696,592.8,4,5,236.2,0.352
92.98,1,-0.01,0.009,-0.007,-0.02,-0.006,-0.004,-1.566,0.024,-1.243,93.75,112.5,40.498413,-3.378696,592.8,4,5,236.2,0.352
93.08,1,-0.032,-0.001,-0.011,-0.021,0.002,-0.003,-1.565,0.025,-1.243,94.72,110.9,40.498257,-3.379006,592.1,4,5,236.2,0.352
93.19,1,-0.042,0.001,0.01,-0.035,-0.001,-0.003,-1.565,0.023,-1.243,94.72,110.9,40.498257,-3.379006,592.1,4,5,236.2,0.352
93.28,1,-0.014,0.011,-0.0,-0.031,0.005,-0.0,-1.566,0.022,-1.244,94.72,110.9,40.498257,-3.379006,592.1,4,5,236.2,0.352
93.38,1,0.001,-0.003,0.008,-0.004,0.002,0.008,-1.567,0.023,-1.244,94.72,110.9,40.498257,-3.379006,592.1,4,5,236.2,0.352
93.48,1,-0.003,-0.014,-0.006,-0.008,-0.002,-0.003,-1.567,0.023,-1.244,94.72,110.9,40.498257,-3.379006,592.1,4,5,236.2,0.352
93.59,1,-0.015,0.026,0.0,-0.01,0.003,-0.001,-1.566,0.023,-1.245,94.72,110.9,40.498257,-3.379006,592.1,4,5,236.2,0.352
93.68,1,0.022,0.04,0.001,0.001,0.025,0.001,-1.566,0.022,-1.245,94.72,110.9,40.498257,-3.379006,592.1,4,5,236.2,0.352
93.79,1,-0.014,0.009,0.008,0.002,0.026,0.001,-1.565,0.025,-1.245,94.72,110.9,40.498257,-3.379006,592.1,4,5,236.2,0.352
93.89,1,-0.001,-0.023,0.003,-0.003,-0.0,0.006,-1.565,0.027,-1.245,94.72,110.9,40.498257,-3.379006,592.1,4,5,236.2,0.352
93.98,1,-0.026,-0.024,0.006,-0.012,-0.012,0.003,-1.563,0.028,-1.245,94.72,110.9,40.498257,-3.379006,592.1,4,5,236.2,0.352
94.08,1,-0.007,-0.007,0.009,-0.016,-0.015,0.01,-1.562,0.029,-1.245,95.73,110.4,40.498093,-3.379312,592.8,3,5,236.2,0.0
94.18,1,0.026,-0.02,0.018,0.0,-0.014,0.008,-1.562,0.029,-1.246,95.73,110.4,40.498093,-3.379312,592.8,3,5,236.2,0.0
94.29,1,-0.073,0.01,-0.01,-0.014,-0.007,0.007,-1.563,0.03,-1.245,95.73,110.4,40.498093,-3.379312,592.8,3,5,236.2,0.0
94.39,1,0.001,0.001,0.018,-0.03,-0.0,0.008,-1.565,0.029,-1.245,95.73,110.4,40.498093,-3.379312,592.8,3,5,236.2,0.0
94.48,1,0.006,0.012,-0.001,-0.001,0.006,0.009,-1.565,0.03,-1.245,95.73,110.4,40.498093,-3.379312,592.8,3,5,236.2,0.0
94.58,1,-0.008,0.007,-0.007,-0.006,0.007,-0.002,-1.564,0.029,-1.245,95.73,110.4,40.498093,-3.379312,592.8,3,5,236.2,0.0
94.68,1,-0.042,0.002,0.02,-0.025,0.004,0.009,-1.564,0.03,-1.244,95.73,110.4,40.498093,-3.379312,592.8,3,5,236.2,0.0
94.79,1,0.019,-0.004,0.024,0.002,-0.002,0.014,-1.563,0.032,-1.244,95.73,110.4,40.498093,-3.379312,592.8,3,5,236.2,0.0
94.88,1,-0.007,0.015,0.0,-0.003,0.009,0.008,-1.562,0.034,-1.244,95.73,110.4,40.498093,-3.379312,592.8,3,5,236.2,0.0
94.99,1,-0.034,0.024,-0.004,-0.026,0.017,0.001,-1.561,0.032,-1.244,95.73,110.4,40.498093,-3.379312,592.8,3,5,236.2,0.0
95.08,1,-0.009,0.005,0.003,-0.01,0.01,0.005,-1.561,0.031,-1.244,96.8,110.6,40.49794,-3.379614,592.4,4,5,235.9,0.352
95.18,1,-0.021,0.008,0.001,-0.014,0.006,0.003,-1.562,0.031,-1.244,96.8,110.6,40.49794,-3.379614,592.4,4,5,235.9,0.352
95.29,1,0.026,-0.007,0.03,-0.01,0.006,0.014,-1.562,0.031,-1.244,96.8,110.6,40.49794,-3.379614,592.4,4,5,235.9,0.352
95.39,1,0.053,0.001,0.011,0.031,-0.004,0.011,-1.56,0.031,-1.244,96.8,110.6,40.49794,-3.379614,592.4,4,5,235.9,0.352
95.49,1,-0.008,0.013,-0.011,0.022,0.005,0.01,-1.56,0.032,-1.244,96.8,110.6,40.49794,-3.379614,592.4,4,5,235.9,0.352
95.6,1,-0.042,0.043,0.011,-0.016,0.024,-0.0,-1.561,0.029,-1.244,96.8,110.6,40.49794,-3.379614,592.4,4,5,235.9,0.352
95.69,1,-0.007,0.006,0.026,-0.022,0.025,0.016,-1.561,0.027,-1.244,96.8,110.6,40.49794,-3.379614,592.4,4,5,235.9,0.352
95.79,1,-0.018,-0.009,0.005,-0.009,0.002,0.011,-1.561,0.027,-1.244,96.8,110.6,40.49794,-3.379614,592.4,4,5,235.9,0.352
95.89,1,-0.04,-0.006,-0.011,-0.027,-0.011,0.002,-1.562,0.029,-1.244,96.8,110.6,40.49794,-3.379614,592.4,4,5,235.9,0.352
96.0,1,0.006,-0.005,0.01,-0.018,-0.0,0.003,-1.564,0.03,-1.244,96.8,110.6,40.49794,-3.379614,592.4,4,5,235.9,0.352
96.09,1,0.029,-0.004,0.007,0.005,-0.003,0.008,-1.564,0.029,-1.244,97.77,111.3,40.497787,-3.379917,592.2,4,5,236.2,0.352
96.19,1,0.013,0.008,-0.008,0.016,0.003,-0.0,-1.564,0.026,-1.243,97.77,111.3,40.497787,-3.379917,592.2,4,5,236.2,0.352
96.29,1,0.007,-0.003,0.004,0.005,0.009,0.002,-1.566,0.027,-1.243,97.77,111.3,40.497787,-3.379917,592.2,4,5,236.2,0.352
96.39,1,0.024,-0.009,0.009,0.015,-0.009,0.002,-1.566,0.024,-1.243,97.77,111.3,40.497787,-3.379917,592.2,4,5,236.2,0.352
96.49,1,-0.056,0.029,-0.001,-0.003,0.01,-0.0,-1.565,0.024,-1.244,97.77,111.3,40.497787,-3.379917,592.2,4,5,236.2,0.352
96.59,1,-0.064,-0.005,-0.008,-0.039,0.007,-0.0,-1.564,0.026,-1.244,97.77,111.3,40.497787,-3.379917,592.2,4,5,236.2,0.352
96.69,1,-0.03,-0.044,0.004,-0.044,-0.016,0.001,-1.564,0.026,-1.244,97.77,111.3,40.497787,-3.379917,592.2,4,5,236.2,0.352
96.8,1,0.034,0.022,0.015,-0.01,-0.012,0.006,-1.563,0.023,-1.245,97.77,111.3,40.497787,-3.379917,592.2,4,5,236.2,0.352
96.9,1,-0.021,0.053,0.001,-0.011,0.028,0.002,-1.56,0.019,-1.245,97.77,111.3,40.497787,-3.379917,592.2,4,5,236.2,0.352
96.99,1,-0.02,-0.008,0.005,-0.007,0.016,0.006,-1.561,0.022,-1.245,97.77,111.3,40.497787,-3.379917,592.2,4,5,236.2,0.352
97.09,1,-0.015,-0.0,0.0,-0.004,-0.003,0.003,-1.563,0.023,-1.246,98.72,111.2,40.497635,-3.380226,592.0,4,5,235.9,0.352
97.19,1,-0.023,0.026,-0.001,-0.031,0.017,0.001,-1.566,0.02,-1.246,98.72,111.2,40.497635,-3.380226,592.0,4,5,235.9,0.352
97.3,1,-0.001,-0.011,-0.011,-0.014,0.01,-0.004,-1.567,0.019,-1.246,98.72,111.2,40.497635,-3.380226,592.0,4,5,235.9,0.352
97.4,1,-0.001,-0.017,-0.004,-0.005,-0.011,-0.005,-1.566,0.021,-1.246,98.72,111.2,40.497635,-3.380226,592.0,4,5,235.9,0.352
97.49,1,-0.037,0.003,-0.006,-0.015,-0.012,-0.003,-1.566,0.022,-1.246,98.72,111.2,40.497635,-3.380226,592.0,4,5,235.9,0.352
97.59,1,-0.001,0.012,-0.002,-0.015,0.008,-0.005,-1.566,0.023,-1.247,98.72,111.2,40.497635,-3.380226,592.0,4,5,235.9,0.352
97.69,1,0.028,-0.007,0.007,0.011,0.004,-0.004,-1.566,0.022,-1.247,98.72,111.2,40.497635,-3.380226,592.0,4,5,235.9,0.352
97.79,1,0.0,0.015,-0.013,0.007,0.008,-0.0,-1.567,0.024,-1.247,98.72,111.2,40.497635,-3.380226,592.0,4,5,235.9,0.352
97.89,1,0.003,0.0,-0.002,-0.006,0.009,-0.01,-1.566,0.024,-1.247,98.72,111.2,40.497635,-3.380226,592.0,4,5,235.9,0.352
98.01,1,-0.061,0.021,-0.016,-0.021,0.009,-0.007,-1.569,0.025,-1.247,98.72,111.2,40.497635,-3.380226,592.0,4,5,235.9,0.352
98.09,1,-0.034,0.017,-0.016,-0.04,0.015,-0.008,-1.568,0.029,-1.247,99.72,109.3,40.497475,-3.380526,591.7,4,5,235.5,0.703
98.19,1,-0.022,0.002,-0.013,-0.026,0.009,-0.013,-1.567,0.029,-1.247,99.72,109.3,40.497475,-3.380526,591.7,4,5,235.5,0.703
98.3,1,-0.004,0.014,0.003,-0.019,0.008,-0.007,-1.569,0.027,-1.248,99.72,109.3,40.497475,-3.380526,591.7,4,5,235.5,0.703
98.4,1,-0.01,0.005,-0.008,-0.005,0.007,-0.006,-1.567,0.028,-1.248,99.72,109.3,40.497475,-3.380526,591.7,4,5,235.5,0.703
98.5,1,0.008,-0.009,-0.016,-0.009,0.003,-0.011,-1.567,0.027,-1.248,99.72,109.3,40.497475,-3.380526,591.7,4,5,235.5,0.703
98.61,1,-0.017,0.006,-0.008,-0.002,-0.001,-0.009,-1.566,0.026,-1.248,99.72,109.3,40.497475,-3.380526,591.7,4,5,235.5,0.703
98.71,1,0.03,-0.002,0.014,0.006,-0.0,-0.001,-1.564,0.025,-1.249,99.72,109.3,40.497475,-3.380526,591.7,4,5,235.5,0.703
98.8,1,-0.011,0.033,-0.023,0.009,0.012,-0.003,-1.561,0.026,-1.249,99.72,109.3,40.497475,-3.380526,591.7,4,5,235.5,0.703
98.9,1,0.03,-0.02,-0.009,0.006,0.007,-0.013,-1.561,0.028,-1.249,99.72,109.3,40.497475,-3.380526,591.7,4,5,235.5,0.703
99.0,1,-0.06,-0.002,0.027,-0.006,-0.008,0.003,-1.561,0.027,-1.249,99.72,109.3,40.497475,-3.380526,591.7,4,5,235.5,0.703
99.1,1,-0.035,0.028,-0.003,-0.046,0.012,0.003,-1.563,0.027,-1.249,100.75,111.2,40.49733,-3.380834,591.4,4,5,236.2,0.703
99.2,1,-0.038,0.019,0.002,-0.026,0.019,0.006,-1.566,0.025,-1.249,100.75,111.2,40.49733,-3.380834,591.4,4,5,236.2,0.703
99.3,1,0.002,0.004,0.006,-0.016,0.01,0.005,-1.566,0.022,-1.249,100.75,111.2,40.49733,-3.380834,591.4,4,5,236.2,0.703
99.4,1,-0.004,0.014,0.01,-0.013,0.013,0.007,-1.569,0.019,-1.25,100.75,111.2,40.49733,-3.380834,591.4,4,5,236.2,0.703
99.5,1,-0.015,-0.0,-0.006,-0.015,0.008,-0.003,-1.569,0.017,-1.25,100.75,111.2,40.49733,-3.380834,591.4,4,5,236.2,0.703
99.6,1,0.007,-0.01,0.004,0.001,-0.004,0.004,-1.569,0.014,-1.251,100.75,111.2,40.49733,-3.380834,591.4,4,5,236.2,0.703
99.7,1,0.003,0.028,-0.013,-0.006,0.011,-0.004,-1.568,0.01,-1.251,100.75,111.2,40.49733,-3.380834,591.4,4,5,236.2,0.703
99.81,1,-0.008,0.006,-0.002,-0.001,0.013,-0.002,-1.567,0.009,-1.252,100.75,111.2,40.49733,-3.380834,591.4,4,5,236.2,0.703
99.91,1,0.016,-0.008,0.01,0.002,0.003,0.002,-1.568,0.011,-1.252,100.75,111.2,40.49733,-3.380834,591.4,4,5,236.2,0.703
100.0,1,-0.032,0.02,-0.006,0.0,0.004,0.004,-1.566,0.01,-1.253,100.75,111.2,40.49733,-3.380834,591.4,4,5,236.2,0.703
100.1,1,0.004,-0.01,0.016,-0.008,0.001,0.007,-1.566,0.009,-1.253,101.74,112.1,40.497173,-3.381139,591.3,3,5,236.2,0.703
100.2,1,-0.043,-0.019,0.006,-0.021,-0.008,0.004,-1.567,0.01,-1.253,101.74,112.1,40.497173,-3.381139,591.3,3,5,236.2,0.703
100.3,1,-0.03,0.001,0.005,-0.025,-0.009,0.007,-1.568,0.01,-1.254,101.74,112.1,40.497173,-3.381139,591.3,3,5,236.2,0.703
100.4,1,-0.015,-0.002,0.001,-0.029,-0.0,0.0,-1.567,0.011,-1.254,101.74,112.1,40.497173,-3.381139,591.3,3,5,236.2,0.703
100.5,1,-0.032,-0.017,0.004,-0.025,-0.008,0.007,-1.567,0.012,-1.254,101.74,112.1,40.497173,-3.381139,591.3,3,5,236.2,0.703
100.61,1,0.018,-0.023,-0.008,-0.014,-0.014,-0.001,-1.567,0.015,-1.254,101.74,112.1,40.497173,-3.381139,591.3,3,5,236.2,0.703
100.7,1,0.005,-0.005,-0.006,0.004,-0.016,-0.003,-1.568,0.015,-1.254,101.74,112.1,40.497173,-3.381139,591.3,3,5,236.2,0.703
100.9,1,0.002,0.018,0.003,-0.014,0.007,0.012,-1.569,0.017,-1.254,101.74,112.1,40.497173,-3.381139,591.3,3,5,236.2,0.703
101.01,1,0.008,-0.015,0.001,0.007,0.001,0.008,-1.568,0.018,-1.254,101.74,112.1,40.497173,-3.381139,591.3,3,5,236.2,0.703
101.1,1,-0.009,-0.009,0.001,-0.0,-0.008,0.005,-1.567,0.019,-1.254,101.74,112.1,40.497173,-3.381139,591.3,3,5,236.2,0.703
101.2,1,-0.026,-0.001,0.001,-0.018,-0.003,0.003,-1.567,0.019,-1.255,102.74,111.6,40.497028,-3.381446,591.0,3,5,236.6,0.352
101.3,1,0.016,0.008,0.007,-0.005,0.003,0.002,-1.569,0.019,-1.255,102.74,111.6,40.497028,-3.381446,591.0,3,5,236.6,0.352
101.41,1,-0.019,0.026,0.01,-0.006,0.01,0.008,-1.57,0.019,-1.255,102.74,111.6,40.497028,-3.381446,591.0,3,5,236.6,0.352
101.51,1,0.036,-0.018,0.005,0.012,0.004,0.008,-1.57,0.02,-1.255,102.74,111.6,40.497028,-3.381446,591.0,3,5,236.6,0.352
101.61,1,0.0,0.011,-0.007,0.011,0.0,0.003,-1.57,0.022,-1.255,102.74,111.6,40.497028,-3.381446,591.0,3,5,236.6,0.352
101.71,1,-0.042,-0.011,0.008,-0.002,-0.001,0.003,-1.57,0.021,-1.255,102.74,111.6,40.497028,-3.381446,591.0,3,5,236.6,0.352
101.81,1,-0.036,0.001,0.01,-0.043,0.001,-0.003,-1.573,0.022,-1.255,102.74,111.6,40.497028,-3.381446,591.0,3,5,236.6,0.352
101.91,1,-0.024,-0.005,-0.003,-0.015,0.002,0.007,-1.574,0.024,-1.255,102.74,111.6,40.497028,-3.381446,591.0,3,5,236.6,0.352
102.01,1,-0.046,0.031,-0.01,-0.049,0.016,-0.005,-1.574,0.027,-1.255,102.74,111.6,40.497028,-3.381446,591.0,3,5,236.6,0.352
102.11,1,0.016,-0.011,-0.013,-0.017,0.004,-0.005,-1.573,0.024,-1.255,102.74,111.6,40.497028,-3.381446,591.0,3,5,236.6,0.352
102.21,1,0.048,-0.033,-0.008,0.011,-0.021,-0.013,-1.572,0.029,-1.255,103.8,111.7,40.496872,-3.381754,591.4,3,5,236.6,0.352
102.32,1,-0.08,0.017,0.0,-0.004,-0.008,-0.006,-1.571,0.03,-1.254,103.8,111.7,40.496872,-3.381754,591.4,3,5,236.6,0.352
102.41,1,-0.033,-0.001,-0.019,-0.046,0.007,-0.008,-1.571,0.031,-1.255,103.8,111.7,40.496872,-3.381754,591.4,3,5,236.6,0.352
102.51,1,-0.008,0.004,-0.008,-0.023,-0.004,-0.011,-1.572,0.032,-1.255,103.8,111.7,40.496872,-3.381754,591.4,3,5,236.6,0.352
102.61,1,-0.084,0.043,-0.027,-0.042,0.018,-0.017,-1.573,0.034,-1.255,103.8,111.7,40.496872,-3.381754,591.4,3,5,236.6,0.352
102.72,1,0.03,-0.013,0.019,-0.025,0.013,-0.004,-1.573,0.032,-1.255,103.8,111.7,40.496872,-3.381754,591.4,3,5,236.6,0.352
102.81,1,0.0,-0.006,-0.027,0.007,-0.003,-0.005,-1.574,0.032,-1.255,103.8,111.7,40.496872,-3.381754,591.4,3,5,236.6,0.352
102.91,1,-0.019,0.012,-0.006,-0.013,0.005,-0.014,-1.572,0.031,-1.255,103.8,111.7,40.496872,-3.381754,591.4,3,5,236.6,0.352
103.01,1,0.009,0.01,-0.018,-0.001,0.003,-0.009,-1.575,0.029,-1.255,103.8,111.7,40.496872,-3.381754,591.4,3,5,236.6,0.352
103.11,1,-0.022,0.004,-0.012,-0.015,0.009,-0.015,-1.574,0.024,-1.255,103.8,111.7,40.496872,-3.381754,591.4,3,5,236.6,0.352
103.21,1,0.015,-0.011,-0.011,0.003,0.001,-0.008,-1.573,0.022,-1.255,104.74,111.7,40.496719,-3.382063,591.8,3,5,236.2,0.352
103.31,1,0.027,-0.024,0.01,0.008,-0.011,-0.011,-1.573,0.024,-1.255,104.74,111.7,40.496719,-3.382063,591.8,3,5,236.2,0.352
103.41,1,0.022,-0.018,-0.009,0.032,-0.027,0.003,-1.573,0.027,-1.255,104.74,111.7,40.496719,-3.382063,591.8,3,5,236.2,0.352
103.52,1,-0.049,-0.006,-0.008,-0.022,-0.006,-0.008,-1.573,0.029,-1.254,104.74,111.7,40.496719,-3.382063,591.8,3,5,236.2,0.352
103.61,1,0.022,-0.035,0.01,0.006,-0.022,-0.001,-1.57,0.028,-1.254,104.74,111.7,40.496719,-3.382063,591.8,3,5,236.2,0.352
103.71,1,-0.088,-0.001,-0.006,-0.04,-0.008,-0.001,-1.57,0.026,-1.253,104.74,111.7,40.496719,-3.382063,591.8,3,5,236.2,0.352
103.81,1,-0.009,-0.05,0.005,-0.03,-0.032,-0.003,-1.573,0.025,-1.253,104.74,111.7,40.496719,-3.382063,591.8,3,5,236.2,0.352
103.91,1,0.053,0.011,-0.021,0.001,-0.02,-0.002,-1.569,0.025,-1.253,104.74,111.7,40.496719,-3.382063,591.8,3,5,236.2,0.352
104.01,1,-0.011,0.05,-0.011,0.011,0.023,-0.007,-1.566,0.027,-1.253,104.74,111.7,40.496719,-3.382063,591.8,3,5,236.2,0.352
104.11,1,-0.099,0.009,-0.031,-0.044,0.026,-0.028,-1.566,0.032,-1.252,104.74,111.7,40.496719,-3.382063,591.8,3,5,236.2,0.352
104.21,1,-0.027,-0.001,-0.008,-0.044,-0.002,-0.017,-1.563,0.037,-1.252,105.74,112.2,40.496555,-3.382372,591.6,3,5,235.9,0.703
104.32,1,-0.009,0.036,0.005,-0.031,0.021,-0.005,-1.561,0.04,-1.252,105.74,112.2,40.496555,-3.382372,591.6,3,5,235.9,0.703
104.41,1,-0.113,-0.002,0.017,-0.073,0.021,0.005,-1.562,0.045,-1.25,105.74,112.2,40.496555,-3.382372,591.6,3,5,235.9,0.703
104.53,1,0.069,-0.056,0.002,-0.008,-0.026,0.01,-1.562,0.044,-1.25,105.74,112.2,40.496555,-3.382372,591.6,3,5,235.9,0.703
104.61,1,-0.027,0.006,0.019,0.011,-0.018,0.01,-1.561,0.039,-1.25,105.74,112.2,40.496555,-3.382372,591.6,3,5,235.9,0.703
104.72,1,0.079,-0.012,-0.009,0.025,-0.01,0.003,-1.561,0.037,-1.25,105.74,112.2,40.496555,-3.382372,591.6,3,5,235.9,0.703
104.82,1,-0.012,0.013,-0.013,0.031,-0.006,-0.002,-1.563,0.036,-1.25,105.74,112.2,40.496555,-3.382372,591.6,3,5,235.9,0.703
104.92,1,-0.075,0.056,-0.018,-0.036,0.03,-0.01,-1.562,0.032,-1.25,105.74,112.2,40.496555,-3.382372,591.6,3,5,235.9,0.703
105.02,1,-0.004,-0.007,0.005,-0.031,0.02,-0.003,-1.563,0.033,-1.249,105.74,112.2,40.496555,-3.382372,591.6,3,5,235.9,0.703
105.12,1,0.0,0.004,-0.008,0.0,0.002,-0.005,-1.563,0.032,-1.249,105.74,112.2,40.496555,-3.382372,591.6,3,5,235.9,0.703
105.22,1,-0.049,0.042,-0.014,-0.028,0.024,-0.015,-1.563,0.033,-1.249,106.72,111.3,40.496395,-3.382669,591.2,3,5,235.9,0.352
105.32,1,-0.028,-0.009,-0.017,-0.027,0.007,-0.013,-1.562,0.039,-1.249,106.72,111.3,40.496395,-3.382669,591.2,3,5,235.9,0.352
105.42,1,-0.091,0.036,0.011,-0.063,0.024,-0.006,-1.561,0.044,-1.249,106.72,111.3,40.496395,-3.382669,591.2,3,5,235.9,0.352
105.52,1,0.015,0.002,0.003,-0.032,0.014,-0.0,-1.563,0.048,-1.249,106.72,111.3,40.496395,-3.382669,591.2,3,5,235.9,0.352
105.62,1,-0.002,-0.006,-0.017,-0.023,0.004,-0.0,-1.564,0.049,-1.248,106.72,111.3,40.496395,-3.382669,591.2,3,5,235.9,0.352
105.72,1,-0.026,0.029,0.003,-0.018,0.018,-0.004,-1.562,0.049,-1.248,106.72,111.3,40.496395,-3.382669,591.2,3,5,235.9,0.352
105.82,1,0.016,0.017,0.003,-0.002,0.018,0.001,-1.562,0.05,-1.248,106.72,111.3,40.496395,-3.382669,591.2,3,5,235.9,0.352
105.92,1,0.022,0.004,0.002,0.014,0.01,0.003,-1.563,0.05,-1.248,106.72,111.3,40.496395,-3.382669,591.2,3,5,235.9,0.352
106.02,1,0.017,0.02,-0.029,0.025,0.008,-0.011,-1.566,0.047,-1.247,106.72,111.3,40.496395,-3.382669,591.2,3,5,235.9,0.352
106.12,1,-0.026,0.015,-0.023,-0.006,0.021,-0.024,-1.566,0.045,-1.247,106.72,111.3,40.496395,-3.382669,591.2,3,5,235.9,0.352
106.22,1,0.005,0.003,-0.009,-0.0,0.008,-0.014,-1.566,0.044,-1.247,107.75,111.5,40.496235,-3.382969,591.0,3,5,235.9,0.0
106.33,1,-0.054,0.034,-0.006,-0.028,0.02,-0.011,-1.565,0.042,-1.246,107.75,111.5,40.496235,-3.382969,591.0,3,5,235.9,0.0
106.43,1,-0.001,-0.019,-0.017,-0.023,0.01,-0.012,-1.564,0.044,-1.246,107.75,111.5,40.496235,-3.382969,591.0,3,5,235.9,0.0
106.52,1,0.019,-0.04,-0.015,0.001,-0.021,-0.016,-1.566,0.047,-1.244,107.75,111.5,40.496235,-3.382969,591.0,3,5,235.9,0.0
106.63,1,0.048,-0.038,-0.006,0.026,-0.032,-0.01,-1.566,0.051,-1.244,107.75,111.5,40.496235,-3.382969,591.0,3,5,235.9,0.0
106.73,1,-0.022,-0.001,-0.01,0.016,-0.022,-0.01,-1.566,0.047,-1.243,107.75,111.5,40.496235,-3.382969,591.0,3,5,235.9,0.0
106.82,1,0.0,0.004,-0.012,-0.009,-0.003,-0.012,-1.564,0.044,-1.242,107.75,111.5,40.496235,-3.382969,591.0,3,5,235.9,0.0
106.92,1,-0.055,-0.02,-0.039,-0.012,-0.013,-0.022,-1.562,0.044,-1.241,107.75,111.5,40.496235,-3.382969,591.0,3,5,235.9,0.0
107.02,1,-0.042,-0.0,0.011,-0.04,-0.011,-0.013,-1.565,0.048,-1.24,107.75,111.5,40.496235,-3.382969,591.0,3,5,235.9,0.0
107.13,1,-0.021,-0.006,-0.01,-0.042,-0.001,-0.009,-1.565,0.05,-1.239,107.75,111.5,40.496235,-3.382969,591.0,3,5,235.9,0.0
107.22,1,0.025,-0.025,0.002,-0.003,-0.013,-0.001,-1.564,0.051,-1.238,108.73,110.6,40.496086,-3.383272,591.1,3,5,234.8,1.055
107.32,1,0.002,-0.01,-0.004,0.004,-0.017,-0.003,-1.562,0.05,-1.238,108.73,110.6,40.496086,-3.383272,591.1,3,5,234.8,1.055
107.42,1,-0.007,-0.008,0.003,-0.003,-0.011,0.001,-1.564,0.047,-1.237,108.73,110.6,40.496086,-3.383272,591.1,3,5,234.8,1.055
107.53,1,0.03,-0.019,-0.0,0.012,-0.011,0.001,-1.564,0.045,-1.236,108.73,110.6,40.496086,-3.383272,591.1,3,5,234.8,1.055
107.62,1,-0.063,-0.002,-0.004,-0.003,-0.014,0.0,-1.565,0.046,-1.235,108.73,110.6,40.496086,-3.383272,591.1,3,5,234.8,1.055
107.73,1,-0.023,-0.005,-0.009,-0.037,-0.003,-0.008,-1.566,0.047,-1.234,108.73,110.6,40.496086,-3.383272,591.1,3,5,234.8,1.055
107.83,1,0.024,-0.012,0.003,-0.007,-0.013,-0.003,-1.565,0.049,-1.233,108.73,110.6,40.496086,-3.383272,591.1,3,5,234.8,1.055
107.93,1,-0.02,-0.004,0.001,-0.004,-0.004,-0.004,-1.562,0.048,-1.233,108.73,110.6,40.496086,-3.383272,591.1,3,5,234.8,1.055
108.03,1,0.017,0.007,0.0,0.002,-0.001,-0.002,-1.562,0.048,-1.232,108.73,110.6,40.496086,-3.383272,591.1,3,5,234.8,1.055
108.14,1,-0.017,0.001,0.013,-0.012,0.003,0.007,-1.563,0.046,-1.231,108.73,110.6,40.496086,-3.383272,591.1,3,5,234.8,1.055
108.23,1,-0.04,0.015,0.007,-0.014,0.005,0.013,-1.562,0.047,-1.231,109.72,110.5,40.495926,-3.383573,590.9,3,5,234.5,1.406
108.34,1,-0.035,0.021,0.005,-0.033,0.013,0.004,-1.563,0.048,-1.23,109.72,110.5,40.495926,-3.383573,590.9,3,5,234.5,1.406
108.43,1,0.027,-0.01,0.029,-0.011,0.007,0.016,-1.563,0.048,-1.229,109.72,110.5,40.495926,-3.383573,590.9,3,5,234.5,1.406
108.53,1,-0.004,0.012,0.012,0.006,0.001,0.018,-1.564,0.049,-1.229,109.72,110.5,40.495926,-3.383573,590.9,3,5,234.5,1.406
108.63,1,-0.032,0.01,0.007,-0.014,0.012,0.008,-1.564,0.05,-1.228,109.72,110.5,40.495926,-3.383573,590.9,3,5,234.5,1.406
108.73,1,-0.005,-0.008,-0.005,-0.014,-0.0,0.007,-1.565,0.051,-1.228,109.72,110.5,40.495926,-3.383573,590.9,3,5,234.5,1.406
108.83,1,-0.035,0.003,0.013,-0.015,0.0,0.002,-1.565,0.05,-1.227,109.72,110.5,40.495926,-3.383573,590.9,3,5,234.5,1.406
108.93,1,-0.043,-0.017,0.028,-0.036,-0.005,0.021,-1.568,0.049,-1.226,109.72,110.5,40.495926,-3.383573,590.9,3,5,234.5,1.406
109.03,1,0.03,0.001,-0.001,-0.017,-0.005,0.014,-1.57,0.047,-1.226,109.72,110.5,40.495926,-3.383573,590.9,3,5,234.5,1.406
109.13,1,0.01,0.023,0.004,0.012,0.009,0.004,-1.569,0.046,-1.225,109.72,110.5,40.495926,-3.383573,590.9,3,5,234.5,1.406
109.23,1,0.05,0.007,0.014,0.028,0.013,0.01,-1.569,0.046,-1.225,110.74,110.4,40.495762,-3.383868,591.2,4,5,234.1,0.703
109.34,1,-0.001,0.011,0.015,0.018,0.007,0.008,-1.569,0.047,-1.224,110.74,110.4,40.495762,-3.383868,591.2,4,5,234.1,0.703
109.43,1,0.007,0.02,0.006,0.006,0.019,0.014,-1.569,0.045,-1.224,110.74,110.4,40.495762,-3.383868,591.2,4,5,234.1,0.703
109.53,1,0.004,-0.014,0.007,0.012,0.0,0.005,-1.567,0.045,-1.224,110.74,110.4,40.495762,-3.383868,591.2,4,5,234.1,0.703
109.63,1,-0.03,0.016,-0.006,-0.007,0.003,0.007,-1.568,0.045,-1.223,110.74,110.4,40.495762,-3.383868,591.2,4,5,234.1,0.703
109.73,1,0.017,0.002,0.001,-0.006,0.005,-0.006,-1.568,0.043,-1.223,110.74,110.4,40.495762,-3.383868,591.2,4,5,234.1,0.703
109.83,1,-0.032,0.025,-0.013,-0.003,0.012,-0.003,-1.57,0.041,-1.223,110.74,110.4,40.495762,-3.383868,591.2,4,5,234.1,0.703
109.93,1,-0.037,-0.004,0.028,-0.023,0.013,0.008,-1.569,0.042,-1.223,110.74,110.4,40.495762,-3.383868,591.2,4,5,234.1,0.703
110.04,1,-0.012,-0.014,0.002,-0.034,-0.003,0.009,-1.571,0.04,-1.223,110.74,110.4,40.495762,-3.383868,591.2,4,5,234.1,0.703
110.13,1,-0.015,-0.025,0.033,-0.016,-0.013,0.017,-1.575,0.042,-1.223,110.74,110.4,40.495762,-3.383868,591.2,4,5,234.1,0.703
110.24,1,0.011,0.003,0.01,-0.007,-0.011,0.015,-1.575,0.041,-1.222,111.78,111.0,40.495598,-3.384154,591.1,3,5,233.8,0.703
110.33,1,0.046,0.004,0.001,0.019,0.001,0.009,-1.574,0.041,-1.222,111.78,111.0,40.495598,-3.384154,591.1,3,5,233.8,0.703
110.43,1,-0.008,0.021,0.009,0.016,0.007,0.004,-1.574,0.04,-1.222,111.78,111.0,40.495598,-3.384154,591.1,3,5,233.8,0.703
110.53,1,-0.024,0.006,-0.011,-0.019,0.017,0.003,-1.576,0.043,-1.222,111.78,111.0,40.495598,-3.384154,591.1,3,5,233.8,0.703
110.63,1,0.017,-0.026,-0.005,0.008,-0.015,-0.0,-1.577,0.042,-1.221,111.78,111.0,40.495598,-3.384154,591.1,3,5,233.8,0.703
110.74,1,-0.033,0.024,-0.007,-0.005,-0.001,-0.011,-1.576,0.04,-1.221,111.78,111.0,40.495598,-3.384154,591.1,3,5,233.8,0.703
110.83,1,-0.019,0.005,0.016,-0.016,0.013,0.004,-1.577,0.041,-1.221,111.78,111.0,40.495598,-3.384154,591.1,3,5,233.8,0.703
110.93,1,-0.014,0.011,0.005,-0.016,0.008,0.006,-1.577,0.043,-1.221,111.78,111.0,40.495598,-3.384154,591.1,3,5,233.8,0.703
111.04,1,-0.001,-0.007,0.011,-0.012,0.002,0.006,-1.574,0.042,-1.221,111.78,111.0,40.495598,-3.384154,591.1,3,5,233.8,0.703
111.14,1,-0.026,0.019,0.004,-0.019,0.008,0.005,-1.574,0.04,-1.221,111.78,111.0,40.495598,-3.384154,591.1,3,5,233.8,0.703
111.24,1,0.031,-0.006,0.006,0.006,0.003,0.011,-1.572,0.04,-1.22,112.81,111.0,40.495434,-3.384447,591.3,4,5,233.8,0.352
111.34,1,-0.018,-0.003,0.01,-0.001,0.0,0.007,-1.572,0.04,-1.22,112.81,111.0,40.495434,-3.384447,591.3,4,5,233.8,0.352
111.44,1,-0.037,0.001,0.023,-0.019,-0.001,0.016,-1.57,0.042,-1.219,112.81,111.0,40.495434,-3.384447,591.3,4,5,233.8,0.352
111.54,1,-0.035,-0.017,0.025,-0.033,-0.007,0.02,-1.572,0.046,-1.218,112.81,111.0,40.495434,-3.384447,591.3,4,5,233.8,0.352
111.64,1,-0.059,-0.001,0.001,-0.049,-0.005,0.013,-1.573,0.048,-1.218,112.81,111.0,40.495434,-3.384447,591.3,4,5,233.8,0.352
111.74,1,0.015,-0.027,0.017,-0.02,-0.019,0.012,-1.573,0.05,-1.218,112.81,111.0,40.495434,-3.384447,591.3,4,5,233.8,0.352
111.84,1,-0.026,0.009,0.02,-0.008,-0.008,0.016,-1.572,0.047,-1.217,112.81,111.0,40.495434,-3.384447,591.3,4,5,233.8,0.352
111.95,1,0.014,0.008,0.016,-0.006,0.005,0.019,-1.572,0.046,-1.217,112.81,111.0,40.495434,-3.384447,591.3,4,5,233.8,0.352
112.04,1,0.013,-0.008,-0.004,0.004,-0.0,0.007,-1.57,0.045,-1.217,112.81,111.0,40.495434,-3.384447,591.3,4,5,233.8,0.352
112.14,1,0.005,0.01,0.009,-0.0,0.003,0.01,-1.569,0.044,-1.216,112.81,111.0,40.495434,-3.384447,591.3,4,5,233.8,0.352
112.24,1,0.052,-0.005,0.021,0.032,0.003,0.01,-1.569,0.043,-1.216,113.71,112.8,40.495262,-3.384753,591.3,4,5,232.4,1.406
112.34,1,-0.028,-0.005,0.018,0.013,-0.001,0.017,-1.572,0.043,-1.216,113.71,112.8,40.495262,-3.384753,591.3,4,5,232.4,1.406
112.44,1,-0.04,0.008,0.006,-0.019,-0.002,0.009,-1.574,0.041,-1.216,113.71,112.8,40.495262,-3.384753,591.3,4,5,232.4,1.406
112.54,1,-0.014,0.001,0.029,-0.023,0.003,0.019,-1.575,0.039,-1.216,113.71,112.8,40.495262,-3.384753,591.3,4,5,232.4,1.406
112.65,1,-0.021,0.027,0.009,-0.012,0.009,0.015,-1.576,0.04,-1.215,113.71,112.8,40.495262,-3.384753,591.3,4,5,232.4,1.406
112.74,1,-0.048,0.021,0.005,-0.035,0.02,0.013,-1.575,0.043,-1.215,113.71,112.8,40.495262,-3.384753,591.3,4,5,232.4,1.406
112.84,1,0.032,-0.031,0.029,-0.014,0.001,0.02,-1.574,0.045,-1.215,113.71,112.8,40.495262,-3.384753,591.3,4,5,232.4,1.406
112.94,1,-0.015,0.024,0.002,0.002,0.001,0.012,-1.573,0.043,-1.215,113.71,112.8,40.495262,-3.384753,591.3,4,5,232.4,1.406
113.04,1,-0.02,0.02,0.005,-0.019,0.018,0.004,-1.571,0.041,-1.215,113.71,112.8,40.495262,-3.384753,591.3,4,5,232.4,1.406
113.15,1,-0.02,-0.019,0.004,-0.013,0.001,0.008,-1.572,0.041,-1.215,113.71,112.8,40.495262,-3.384753,591.3,4,5,232.4,1.406
113.24,1,-0.077,0.001,0.011,-0.035,-0.005,0.006,-1.573,0.041,-1.214,114.74,111.7,40.495083,-3.385042,591.7,4,5,232.7,1.055
113.34,1,-0.041,0.012,0.021,-0.06,0.008,0.012,-1.572,0.044,-1.214,114.74,111.7,40.495083,-3.385042,591.7,4,5,232.7,1.055
113.45,1,0.054,0.006,0.029,-0.007,0.006,0.025,-1.573,0.042,-1.214,114.74,111.7,40.495083,-3.385042,591.7,4,5,232.7,1.055
113.54,1,0.006,0.005,0.006,0.018,0.004,0.016,-1.573,0.04,-1.214,114.74,111.7,40.495083,-3.385042,591.7,4,5,232.7,1.055
113.65,1,0.005,0.001,0.005,0.01,0.003,0.007,-1.574,0.04,-1.213,114.74,111.7,40.495083,-3.385042,591.7,4,5,232.7,1.055
113.74,1,-0.031,0.0,0.002,-0.01,0.003,0.007,-1.573,0.041,-1.213,114.74,111.7,40.495083,-3.385042,591.7,4,5,232.7,1.055
113.85,1,0.018,-0.001,0.025,-0.002,-0.0,0.014,-1.574,0.043,-1.213,114.74,111.7,40.495083,-3.385042,591.7,4,5,232.7,1.055
113.95,1,-0.043,-0.001,-0.005,-0.02,0.004,0.011,-1.574,0.043,-1.212,114.74,111.7,40.495083,-3.385042,591.7,4,5,232.7,1.055
114.04,1,0.015,-0.005,0.017,-0.01,-0.007,0.004,-1.574,0.044,-1.213,114.74,111.7,40.495083,-3.385042,591.7,4,5,232.7,1.055
114.14,1,0.05,0.032,0.003,0.019,0.007,0.015,-1.575,0.043,-1.213,114.74,111.7,40.495083,-3.385042,591.7,4,5,232.7,1.055
114.25,1,0.013,0.018,0.018,0.03,0.02,0.012,-1.573,0.045,-1.213,115.71,112.1,40.494907,-3.385331,591.8,4,5,232.0,0.703
114.35,1,-0.073,0.032,-0.004,-0.025,0.028,0.005,-1.571,0.045,-1.212,115.71,112.1,40.494907,-3.385331,591.8,4,5,232.0,0.703
114.45,1,0.021,-0.011,0.014,-0.004,0.012,0.006,-1.571,0.048,-1.212,115.71,112.1,40.494907,-3.385331,591.8,4,5,232.0,0.703
114.55,1,-0.019,-0.013,0.004,-0.014,-0.005,0.003,-1.57,0.048,-1.212,115.71,112.1,40.494907,-3.385331,591.8,4,5,232.0,0.703
114.65,1,0.048,0.005,-0.004,0.005,-0.002,0.004,-1.572,0.044,-1.212,115.71,112.1,40.494907,-3.385331,591.8,4,5,232.0,0.703
114.75,1,0.045,0.013,0.023,0.041,0.001,0.01,-1.575,0.042,-1.211,115.71,112.1,40.494907,-3.385331,591.8,4,5,232.0,0.703
114.86,1,0.081,0.008,-0.003,0.042,0.014,0.012,-1.573,0.044,-1.211,115.71,112.1,40.494907,-3.385331,591.8,4,5,232.0,0.703
114.96,1,0.038,-0.004,0.005,0.064,0.004,0.002,-1.571,0.046,-1.21,115.71,112.1,40.494907,-3.385331,591.8,4,5,232.0,0.703
115.05,1,-0.018,-0.029,-0.001,0.035,-0.015,0.003,-1.572,0.047,-1.209,115.71,112.1,40.494907,-3.385331,591.8,4,5,232.0,0.703
115.15,1,-0.05,-0.022,0.025,-0.027,-0.015,0.007,-1.572,0.043,-1.208,115.71,112.1,40.494907,-3.385331,591.8,4,5,232.0,0.703
115.25,1,-0.042,-0.031,-0.006,-0.028,-0.028,0.014,-1.573,0.043,-1.207,116.76,112.5,40.494732,-3.385619,591.7,3,5,231.7,1.055
115.35,1,-0.113,0.001,-0.009,-0.071,-0.018,-0.006,-1.572,0.044,-1.206,116.76,112.5,40.494732,-3.385619,591.7,3,5,231.7,1.055
115.45,1,0.043,-0.012,0.033,-0.027,-0.011,0.009,-1.571,0.045,-1.206,116.76,112.5,40.494732,-3.385619,591.7,3,5,231.7,1.055
115.55,1,-0.015,0.012,0.015,-0.015,0.002,0.015,-1.572,0.043,-1.205,116.76,112.5,40.494732,-3.385619,591.7,3,5,231.7,1.055
115.66,1,0.001,0.006,0.006,-0.009,0.004,0.014,-1.577,0.045,-1.204,116.76,112.5,40.494732,-3.385619,591.7,3,5,231.7,1.055
115.75,1,-0.018,0.003,0.012,-0.011,0.004,0.008,-1.578,0.044,-1.204,116.76,112.5,40.494732,-3.385619,591.7,3,5,231.7,1.055
115.85,1,-0.005,0.019,0.016,-0.004,0.012,0.015,-1.577,0.047,-1.203,116.76,112.5,40.494732,-3.385619,591.7,3,5,231.7,1.055
115.95,1,-0.033,0.007,-0.003,-0.019,0.008,0.01,-1.576,0.047,-1.203,116.76,112.5,40.494732,-3.385619,591.7,3,5,231.7,1.055
116.05,1,-0.011,-0.009,0.009,-0.017,-0.002,0.004,-1.575,0.05,-1.203,116.76,112.5,40.494732,-3.385619,591.7,3,5,231.7,1.055
116.15,1,0.056,0.015,0.04,0.006,0.009,0.019,-1.575,0.05,-1.202,116.76,112.5,40.494732,-3.385619,591.7,3,5,231.7,1.055
116.26,1,0.068,-0.013,0.023,0.048,0.003,0.03,-1.575,0.049,-1.202,117.72,113.5,40.494572,-3.38589,591.9,4,5,230.6,1.406
116.36,1,-0.01,0.017,0.014,0.034,0.003,0.019,-1.573,0.053,-1.202,117.72,113.5,40.494572,-3.38589,591.9,4,5,230.6,1.406
116.45,1,-0.014,-0.008,-0.002,0.002,0.002,0.01,-1.573,0.054,-1.202,117.72,113.5,40.494572,-3.38589,591.9,4,5,230.6,1.406
116.55,1,-0.036,-0.005,0.005,-0.016,0.001,0.006,-1.574,0.052,-1.201,117.72,113.5,40.494572,-3.38589,591.9,4,5,230.6,1.406
116.65,1,0.002,0.0,0.016,-0.017,-0.002,0.007,-1.575,0.054,-1.201,117.72,113.5,40.494572,-3.38589,591.9,4,5,230.6,1.406
116.75,1,-0.014,-0.005,0.006,-0.012,-0.003,0.01,-1.576,0.055,-1.199,117.72,113.5,40.494572,-3.38589,591.9,4,5,230.6,1.406
116.85,1,0.011,-0.036,0.006,-0.002,-0.017,0.009,-1.575,0.058,-1.197,117.72,113.5,40.494572,-3.38589,591.9,4,5,230.6,1.406
116.95,1,-0.041,-0.039,0.012,-0.009,-0.034,0.011,-1.578,0.062,-1.195,117.72,113.5,40.494572,-3.38589,591.9,4,5,230.6,1.406
117.05,1,-0.033,-0.032,0.016,-0.036,-0.03,0.009,-1.581,0.066,-1.193,117.72,113.5,40.494572,-3.38589,591.9,4,5,230.6,1.406
117.15,1,0.005,-0.013,0.004,-0.014,-0.03,0.006,-1.581,0.07,-1.192,117.72,113.5,40.494572,-3.38589,591.9,4,5,230.6,1.406
117.26,1,-0.006,0.01,-0.004,-0.006,-0.008,0.007,-1.582,0.068,-1.191,118.73,114.1,40.494385,-3.386175,592.3,3,5,229.9,1.758
117.36,1,0.011,-0.001,0.002,-0.003,0.005,-0.0,-1.582,0.069,-1.19,118.73,114.1,40.494385,-3.386175,592.3,3,5,229.9,1.758
117.46,1,-0.028,0.0,-0.008,0.0,-0.002,-0.002,-1.582,0.067,-1.189,118.73,114.1,40.494385,-3.386175,592.3,3,5,229.9,1.758
117.57,1,-0.03,-0.02,-0.004,-0.024,-0.008,-0.002,-1.58,0.066,-1.187,118.73,114.1,40.494385,-3.386175,592.3,3,5,229.9,1.758
117.66,1,0.005,-0.028,0.016,-0.014,-0.02,0.004,-1.579,0.068,-1.186,118.73,114.1,40.494385,-3.386175,592.3,3,5,229.9,1.758
117.76,1,-0.01,-0.007,0.006,-0.009,-0.017,0.002,-1.577,0.07,-1.185,118.73,114.1,40.494385,-3.386175,592.3,3,5,229.9,1.758
117.86,1,0.005,0.002,0.008,-0.003,-0.009,0.01,-1.577,0.071,-1.184,118.73,114.1,40.494385,-3.386175,592.3,3,5,229.9,1.758
117.96,1,-0.02,-0.009,0.006,-0.008,-0.004,0.005,-1.576,0.071,-1.182,118.73,114.1,40.494385,-3.386175,592.3,3,5,229.9,1.758
118.06,1,-0.02,0.006,-0.001,-0.02,-0.005,0.005,-1.577,0.069,-1.181,118.73,114.1,40.494385,-3.386175,592.3,3,5,229.9,1.758
118.16,1,-0.017,-0.002,-0.001,-0.02,0.005,-0.001,-1.577,0.068,-1.181,118.73,114.1,40.494385,-3.386175,592.3,3,5,229.9,1.758
118.26,1,0.009,-0.012,-0.01,-0.004,-0.004,-0.0,-1.577,0.066,-1.18,119.72,114.2,40.494198,-3.38646,591.8,4,5,229.6,1.055
118.36,1,0.03,0.015,0.001,0.012,0.0,-0.007,-1.576,0.066,-1.18,119.72,114.2,40.494198,-3.38646,591.8,4,5,229.6,1.055
118.47,1,-0.003,0.042,-0.0,0.01,0.021,-0.0,-1.575,0.064,-1.18,119.72,114.2,40.494198,-3.38646,591.8,4,5,229.6,1.055
118.56,1,0.01,0.016,0.025,0.004,0.027,0.011,-1.574,0.062,-1.18,119.72,114.2,40.494198,-3.38646,591.8,4,5,229.6,1.055
118.66,1,-0.014,0.031,0.007,0.007,0.023,0.01,-1.572,0.061,-1.18,119.72,114.2,40.494198,-3.38646,591.8,4,5,229.6,1.055
118.76,1,-0.007,0.033,0.007,-0.021,0.03,0.008,-1.571,0.057,-1.181,119.72,114.2,40.494198,-3.38646,591.8,4,5,229.6,1.055
118.86,1,-0.003,0.032,0.006,0.006,0.027,0.009,-1.57,0.051,-1.181,119.72,114.2,40.494198,-3.38646,591.8,4,5,229.6,1.055
118.96,1,-0.012,0.05,0.023,-0.008,0.043,0.012,-1.572,0.052,-1.181,119.72,114.2,40.494198,-3.38646,591.8,4,5,229.6,1.055
119.06,1,-0.045,0.036,-0.004,-0.013,0.042,0.01,-1.573,0.049,-1.182,119.72,114.2,40.494198,-3.38646,591.8,4,5,229.6,1.055
119.16,1,0.043,0.013,-0.008,-0.019,0.029,-0.003,-1.573,0.047,-1.182,119.72,114.2,40.494198,-3.38646,591.8,4,5,229.6,1.055
119.27,1,-0.042,0.051,0.033,0.006,0.032,0.019,-1.575,0.042,-1.183,120.74,114.4,40.494015,-3.386739,592.2,4,5,229.2,0.703
119.36,1,-0.003,0.029,-0.001,-0.027,0.04,0.005,-1.575,0.04,-1.184,120.74,114.4,40.494015,-3.386739,592.2,4,5,229.2,0.703
119.46,1,-0.007,0.025,0.012,0.005,0.025,0.012,-1.576,0.038,-1.184,120.74,114.4,40.494015,-3.386739,592.2,4,5,229.2,0.703
119.56,1,0.002,0.016,0.011,-0.01,0.023,0.011,-1.575,0.037,-1.185,120.74,114.4,40.494015,-3.386739,592.2,4,5,229.2,0.703
119.66,1,-0.023,0.029,0.013,-0.013,0.025,0.01,-1.575,0.034,-1.185,120.74,114.4,40.494015,-3.386739,592.2,4,5,229.2,0.703
119.76,1,-0.025,0.018,-0.003,-0.019,0.02,0.008,-1.577,0.032,-1.186,120.74,114.4,40.494015,-3.386739,592.2,4,5,229.2,0.703
119.87,1,0.028,0.011,-0.004,0.003,0.019,-0.001,-1.578,0.03,-1.187,120.74,114.4,40.494015,-3.386739,592.2,4,5,229.2,0.703
119.97,1,0.018,0.05,-0.004,0.014,0.033,-0.004,-1.578,0.026,-1.188,120.74,114.4,40.494015,-3.386739,592.2,4,5,229.2,0.703
120.06,1,-0.002,0.012,-0.016,0.01,0.023,-0.005,-1.579,0.026,-1.188,120.74,114.4,40.494015,-3.386739,592.2,4,5,229.2,0.703
120.17,1,-0.051,0.009,-0.006,-0.016,0.019,-0.006,-1.581,0.025,-1.188,120.74,114.4,40.494015,-3.386739,592.2,4,5,229.2,0.703
120.26,1,-0.021,-0.02,0.017,-0.032,-0.0,-0.0,-1.583,0.026,-1.188,121.75,114.7,40.493824,-3.387025,592.8,4,5,228.9,0.703
120.36,1,-0.054,0.005,0.003,-0.028,-0.009,0.003,-1.584,0.027,-1.188,121.75,114.7,40.493824,-3.387025,592.8,4,5,228.9,0.703
120.48,1,0.029,-0.031,-0.014,-0.025,-0.008,-0.003,-1.583,0.027,-1.188,121.75,114.7,40.493824,-3.387025,592.8,4,5,228.9,0.703
120.57,1,0.072,-0.015,0.002,0.039,-0.022,-0.002,-1.582,0.028,-1.189,121.75,114.7,40.493824,-3.387025,592.8,4,5,228.9,0.703
120.67,1,-0.045,0.011,-0.01,0.009,-0.005,-0.006,-1.581,0.03,-1.189,121.75,114.7,40.493824,-3.387025,592.8,4,5,228.9,0.703
120.87,1,0.027,-0.013,0.025,0.037,-0.033,0.012,-1.583,0.025,-1.189,121.75,114.7,40.493824,-3.387025,592.8,4,5,228.9,0.703
120.97,1,0.004,0.007,0.0,0.011,-0.006,0.008,-1.583,0.023,-1.19,121.75,114.7,40.493824,-3.387025,592.8,4,5,228.9,0.703
121.08,1,0.003,0.005,0.016,0.016,0.002,0.009,-1.582,0.024,-1.19,121.75,114.7,40.493824,-3.387025,592.8,4,5,228.9,0.703
121.18,1,-0.042,-0.004,-0.006,-0.017,0.003,0.003,-1.579,0.024,-1.19,121.75,114.7,40.493824,-3.387025,592.8,4,5,228.9,0.703
121.27,1,0.062,-0.051,0.004,0.013,-0.022,0.005,-1.577,0.023,-1.191,121.75,114.7,40.493824,-3.387025,592.8,4,5,228.9,0.703
121.37,1,-0.022,-0.004,0.013,0.01,-0.023,0.006,-1.578,0.025,-1.191,122.73,115.5,40.493633,-3.387305,592.6,3,5,229.2,0.352
121.47,1,-0.006,-0.006,-0.004,-0.003,-0.017,0.004,-1.579,0.028,-1.191,122.73,115.5,40.493633,-3.387305,592.6,3,5,229.2,0.352
121.57,1,-0.037,0.012,0.012,-0.018,0.003,0.005,-1.583,0.026,-1.191,122.73,115.5,40.493633,-3.387305,592.6,3,5,229.2,0.352
121.67,1,-0.032,-0.016,-0.019,-0.026,-0.005,-0.001,-1.581,0.025,-1.192,122.73,115.5,40.493633,-3.387305,592.6,3,5,229.2,0.352
121.77,1,0.073,-0.007,0.004,0.013,-0.011,-0.005,-1.578,0.024,-1.193,122.73,115.5,40.493633,-3.387305,592.6,3,5,229.2,0.352
121.87,1,-0.026,0.034,0.011,0.018,0.008,0.004,-1.575,0.024,-1.194,122.73,115.5,40.493633,-3.387305,592.6,3,5,229.2,0.352
121.97,1,0.007,-0.013,0.004,-0.006,0.013,0.004,-1.573,0.024,-1.194,122.73,115.5,40.493633,-3.387305,592.6,3,5,229.2,0.352
