Timestamp_Accel,SystemActivated,accelerometerXAxis,accelerometerYAxis,accelerometerZAxis,AccelX_KF,AccelY_KF,AccelZ_KF,gyroscopeXAxis,gyroscopeYAxis,gyroscopeZAxis,Timestamp_GPS,Speed,latitude,longitude,Altitude,VerticalAccuracy,HorizontalAccuracy,Course,Difcourse
16.56,1,0.015,0.016,0.073,-0.005,0.004,0.061,-1.611,0.02,0.065,16.53,84.2,40.518585,-3.409622,625.6,4,5,324.5,0.352
16.66,1,-0.008,0.019,0.07,0.001,0.011,0.068,-1.619,0.017,0.065,16.53,84.2,40.518585,-3.409622,625.6,4,5,324.5,0.352
16.76,1,-0.003,-0.009,0.069,-0.001,0.009,0.069,-1.626,0.018,0.066,16.53,84.2,40.518585,-3.409622,625.6,4,5,324.5,0.352
16.87,1,-0.003,-0.001,0.055,-0.006,0.0,0.064,-1.631,0.018,0.066,16.53,84.2,40.518585,-3.409622,625.6,4,5,324.5,0.352
16.96,1,-0.024,-0.012,0.045,-0.008,-0.005,0.053,-1.635,0.018,0.066,16.53,84.2,40.518585,-3.409622,625.6,4,5,324.5,0.352
17.06,1,-0.048,-0.014,0.048,-0.031,-0.01,0.05,-1.64,0.02,0.066,16.53,84.2,40.518585,-3.409622,625.6,4,5,324.5,0.352
17.16,1,-0.029,-0.031,0.065,-0.037,-0.022,0.053,-1.647,0.021,0.067,16.53,84.2,40.518585,-3.409622,625.6,4,5,324.5,0.352
17.26,1,0.004,-0.016,0.07,-0.014,-0.021,0.068,-1.653,0.021,0.068,16.53,84.2,40.518585,-3.409622,625.6,4,5,324.5,0.352
17.37,1,0.01,0.001,0.019,-0.004,-0.013,0.046,-1.655,0.021,0.068,16.53,84.2,40.518585,-3.409622,625.6,4,5,324.5,0.352
17.47,1,0.006,0.034,0.033,0.008,0.008,0.035,-1.658,0.019,0.068,16.53,84.2,40.518585,-3.409622,625.6,4,5,324.5,0.352
17.56,1,-0.028,0.032,0.039,-0.009,0.02,0.036,-1.663,0.017,0.069,17.52,86.9,40.518768,-3.409793,625.7,4,5,323.8,1.055
17.71,1,-0.019,0.057,0.044,-0.022,0.041,0.04,-1.667,0.018,0.069,17.52,86.9,40.518768,-3.409793,625.7,4,5,323.8,1.055
17.76,1,-0.061,0.029,-0.018,-0.03,0.049,0.018,-1.667,0.02,0.069,17.52,86.9,40.518768,-3.409793,625.7,4,5,323.8,1.055
17.86,1,-0.042,-0.01,0.027,-0.043,0.017,0.016,-1.671,0.022,0.069,17.52,86.9,40.518768,-3.409793,625.7,4,5,323.8,1.055
17.96,1,-0.042,0.005,0.034,-0.042,0.005,0.027,-1.678,0.021,0.069,17.52,86.9,40.518768,-3.409793,625.7,4,5,323.8,1.055
18.06,1,0.004,0.007,0.035,-0.03,0.003,0.03,-1.683,0.021,0.069,17.52,86.9,40.518768,-3.409793,625.7,4,5,323.8,1.055
18.16,1,0.019,-0.032,-0.018,0.002,-0.011,0.01,-1.684,0.021,0.069,17.52,86.9,40.518768,-3.409793,625.7,4,5,323.8,1.055
18.26,1,0.014,0.002,0.022,0.007,-0.006,0.002,-1.685,0.021,0.068,17.52,86.9,40.518768,-3.409793,625.7,4,5,323.8,1.055
18.36,1,0.013,0.005,-0.018,0.007,-0.001,0.005,-1.685,0.018,0.067,17.52,86.9,40.518768,-3.409793,625.7,4,5,323.8,1.055
18.47,1,-0.003,0.005,0.021,0.013,-0.0,0.005,-1.683,0.016,0.066,17.52,86.9,40.518768,-3.409793,625.7,4,5,323.8,1.055
18.57,1,-0.042,0.015,-0.016,-0.009,0.009,0.005,-1.684,0.011,0.065,18.49,93.5,40.518959,-3.409968,626.0,4,5,324.1,1.055
18.67,1,-0.05,0.024,0.026,-0.041,0.015,0.0,-1.686,0.007,0.064,18.49,93.5,40.518959,-3.409968,626.0,4,5,324.1,1.055
18.77,1,-0.005,0.009,0.013,-0.027,0.016,0.019,-1.69,0.005,0.064,18.49,93.5,40.518959,-3.409968,626.0,4,5,324.1,1.055
18.86,1,0.014,-0.005,0.003,0.0,0.003,0.014,-1.69,0.005,0.064,18.49,93.5,40.518959,-3.409968,626.0,4,5,324.1,1.055
18.96,1,-0.019,-0.003,-0.013,-0.004,-0.001,-0.01,-1.689,0.004,0.063,18.49,93.5,40.518959,-3.409968,626.0,4,5,324.1,1.055
19.07,1,-0.016,0.002,0.031,-0.009,0.004,0.017,-1.692,0.003,0.063,18.49,93.5,40.518959,-3.409968,626.0,4,5,324.1,1.055
19.16,1,-0.023,-0.019,-0.011,-0.022,0.003,-0.001,-1.689,0.004,0.063,18.49,93.5,40.518959,-3.409968,626.0,4,5,324.1,1.055
19.28,1,-0.028,0.004,0.038,-0.024,-0.008,0.023,-1.688,0.006,0.063,18.49,93.5,40.518959,-3.409968,626.0,4,5,324.1,1.055
19.36,1,-0.073,0.033,-0.058,-0.046,0.006,-0.014,-1.691,0.008,0.063,18.49,93.5,40.518959,-3.409968,626.0,4,5,324.1,1.055
19.47,1,-0.083,-0.013,0.036,-0.072,0.009,-0.005,-1.692,0.009,0.064,18.49,93.5,40.518959,-3.409968,626.0,4,5,324.1,1.055
19.57,1,0.005,-0.044,0.042,-0.043,-0.02,0.027,-1.692,0.009,0.064,19.52,97.8,40.51915,-3.410153,629.4,4,5,324.5,0.703
19.67,1,0.031,-0.023,-0.006,-0.001,-0.025,0.02,-1.693,0.008,0.063,19.52,97.8,40.51915,-3.410153,629.4,4,5,324.5,0.703
19.77,1,-0.001,0.029,-0.044,0.011,-0.006,-0.018,-1.692,0.005,0.062,19.52,97.8,40.51915,-3.410153,629.4,4,5,324.5,0.703
19.87,1,0.04,0.041,0.004,0.017,0.026,-0.014,-1.692,0.002,0.061,19.52,97.8,40.51915,-3.410153,629.4,4,5,324.5,0.703
19.97,1,0.009,0.014,-0.033,0.021,0.027,-0.016,-1.69,0.001,0.06,19.52,97.8,40.51915,-3.410153,629.4,4,5,324.5,0.703
20.07,1,-0.057,-0.012,0.007,-0.011,0.008,-0.016,-1.69,0.002,0.06,19.52,97.8,40.51915,-3.410153,629.4,4,5,324.5,0.703
20.17,1,-0.059,-0.006,-0.004,-0.046,-0.005,-0.001,-1.691,0.003,0.059,19.52,97.8,40.51915,-3.410153,629.4,4,5,324.5,0.703
20.27,1,-0.061,0.0,-0.022,-0.057,-0.006,-0.012,-1.69,0.001,0.058,19.52,97.8,40.51915,-3.410153,629.4,4,5,324.5,0.703
20.37,1,-0.009,0.015,-0.03,-0.038,0.007,-0.017,-1.688,-0.001,0.057,19.52,97.8,40.51915,-3.410153,629.4,4,5,324.5,0.703
20.47,1,0.015,0.034,-0.051,-0.011,0.02,-0.036,-1.683,-0.005,0.057,19.52,97.8,40.51915,-3.410153,629.4,4,5,324.5,0.703
20.57,1,0.039,0.016,-0.04,0.017,0.021,-0.042,-1.678,-0.004,0.056,20.49,101.1,40.519348,-3.410343,628.1,4,5,324.5,0.703
20.67,1,-0.004,-0.015,-0.031,0.018,0.008,-0.039,-1.674,-0.002,0.057,20.49,101.1,40.519348,-3.410343,628.1,4,5,324.5,0.703
20.77,1,-0.052,-0.027,0.003,-0.017,-0.012,-0.02,-1.673,0.001,0.057,20.49,101.1,40.519348,-3.410343,628.1,4,5,324.5,0.703
20.87,1,-0.098,-0.025,-0.0,-0.057,-0.021,-0.001,-1.676,0.002,0.056,20.49,101.1,40.519348,-3.410343,628.1,4,5,324.5,0.703
20.98,1,-0.061,-0.017,-0.035,-0.072,-0.023,-0.018,-1.674,0.001,0.056,20.49,101.1,40.519348,-3.410343,628.1,4,5,324.5,0.703
21.07,1,-0.013,-0.013,-0.008,-0.048,-0.013,-0.023,-1.671,-0.0,0.056,20.49,101.1,40.519348,-3.410343,628.1,4,5,324.5,0.703
21.18,1,0.057,-0.001,0.012,0.004,-0.012,0.001,-1.672,-0.001,0.056,20.49,101.1,40.519348,-3.410343,628.1,4,5,324.5,0.703
21.27,1,0.029,0.003,-0.043,0.031,-0.002,-0.018,-1.67,0.0,0.056,20.49,101.1,40.519348,-3.410343,628.1,4,5,324.5,0.703
21.37,1,-0.028,-0.029,0.003,0.005,-0.015,-0.017,-1.668,0.003,0.056,20.49,101.1,40.519348,-3.410343,628.1,4,5,324.5,0.703
21.47,1,-0.038,0.0,-0.019,-0.022,-0.012,-0.009,-1.668,0.002,0.055,20.49,101.1,40.519348,-3.410343,628.1,4,5,324.5,0.703
21.57,1,-0.017,0.013,0.007,-0.027,0.004,-0.01,-1.666,0.0,0.055,21.5,101.5,40.519562,-3.41054,628.5,4,5,324.1,0.352
21.67,1,0.024,0.01,-0.018,-0.003,0.009,-0.004,-1.666,0.001,0.054,21.5,101.5,40.519562,-3.41054,628.5,4,5,324.1,0.352
21.77,1,0.008,-0.003,-0.013,0.015,0.003,-0.012,-1.665,0.003,0.054,21.5,101.5,40.519562,-3.41054,628.5,4,5,324.1,0.352
21.87,1,-0.06,-0.004,-0.005,-0.019,-0.001,-0.013,-1.666,0.004,0.054,21.5,101.5,40.519562,-3.41054,628.5,4,5,324.1,0.352
21.97,1,-0.054,-0.022,0.034,-0.048,-0.011,0.012,-1.668,0.003,0.054,21.5,101.5,40.519562,-3.41054,628.5,4,5,324.1,0.352
22.07,1,-0.017,0.004,0.008,-0.039,-0.006,0.01,-1.668,0.002,0.053,21.5,101.5,40.519562,-3.41054,628.5,4,5,324.1,0.352
22.18,1,-0.006,0.013,-0.004,-0.015,0.005,0.007,-1.669,0.001,0.052,21.5,101.5,40.519562,-3.41054,628.5,4,5,324.1,0.352
22.27,1,-0.033,-0.039,-0.005,-0.023,-0.009,0.004,-1.669,-0.001,0.052,21.5,101.5,40.519562,-3.41054,628.5,4,5,324.1,0.352
22.38,1,0.014,-0.004,0.015,-0.007,-0.016,0.004,-1.669,-0.001,0.052,21.5,101.5,40.519562,-3.41054,628.5,4,5,324.1,0.352
22.47,1,-0.051,0.035,0.002,-0.023,0.009,0.001,-1.67,-0.004,0.051,21.5,101.5,40.519562,-3.41054,628.5,4,5,324.1,0.352
22.57,1,0.044,0.0,0.012,-0.003,0.012,0.009,-1.669,-0.005,0.051,22.53,109.1,40.519783,-3.41074,629.4,3,5,324.5,0.352
22.67,1,0.033,-0.011,-0.005,0.026,-0.006,0.007,-1.667,-0.004,0.05,22.53,109.1,40.519783,-3.41074,629.4,3,5,324.5,0.352
22.77,1,-0.013,-0.015,-0.017,0.016,-0.006,-0.013,-1.666,-0.003,0.05,22.53,109.1,40.519783,-3.41074,629.4,3,5,324.5,0.352
22.88,1,-0.022,0.015,0.014,-0.016,-0.001,-0.002,-1.667,-0.003,0.049,22.53,109.1,40.519783,-3.41074,629.4,3,5,324.5,0.352
22.98,1,-0.003,-0.012,-0.013,-0.007,-0.002,0.001,-1.668,-0.003,0.049,22.53,109.1,40.519783,-3.41074,629.4,3,5,324.5,0.352
23.08,1,0.008,-0.0,-0.027,-0.003,-0.005,-0.016,-1.665,-0.004,0.049,22.53,109.1,40.519783,-3.41074,629.4,3,5,324.5,0.352
23.18,1,0.01,0.0,0.017,0.005,0.003,-0.004,-1.664,-0.004,0.048,22.53,109.1,40.519783,-3.41074,629.4,3,5,324.5,0.352
23.28,1,0.005,-0.005,-0.006,0.009,-0.004,0.0,-1.664,-0.0,0.049,22.53,109.1,40.519783,-3.41074,629.4,3,5,324.5,0.352
23.39,1,-0.043,-0.011,-0.014,-0.016,-0.008,-0.009,-1.664,-0.0,0.049,22.53,109.1,40.519783,-3.41074,629.4,3,5,324.5,0.352
23.48,1,-0.032,0.028,-0.077,-0.026,0.003,-0.03,-1.662,0.003,0.049,22.53,109.1,40.519783,-3.41074,629.4,3,5,324.5,0.352
23.59,1,-0.011,-0.007,-0.122,-0.024,0.008,-0.08,-1.66,0.005,0.049,23.55,109.0,40.520004,-3.410949,630.0,4,5,324.5,0.352
23.68,1,0.004,-0.038,-0.175,-0.011,-0.014,-0.132,-1.657,0.006,0.05,23.55,109.0,40.520004,-3.410949,630.0,4,5,324.5,0.352
23.78,1,-0.056,-0.029,-0.162,-0.021,-0.028,-0.152,-1.652,0.008,0.05,23.55,109.0,40.520004,-3.410949,630.0,4,5,324.5,0.352
23.88,1,-0.038,-0.019,-0.121,-0.036,-0.024,-0.144,-1.639,0.006,0.05,23.55,109.0,40.520004,-3.410949,630.0,4,5,324.5,0.352
23.98,1,0.019,-0.018,-0.078,-0.017,-0.02,-0.108,-1.629,0.008,0.05,23.55,109.0,40.520004,-3.410949,630.0,4,5,324.5,0.352
24.08,1,0.007,-0.038,-0.127,0.002,-0.021,-0.113,-1.618,0.007,0.05,23.55,109.0,40.520004,-3.410949,630.0,4,5,324.5,0.352
24.18,1,0.006,-0.021,-0.087,0.004,-0.03,-0.101,-1.611,0.001,0.05,23.55,109.0,40.520004,-3.410949,630.0,4,5,324.5,0.352
24.28,1,0.065,-0.013,-0.084,0.031,-0.022,-0.093,-1.603,-0.001,0.049,23.55,109.0,40.520004,-3.410949,630.0,4,5,324.5,0.352
24.38,1,0.044,0.027,-0.084,0.038,-0.002,-0.091,-1.594,-0.004,0.048,23.55,109.0,40.520004,-3.410949,630.0,4,5,324.5,0.352
24.48,1,0.001,0.034,-0.115,0.035,0.021,-0.094,-1.586,-0.005,0.048,23.55,109.0,40.520004,-3.410949,630.0,4,5,324.5,0.352
24.58,1,-0.074,0.001,-0.115,-0.02,0.015,-0.11,-1.578,-0.008,0.048,24.49,114.5,40.520267,-3.411188,631.0,4,5,324.5,0.0
24.68,1,-0.091,-0.038,-0.079,-0.065,-0.003,-0.106,-1.575,-0.009,0.047,24.49,114.5,40.520267,-3.411188,631.0,4,5,324.5,0.0
24.79,1,-0.175,-0.027,-0.105,-0.129,-0.025,-0.1,-1.577,-0.01,0.047,24.49,114.5,40.520267,-3.411188,631.0,4,5,324.5,0.0
24.88,1,0.045,0.033,-0.001,-0.072,-0.006,-0.054,-1.58,-0.01,0.047,24.49,114.5,40.520267,-3.411188,631.0,4,5,324.5,0.0
24.98,1,0.075,0.003,-0.098,0.036,0.003,-0.049,-1.576,-0.013,0.046,24.49,114.5,40.520267,-3.411188,631.0,4,5,324.5,0.0
25.08,1,-0.073,-0.002,-0.046,-0.004,0.001,-0.071,-1.578,-0.011,0.046,24.49,114.5,40.520267,-3.411188,631.0,4,5,324.5,0.0
25.18,1,0.039,-0.018,0.042,-0.007,-0.002,-0.021,-1.58,-0.009,0.046,24.49,114.5,40.520267,-3.411188,631.0,4,5,324.5,0.0
25.28,1,0.08,-0.022,-0.039,0.036,-0.016,-0.006,-1.575,-0.007,0.046,24.49,114.5,40.520267,-3.411188,631.0,4,5,324.5,0.0
25.38,1,0.065,-0.008,-0.025,0.071,-0.011,-0.026,-1.569,-0.006,0.046,24.49,114.5,40.520267,-3.411188,631.0,4,5,324.5,0.0
25.48,1,-0.002,0.003,0.005,0.037,-0.006,-0.013,-1.566,-0.008,0.045,24.49,114.5,40.520267,-3.411188,631.0,4,5,324.5,0.0
25.68,1,-0.054,-0.013,0.012,-0.045,-0.014,0.005,-1.575,-0.007,0.044,25.54,111.3,40.520489,-3.411392,631.2,3,5,324.5,0.0
25.78,1,0.041,0.025,0.032,-0.015,0.003,0.02,-1.578,-0.009,0.043,25.54,111.3,40.520489,-3.411392,631.2,3,5,324.5,0.0
25.88,1,0.134,-0.009,0.014,0.064,0.004,0.021,-1.577,-0.011,0.043,25.54,111.3,40.520489,-3.411392,631.2,3,5,324.5,0.0
25.99,1,-0.01,-0.032,-0.032,0.061,-0.018,-0.004,-1.574,-0.003,0.043,25.54,111.3,40.520489,-3.411392,631.2,3,5,324.5,0.0
26.08,1,-0.183,0.023,0.017,-0.062,-0.002,-0.005,-1.579,-0.005,0.043,25.54,111.3,40.520489,-3.411392,631.2,3,5,324.5,0.0
26.18,1,-0.118,0.054,0.052,-0.127,0.027,0.026,-1.585,-0.006,0.042,25.54,111.3,40.520489,-3.411392,631.2,3,5,324.5,0.0
26.28,1,0.108,0.03,0.026,-0.031,0.04,0.035,-1.585,-0.01,0.042,25.54,111.3,40.520489,-3.411392,631.2,3,5,324.5,0.0
26.39,1,0.126,-0.073,0.022,0.073,-0.01,0.025,-1.582,-0.003,0.042,25.54,111.3,40.520489,-3.411392,631.2,3,5,324.5,0.0
26.49,1,0.026,-0.07,-0.006,0.072,-0.048,0.009,-1.579,0.001,0.042,25.54,111.3,40.520489,-3.411392,631.2,3,5,324.5,0.0
26.59,1,-0.081,-0.022,0.021,0.0,-0.047,0.015,-1.583,0.002,0.041,25.54,111.3,40.520489,-3.411392,631.2,3,5,324.5,0.0
26.7,1,-0.123,0.002,0.019,-0.072,-0.024,0.017,-1.586,-0.001,0.04,26.56,112.4,40.52071,-3.411598,631.2,3,5,324.8,0.352
26.8,1,-0.061,0.013,0.003,-0.084,-0.002,0.011,-1.588,-0.004,0.04,26.56,112.4,40.52071,-3.411598,631.2,3,5,324.8,0.352
26.89,1,-0.013,0.016,0.006,-0.049,0.011,0.008,-1.589,-0.004,0.04,26.56,112.4,40.52071,-3.411598,631.2,3,5,324.8,0.352
26.99,1,-0.022,0.01,-0.009,-0.025,0.014,0.003,-1.59,-0.003,0.04,26.56,112.4,40.52071,-3.411598,631.2,3,5,324.8,0.352
27.09,1,0.006,-0.002,0.014,-0.01,-0.0,0.003,-1.591,-0.002,0.04,26.56,112.4,40.52071,-3.411598,631.2,3,5,324.8,0.352
27.19,1,-0.027,-0.025,-0.003,-0.015,-0.009,0.001,-1.591,-0.001,0.039,26.56,112.4,40.52071,-3.411598,631.2,3,5,324.8,0.352
27.29,1,-0.005,-0.007,0.003,-0.019,-0.004,0.005,-1.591,-0.0,0.039,26.56,112.4,40.52071,-3.411598,631.2,3,5,324.8,0.352
27.39,1,0.015,-0.024,0.011,0.001,-0.016,0.004,-1.591,-0.001,0.039,26.56,112.4,40.52071,-3.411598,631.2,3,5,324.8,0.352
27.49,1,0.033,0.008,0.002,0.016,-0.011,0.006,-1.591,-0.002,0.038,26.56,112.4,40.52071,-3.411598,631.2,3,5,324.8,0.352
27.59,1,-0.006,-0.004,-0.015,0.012,-0.003,-0.004,-1.589,-0.001,0.038,26.56,112.4,40.52071,-3.411598,631.2,3,5,324.8,0.352
27.7,1,-0.049,-0.014,-0.013,-0.015,-0.01,-0.008,-1.59,0.001,0.038,27.5,113.4,40.520939,-3.411812,631.3,4,5,324.5,0.352
27.79,1,-0.056,0.021,-0.017,-0.041,0.001,-0.015,-1.589,-0.0,0.038,27.5,113.4,40.520939,-3.411812,631.3,4,5,324.5,0.352
27.9,1,-0.009,-0.019,-0.016,-0.032,0.006,-0.017,-1.586,0.001,0.038,27.5,113.4,40.520939,-3.411812,631.3,4,5,324.5,0.352
27.99,1,0.007,-0.023,-0.037,-0.003,-0.017,-0.025,-1.583,0.006,0.037,27.5,113.4,40.520939,-3.411812,631.3,4,5,324.5,0.352
28.09,1,-0.017,0.007,-0.059,-0.018,-0.008,-0.039,-1.579,0.003,0.037,27.5,113.4,40.520939,-3.411812,631.3,4,5,324.5,0.352
28.19,1,0.054,0.034,-0.014,0.007,0.018,-0.034,-1.577,0.005,0.036,27.5,113.4,40.520939,-3.411812,631.3,4,5,324.5,0.352
28.3,1,0.035,0.031,-0.082,0.037,0.024,-0.049,-1.571,0.005,0.037,27.5,113.4,40.520939,-3.411812,631.3,4,5,324.5,0.352
28.39,1,-0.083,-0.032,-0.072,-0.009,0.006,-0.066,-1.57,0.007,0.037,27.5,113.4,40.520939,-3.411812,631.3,4,5,324.5,0.352
28.49,1,-0.011,-0.039,-0.003,-0.034,-0.026,-0.043,-1.569,0.009,0.037,27.5,113.4,40.520939,-3.411812,631.3,4,5,324.5,0.352
28.59,1,0.022,-0.013,-0.073,0.002,-0.027,-0.039,-1.564,0.012,0.036,27.5,113.4,40.520939,-3.411812,631.3,4,5,324.5,0.352
28.69,1,-0.039,-0.045,-0.06,-0.01,-0.029,-0.06,-1.563,0.012,0.035,28.57,113.6,40.521172,-3.41202,632.0,4,5,324.8,0.352
28.8,1,-0.195,-0.057,-0.048,-0.094,-0.039,-0.058,-1.567,0.012,0.036,28.57,113.6,40.521172,-3.41202,632.0,4,5,324.8,0.352
28.9,1,-0.059,-0.038,-0.022,-0.114,-0.036,-0.044,-1.569,0.014,0.038,28.57,113.6,40.521172,-3.41202,632.0,4,5,324.8,0.352
28.99,1,0.1,-0.025,-0.004,-0.011,-0.042,-0.017,-1.567,0.017,0.039,28.57,113.6,40.521172,-3.41202,632.0,4,5,324.8,0.352
29.1,1,0.037,-0.0,-0.057,0.043,-0.023,-0.031,-1.563,0.018,0.039,28.57,113.6,40.521172,-3.41202,632.0,4,5,324.8,0.352
29.2,1,-0.033,0.008,-0.034,0.009,-0.001,-0.038,-1.56,0.015,0.039,28.57,113.6,40.521172,-3.41202,632.0,4,5,324.8,0.352
29.3,1,-0.074,-0.018,-0.036,-0.034,-0.006,-0.035,-1.561,0.013,0.039,28.57,113.6,40.521172,-3.41202,632.0,4,5,324.8,0.352
29.4,1,-0.041,-0.035,-0.005,-0.054,-0.024,-0.025,-1.561,0.013,0.039,28.57,113.6,40.521172,-3.41202,632.0,4,5,324.8,0.352
29.49,1,0.09,-0.006,-0.022,0.012,-0.022,-0.015,-1.558,0.015,0.038,28.57,113.6,40.521172,-3.41202,632.0,4,5,324.8,0.352
29.6,1,0.083,0.002,-0.066,0.066,-0.006,-0.037,-1.553,0.013,0.038,28.57,113.6,40.521172,-3.41202,632.0,4,5,324.8,0.352
29.7,1,-0.067,0.013,-0.056,0.017,0.003,-0.058,-1.549,0.013,0.038,29.52,112.4,40.521404,-3.412239,633.0,4,5,324.5,0.352
29.8,1,-0.071,0.035,-0.032,-0.045,0.024,-0.043,-1.551,0.014,0.038,29.52,112.4,40.521404,-3.412239,633.0,4,5,324.5,0.352
29.9,1,-0.002,-0.018,-0.051,-0.036,0.006,-0.044,-1.546,0.016,0.038,29.52,112.4,40.521404,-3.412239,633.0,4,5,324.5,0.352
30.0,1,0.018,-0.023,-0.038,-0.005,-0.013,-0.045,-1.541,0.021,0.038,29.52,112.4,40.521404,-3.412239,633.0,4,5,324.5,0.352
30.1,1,0.013,-0.003,-0.035,0.002,-0.012,-0.04,-1.539,0.019,0.037,29.52,112.4,40.521404,-3.412239,633.0,4,5,324.5,0.352
30.2,1,0.028,-0.005,-0.008,0.019,-0.007,-0.026,-1.535,0.018,0.037,29.52,112.4,40.521404,-3.412239,633.0,4,5,324.5,0.352
30.3,1,0.009,0.016,-0.036,0.021,0.002,-0.02,-1.53,0.017,0.037,29.52,112.4,40.521404,-3.412239,633.0,4,5,324.5,0.352
30.4,1,-0.042,-0.006,-0.04,-0.006,0.007,-0.038,-1.527,0.015,0.037,29.52,112.4,40.521404,-3.412239,633.0,4,5,324.5,0.352
30.5,1,-0.05,-0.015,-0.012,-0.031,-0.006,-0.025,-1.528,0.017,0.037,29.52,112.4,40.521404,-3.412239,633.0,4,5,324.5,0.352
30.6,1,-0.077,0.008,-0.035,-0.056,0.0,-0.026,-1.528,0.017,0.038,29.52,112.4,40.521404,-3.412239,633.0,4,5,324.5,0.352
30.7,1,0.011,-0.005,-0.011,-0.037,-0.003,-0.024,-1.528,0.019,0.038,30.55,110.1,40.521629,-3.412444,632.9,4,5,324.5,0.352
30.8,1,0.037,-0.0,-0.009,0.005,-0.002,-0.015,-1.527,0.02,0.038,30.55,110.1,40.521629,-3.412444,632.9,4,5,324.5,0.352
30.9,1,0.004,-0.007,-0.022,0.022,-0.003,-0.014,-1.526,0.02,0.038,30.55,110.1,40.521629,-3.412444,632.9,4,5,324.5,0.352
31.0,1,-0.027,0.0,-0.001,-0.008,-0.004,-0.012,-1.525,0.018,0.038,30.55,110.1,40.521629,-3.412444,632.9,4,5,324.5,0.352
31.1,1,-0.031,0.01,-0.021,-0.026,0.003,-0.013,-1.525,0.018,0.038,30.55,110.1,40.521629,-3.412444,632.9,4,5,324.5,0.352
31.2,1,-0.042,0.016,-0.001,-0.04,0.009,-0.009,-1.526,0.016,0.037,30.55,110.1,40.521629,-3.412444,632.9,4,5,324.5,0.352
31.3,1,0.03,-0.004,-0.013,-0.004,0.005,-0.004,-1.525,0.015,0.037,30.55,110.1,40.521629,-3.412444,632.9,4,5,324.5,0.352
31.4,1,-0.019,-0.004,-0.029,0.005,0.0,-0.023,-1.522,0.015,0.037,30.55,110.1,40.521629,-3.412444,632.9,4,5,324.5,0.352
31.51,1,-0.018,0.002,-0.002,-0.015,-0.001,-0.014,-1.522,0.015,0.037,30.55,110.1,40.521629,-3.412444,632.9,4,5,324.5,0.352
31.61,1,-0.033,0.004,-0.008,-0.017,0.003,-0.01,-1.523,0.015,0.037,30.55,110.1,40.521629,-3.412444,632.9,4,5,324.5,0.352
31.7,1,-0.03,-0.018,0.004,-0.036,-0.005,-0.003,-1.524,0.014,0.037,31.49,108.2,40.521854,-3.412648,633.0,4,5,324.5,0.352
31.8,1,-0.006,-0.013,-0.002,-0.018,-0.012,0.003,-1.524,0.015,0.037,31.49,108.2,40.521854,-3.412648,633.0,4,5,324.5,0.352
31.9,1,-0.028,0.01,0.005,-0.021,-0.007,-0.007,-1.523,0.014,0.037,31.49,108.2,40.521854,-3.412648,633.0,4,5,324.5,0.352
32.01,1,-0.014,-0.002,0.037,-0.022,0.003,0.02,-1.527,0.015,0.037,31.49,108.2,40.521854,-3.412648,633.0,4,5,324.5,0.352
32.11,1,0.005,0.002,-0.008,-0.004,0.002,0.015,-1.527,0.016,0.037,31.49,108.2,40.521854,-3.412648,633.0,4,5,324.5,0.352
32.2,1,-0.019,-0.011,0.022,-0.01,-0.001,0.008,-1.528,0.016,0.037,31.49,108.2,40.521854,-3.412648,633.0,4,5,324.5,0.352
32.3,1,-0.024,-0.004,0.035,-0.015,-0.006,0.025,-1.531,0.018,0.037,31.49,108.2,40.521854,-3.412648,633.0,4,5,324.5,0.352
32.41,1,-0.034,-0.011,0.036,-0.027,-0.008,0.028,-1.535,0.017,0.037,31.49,108.2,40.521854,-3.412648,633.0,4,5,324.5,0.352
32.5,1,-0.007,0.003,0.047,-0.022,-0.002,0.039,-1.54,0.015,0.036,31.49,108.2,40.521854,-3.412648,633.0,4,5,324.5,0.352
32.61,1,-0.008,0.007,0.061,-0.014,0.0,0.048,-1.545,0.012,0.036,31.49,108.2,40.521854,-3.412648,633.0,4,5,324.5,0.352
32.71,1,-0.001,0.018,0.072,-0.007,0.007,0.065,-1.552,0.009,0.035,32.5,106.8,40.522079,-3.412856,633.5,4,5,324.5,0.0
32.82,1,0.007,0.021,0.065,0.0,0.02,0.065,-1.558,0.005,0.034,32.5,106.8,40.522079,-3.412856,633.5,4,5,324.5,0.0
32.9,1,-0.034,0.021,0.062,-0.008,0.019,0.063,-1.565,0.002,0.034,32.5,106.8,40.522079,-3.412856,633.5,4,5,324.5,0.0
33.01,1,-0.031,-0.006,0.1,-0.026,0.01,0.078,-1.574,0.002,0.034,32.5,106.8,40.522079,-3.412856,633.5,4,5,324.5,0.0
33.11,1,-0.001,-0.026,0.078,-0.018,-0.008,0.088,-1.582,0.003,0.035,32.5,106.8,40.522079,-3.412856,633.5,4,5,324.5,0.0
33.21,1,-0.027,-0.013,0.047,-0.017,-0.017,0.062,-1.585,0.004,0.035,32.5,106.8,40.522079,-3.412856,633.5,4,5,324.5,0.0
33.31,1,-0.031,-0.045,0.077,-0.026,-0.025,0.066,-1.593,0.007,0.036,32.5,106.8,40.522079,-3.412856,633.5,4,5,324.5,0.0
33.41,1,-0.065,-0.069,0.036,-0.038,-0.048,0.06,-1.599,0.012,0.038,32.5,106.8,40.522079,-3.412856,633.5,4,5,324.5,0.0
33.51,1,-0.086,-0.067,0.055,-0.067,-0.063,0.048,-1.604,0.013,0.039,32.5,106.8,40.522079,-3.412856,633.5,4,5,324.5,0.0
33.61,1,-0.017,-0.029,0.058,-0.052,-0.047,0.056,-1.61,0.01,0.039,32.5,106.8,40.522079,-3.412856,633.5,4,5,324.5,0.0
33.71,1,-0.055,0.005,0.005,-0.039,-0.02,0.033,-1.612,0.004,0.038,33.5,106.8,40.522297,-3.41306,634.1,4,5,324.5,0.0
33.81,1,-0.059,-0.011,0.058,-0.058,-0.01,0.038,-1.617,-0.002,0.037,33.5,106.8,40.522297,-3.41306,634.1,4,5,324.5,0.0
33.91,1,-0.025,-0.021,0.038,-0.041,-0.02,0.045,-1.622,-0.005,0.038,33.5,106.8,40.522297,-3.41306,634.1,4,5,324.5,0.0
34.01,1,-0.003,-0.017,0.047,-0.026,-0.019,0.041,-1.624,-0.005,0.039,33.5,106.8,40.522297,-3.41306,634.1,4,5,324.5,0.0
34.11,1,0.062,-0.013,0.037,0.015,-0.016,0.046,-1.628,-0.002,0.041,33.5,106.8,40.522297,-3.41306,634.1,4,5,324.5,0.0
34.21,1,-0.007,-0.055,-0.004,0.024,-0.029,0.02,-1.628,0.003,0.043,33.5,106.8,40.522297,-3.41306,634.1,4,5,324.5,0.0
34.31,1,-0.03,-0.055,0.026,-0.01,-0.049,0.014,-1.631,0.008,0.045,33.5,106.8,40.522297,-3.41306,634.1,4,5,324.5,0.0
34.42,1,-0.023,-0.069,0.043,-0.017,-0.055,0.035,-1.636,0.012,0.047,33.5,106.8,40.522297,-3.41306,634.1,4,5,324.5,0.0
34.51,1,0.003,-0.049,0.042,-0.014,-0.05,0.033,-1.638,0.014,0.049,33.5,106.8,40.522297,-3.41306,634.1,4,5,324.5,0.0
34.62,1,0.041,-0.067,0.003,0.016,-0.062,0.028,-1.638,0.022,0.052,33.5,106.8,40.522297,-3.41306,634.1,4,5,324.5,0.0
34.71,1,-0.04,-0.086,0.002,-0.001,-0.07,0.006,-1.639,0.028,0.056,34.49,106.6,40.522518,-3.413255,635.1,6,5,325.2,0.703
34.81,1,-0.015,-0.113,0.039,-0.018,-0.089,0.022,-1.641,0.035,0.059,34.49,106.6,40.522518,-3.413255,635.1,6,5,325.2,0.703
34.91,1,-0.005,-0.118,0.009,-0.013,-0.11,0.023,-1.642,0.045,0.064,34.49,106.6,40.522518,-3.413255,635.1,6,5,325.2,0.703
35.01,1,-0.049,-0.083,-0.011,-0.023,-0.102,0.003,-1.642,0.049,0.069,34.49,106.6,40.522518,-3.413255,635.1,6,5,325.2,0.703
35.11,1,-0.068,-0.095,0.008,-0.051,-0.092,0.003,-1.644,0.054,0.075,34.49,106.6,40.522518,-3.413255,635.1,6,5,325.2,0.703
35.22,1,-0.02,-0.096,0.028,-0.039,-0.096,0.014,-1.647,0.059,0.08,34.49,106.6,40.522518,-3.413255,635.1,6,5,325.2,0.703
35.31,1,-0.006,-0.094,-0.006,-0.022,-0.098,0.011,-1.647,0.064,0.084,34.49,106.6,40.522518,-3.413255,635.1,6,5,325.2,0.703
35.41,1,-0.032,-0.043,-0.022,-0.02,-0.075,-0.01,-1.647,0.064,0.087,34.49,106.6,40.522518,-3.413255,635.1,6,5,325.2,0.703
35.51,1,-0.032,-0.029,0.027,-0.03,-0.046,0.002,-1.648,0.059,0.089,34.49,106.6,40.522518,-3.413255,635.1,6,5,325.2,0.703
35.61,1,-0.045,-0.015,0.002,-0.035,-0.035,0.012,-1.649,0.057,0.092,34.49,106.6,40.522518,-3.413255,635.1,6,5,325.2,0.703
35.71,1,-0.057,0.005,-0.002,-0.048,-0.011,0.0,-1.649,0.054,0.094,35.52,112.4,40.522739,-3.413482,636.1,4,5,322.4,0.703
35.82,1,-0.019,0.001,0.024,-0.039,0.001,0.012,-1.65,0.049,0.096,35.52,112.4,40.522739,-3.413482,636.1,4,5,322.4,0.703
35.92,1,0.016,-0.019,-0.014,-0.011,-0.007,0.002,-1.649,0.047,0.1,35.52,112.4,40.522739,-3.413482,636.1,4,5,322.4,0.703
36.01,1,0.012,-0.029,-0.017,0.003,-0.019,-0.01,-1.649,0.05,0.103,35.52,112.4,40.522739,-3.413482,636.1,4,5,322.4,0.703
36.11,1,-0.061,-0.045,-0.029,-0.018,-0.034,-0.017,-1.646,0.051,0.107,35.52,112.4,40.522739,-3.413482,636.1,4,5,322.4,0.703
36.21,1,-0.069,-0.036,-0.001,-0.051,-0.04,-0.014,-1.647,0.052,0.11,35.52,112.4,40.522739,-3.413482,636.1,4,5,322.4,0.703
36.32,1,-0.017,-0.023,-0.015,-0.04,-0.031,-0.012,-1.645,0.051,0.114,35.52,112.4,40.522739,-3.413482,636.1,4,5,322.4,0.703
36.42,1,0.002,-0.028,-0.033,-0.016,-0.029,-0.022,-1.643,0.054,0.118,35.52,112.4,40.522739,-3.413482,636.1,4,5,322.4,0.703
36.52,1,-0.017,-0.021,-0.001,-0.014,-0.023,-0.015,-1.644,0.053,0.121,35.52,112.4,40.522739,-3.413482,636.1,4,5,322.4,0.703
36.62,1,-0.033,-0.033,-0.016,-0.021,-0.026,-0.012,-1.643,0.053,0.124,35.52,112.4,40.522739,-3.413482,636.1,4,5,322.4,0.703
36.72,1,-0.006,-0.013,-0.006,-0.018,-0.023,-0.01,-1.642,0.052,0.128,36.61,115.0,40.522972,-3.413732,637.4,4,5,319.6,2.812
36.82,1,-0.029,0.006,-0.019,-0.015,-0.01,-0.011,-1.642,0.048,0.131,36.61,115.0,40.522972,-3.413732,637.4,4,5,319.6,2.812
36.92,1,-0.012,-0.006,-0.029,-0.024,-0.005,-0.025,-1.639,0.043,0.134,36.61,115.0,40.522972,-3.413732,637.4,4,5,319.6,2.812
37.02,1,-0.023,-0.015,-0.029,-0.018,-0.008,-0.022,-1.638,0.045,0.138,36.61,115.0,40.522972,-3.413732,637.4,4,5,319.6,2.812
37.12,1,0.003,-0.053,-0.026,-0.011,-0.028,-0.028,-1.635,0.043,0.142,36.61,115.0,40.522972,-3.413732,637.4,4,5,319.6,2.812
37.22,1,0.03,-0.033,-0.037,0.005,-0.035,-0.031,-1.631,0.043,0.145,36.61,115.0,40.522972,-3.413732,637.4,4,5,319.6,2.812
37.32,1,0.022,-0.001,-0.024,0.025,-0.022,-0.03,-1.628,0.042,0.148,36.61,115.0,40.522972,-3.413732,637.4,4,5,319.6,2.812
37.42,1,-0.007,0.021,-0.027,0.006,0.003,-0.033,-1.624,0.036,0.151,36.61,115.0,40.522972,-3.413732,637.4,4,5,319.6,2.812
37.52,1,-0.003,-0.028,-0.021,0.003,-0.007,-0.022,-1.623,0.036,0.156,36.61,115.0,40.522972,-3.413732,637.4,4,5,319.6,2.812
37.63,1,-0.014,-0.046,-0.027,-0.007,-0.032,-0.025,-1.621,0.038,0.16,36.61,115.0,40.522972,-3.413732,637.4,4,5,319.6,2.812
37.72,1,0.04,-0.011,-0.01,0.002,-0.028,-0.021,-1.619,0.038,0.163,37.53,115.8,40.523178,-3.413975,639.1,4,5,317.1,5.625
37.82,1,0.117,0.004,-0.034,0.063,-0.005,-0.019,-1.614,0.037,0.166,37.53,115.8,40.523178,-3.413975,639.1,4,5,317.1,5.625
37.92,1,0.012,0.008,-0.067,0.062,0.001,-0.039,-1.608,0.036,0.169,37.53,115.8,40.523178,-3.413975,639.1,4,5,317.1,5.625
38.02,1,-0.147,-0.014,-0.067,-0.034,-0.005,-0.059,-1.607,0.037,0.173,37.53,115.8,40.523178,-3.413975,639.1,4,5,317.1,5.625
38.12,1,-0.2,-0.023,-0.057,-0.133,-0.015,-0.066,-1.61,0.037,0.177,37.53,115.8,40.523178,-3.413975,639.1,4,5,317.1,5.625
38.22,1,-0.053,-0.034,-0.088,-0.122,-0.022,-0.065,-1.607,0.041,0.181,37.53,115.8,40.523178,-3.413975,639.1,4,5,317.1,5.625
38.32,1,0.087,-0.024,-0.074,-0.017,-0.031,-0.077,-1.599,0.046,0.185,37.53,115.8,40.523178,-3.413975,639.1,4,5,317.1,5.625
38.42,1,0.121,-0.028,-0.076,0.065,-0.024,-0.074,-1.593,0.047,0.188,37.53,115.8,40.523178,-3.413975,639.1,4,5,317.1,5.625
38.53,1,0.009,-0.03,-0.144,0.061,-0.03,-0.101,-1.583,0.05,0.192,37.53,115.8,40.523178,-3.413975,639.1,4,5,317.1,5.625
38.62,1,-0.115,-0.024,-0.078,-0.025,-0.024,-0.106,-1.578,0.051,0.196,37.53,115.8,40.523178,-3.413975,639.1,4,5,317.1,5.625
38.73,1,-0.095,-0.027,-0.081,-0.08,-0.023,-0.083,-1.579,0.053,0.201,38.52,115.5,40.523376,-3.414242,640.5,4,5,314.6,4.922
38.82,1,-0.017,-0.051,-0.074,-0.061,-0.041,-0.089,-1.578,0.053,0.205,38.52,115.5,40.523376,-3.414242,640.5,4,5,314.6,4.922
38.92,1,0.02,0.004,-0.075,-0.016,-0.024,-0.072,-1.573,0.05,0.209,38.52,115.5,40.523376,-3.414242,640.5,4,5,314.6,4.922
39.02,1,0.016,-0.003,-0.066,0.008,-0.007,-0.075,-1.564,0.05,0.214,38.52,115.5,40.523376,-3.414242,640.5,4,5,314.6,4.922
39.12,1,0.053,-0.02,-0.064,0.028,-0.01,-0.068,-1.556,0.053,0.219,38.52,115.5,40.523376,-3.414242,640.5,4,5,314.6,4.922
39.22,1,-0.004,-0.028,-0.073,0.024,-0.021,-0.07,-1.549,0.06,0.223,38.52,115.5,40.523376,-3.414242,640.5,4,5,314.6,4.922
39.32,1,-0.007,-0.034,-0.045,0.001,-0.03,-0.06,-1.543,0.065,0.228,38.52,115.5,40.523376,-3.414242,640.5,4,5,314.6,4.922
39.42,1,0.037,-0.02,-0.035,0.013,-0.025,-0.044,-1.539,0.066,0.232,38.52,115.5,40.523376,-3.414242,640.5,4,5,314.6,4.922
39.52,1,0.014,-0.006,-0.054,0.019,-0.019,-0.048,-1.533,0.067,0.237,38.52,115.5,40.523376,-3.414242,640.5,4,5,314.6,4.922
39.62,1,0.018,-0.02,-0.028,0.018,-0.014,-0.04,-1.53,0.069,0.242,38.52,115.5,40.523376,-3.414242,640.5,4,5,314.6,4.922
39.72,1,-0.008,-0.033,-0.058,0.008,-0.025,-0.046,-1.526,0.072,0.247,39.56,112.5,40.523579,-3.414526,641.3,4,5,312.2,4.922
39.82,1,-0.02,-0.024,-0.027,-0.008,-0.025,-0.04,-1.523,0.074,0.252,39.56,112.5,40.523579,-3.414526,641.3,4,5,312.2,4.922
39.93,1,0.018,-0.021,-0.02,-0.004,-0.024,-0.03,-1.521,0.076,0.257,39.56,112.5,40.523579,-3.414526,641.3,4,5,312.2,4.922
40.03,1,0.021,0.005,-0.043,0.013,-0.014,-0.033,-1.517,0.077,0.262,39.56,112.5,40.523579,-3.414526,641.3,4,5,312.2,4.922
40.13,1,0.023,0.037,-0.022,0.024,0.017,-0.032,-1.515,0.077,0.265,39.56,112.5,40.523579,-3.414526,641.3,4,5,312.2,4.922
40.23,1,-0.048,0.03,-0.027,-0.008,0.022,-0.024,-1.512,0.073,0.271,39.56,112.5,40.523579,-3.414526,641.3,4,5,312.2,4.922
40.33,1,-0.09,0.048,-0.025,-0.051,0.034,-0.029,-1.512,0.071,0.268,39.56,112.5,40.523579,-3.414526,641.3,4,5,312.2,4.922
40.43,1,0.037,0.024,0.002,-0.028,0.035,-0.01,-1.511,0.069,0.278,39.56,112.5,40.523579,-3.414526,641.3,4,5,312.2,4.922
40.53,1,-0.02,0.047,-0.045,-0.007,0.036,-0.027,-1.507,0.066,0.281,39.56,112.5,40.523579,-3.414526,641.3,4,5,312.2,4.922
40.63,1,-0.012,0.045,-0.009,-0.02,0.043,-0.024,-1.508,0.064,0.285,39.56,112.5,40.523579,-3.414526,641.3,4,5,312.2,4.922
40.73,1,0.039,0.021,-0.018,0.014,0.033,-0.012,-1.506,0.062,0.288,40.51,109.2,40.523762,-3.414803,642.1,4,5,309.0,5.625
40.83,1,-0.045,0.025,-0.032,-0.008,0.031,-0.032,-1.504,0.062,0.291,40.51,109.2,40.523762,-3.414803,642.1,4,5,309.0,5.625
40.93,1,0.005,0.022,0.017,-0.014,0.024,-0.004,-1.505,0.061,0.294,40.51,109.2,40.523762,-3.414803,642.1,4,5,309.0,5.625
41.03,1,0.038,0.037,-0.013,0.016,0.028,-0.002,-1.503,0.057,0.298,40.51,109.2,40.523762,-3.414803,642.1,4,5,309.0,5.625
41.14,1,0.021,0.032,0.004,0.021,0.031,-0.009,-1.499,0.055,0.301,40.51,109.2,40.523762,-3.414803,642.1,4,5,309.0,5.625
41.23,1,0.022,0.011,-0.021,0.025,0.02,-0.003,-1.496,0.055,0.304,40.51,109.2,40.523762,-3.414803,642.1,4,5,309.0,5.625
41.33,1,-0.042,0.022,-0.01,0.002,0.022,-0.015,-1.494,0.053,0.307,40.51,109.2,40.523762,-3.414803,642.1,4,5,309.0,5.625
41.43,1,-0.062,0.024,-0.02,-0.04,0.027,-0.013,-1.496,0.051,0.311,40.51,109.2,40.523762,-3.414803,642.1,4,5,309.0,5.625
41.53,1,0.0,0.042,0.023,-0.025,0.033,0.0,-1.498,0.049,0.315,40.51,109.2,40.523762,-3.414803,642.1,4,5,309.0,5.625
41.63,1,0.026,0.023,-0.029,-0.002,0.027,-0.009,-1.495,0.047,0.318,40.51,109.2,40.523762,-3.414803,642.1,4,5,309.0,5.625
41.73,1,-0.007,0.005,0.006,0.0,0.02,-0.008,-1.493,0.047,0.322,41.54,107.5,40.523926,-3.415086,642.7,4,5,307.3,4.922
41.83,1,0.003,0.005,-0.005,0.003,0.008,-0.001,-1.495,0.048,0.326,41.54,107.5,40.523926,-3.415086,642.7,4,5,307.3,4.922
41.94,1,-0.01,-0.016,0.006,-0.004,-0.001,-0.002,-1.495,0.05,0.331,41.54,107.5,40.523926,-3.415086,642.7,4,5,307.3,4.922
42.03,1,0.024,-0.003,0.006,0.007,-0.004,0.007,-1.496,0.053,0.335,41.54,107.5,40.523926,-3.415086,642.7,4,5,307.3,4.922
42.13,1,-0.029,0.004,-0.036,-0.003,-0.003,-0.016,-1.495,0.051,0.339,41.54,107.5,40.523926,-3.415086,642.7,4,5,307.3,4.922
42.23,1,-0.063,0.029,-0.004,-0.034,0.01,-0.01,-1.498,0.048,0.344,41.54,107.5,40.523926,-3.415086,642.7,4,5,307.3,4.922
42.33,1,-0.001,0.012,0.007,-0.03,0.016,-0.006,-1.499,0.047,0.347,41.54,107.5,40.523926,-3.415086,642.7,4,5,307.3,4.922
42.44,1,0.024,-0.004,0.009,-0.001,0.005,0.008,-1.499,0.046,0.351,41.54,107.5,40.523926,-3.415086,642.7,4,5,307.3,4.922
42.54,1,0.027,0.015,-0.027,0.017,0.007,-0.011,-1.495,0.044,0.354,41.54,107.5,40.523926,-3.415086,642.7,4,5,307.3,4.922
42.64,1,0.026,0.042,0.004,0.021,0.024,-0.008,-1.494,0.04,0.356,41.54,107.5,40.523926,-3.415086,642.7,4,5,307.3,4.922
42.73,1,0.004,0.05,0.014,0.016,0.04,0.007,-1.494,0.036,0.359,42.5,105.0,40.524075,-3.415365,643.3,4,5,304.8,4.922
42.83,1,0.003,0.025,-0.005,0.01,0.037,0.002,-1.491,0.035,0.362,42.5,105.0,40.524075,-3.415365,643.3,4,5,304.8,4.922
42.94,1,-0.057,0.016,-0.02,-0.016,0.023,-0.01,-1.491,0.034,0.365,42.5,105.0,40.524075,-3.415365,643.3,4,5,304.8,4.922
43.03,1,-0.038,0.032,0.015,-0.036,0.029,-0.001,-1.493,0.033,0.368,42.5,105.0,40.524075,-3.415365,643.3,4,5,304.8,4.922
43.14,1,0.021,0.0,0.012,-0.02,0.016,0.007,-1.494,0.03,0.371,42.5,105.0,40.524075,-3.415365,643.3,4,5,304.8,4.922
43.24,1,0.043,0.005,-0.003,0.021,0.008,0.007,-1.492,0.028,0.373,42.5,105.0,40.524075,-3.415365,643.3,4,5,304.8,4.922
43.34,1,-0.002,0.007,-0.012,0.023,0.001,-0.006,-1.49,0.03,0.375,42.5,105.0,40.524075,-3.415365,643.3,4,5,304.8,4.922
43.44,1,-0.044,0.03,-0.014,-0.014,0.021,-0.01,-1.491,0.029,0.378,42.5,105.0,40.524075,-3.415365,643.3,4,5,304.8,4.922
43.54,1,-0.031,0.004,0.027,-0.032,0.018,0.006,-1.494,0.029,0.382,42.5,105.0,40.524075,-3.415365,643.3,4,5,304.8,4.922
43.64,1,0.019,-0.024,0.003,-0.012,-0.005,0.01,-1.494,0.031,0.386,42.5,105.0,40.524075,-3.415365,643.3,4,5,304.8,4.922
43.74,1,0.02,-0.005,0.005,0.01,-0.013,0.005,-1.494,0.031,0.389,43.51,102.0,40.524212,-3.415648,643.4,4,5,302.7,4.57
43.84,1,-0.012,0.002,0.006,0.003,-0.006,0.005,-1.495,0.031,0.393,43.51,102.0,40.524212,-3.415648,643.4,4,5,302.7,4.57
43.94,1,-0.065,-0.006,0.019,-0.027,0.004,0.01,-1.496,0.031,0.396,43.51,102.0,40.524212,-3.415648,643.4,4,5,302.7,4.57
44.04,1,-0.043,-0.026,0.032,-0.043,-0.014,0.019,-1.5,0.033,0.4,43.51,102.0,40.524212,-3.415648,643.4,4,5,302.7,4.57
44.14,1,0.027,-0.019,0.052,-0.017,-0.021,0.035,-1.503,0.034,0.403,43.51,102.0,40.524212,-3.415648,643.4,4,5,302.7,4.57
44.24,1,0.07,0.024,0.033,0.032,-0.006,0.043,-1.502,0.033,0.406,43.51,102.0,40.524212,-3.415648,643.4,4,5,302.7,4.57
44.34,1,0.048,0.01,0.032,0.046,0.015,0.034,-1.503,0.031,0.409,43.51,102.0,40.524212,-3.415648,643.4,4,5,302.7,4.57
44.44,1,-0.032,-0.001,0.02,0.015,0.005,0.026,-1.506,0.033,0.412,43.51,102.0,40.524212,-3.415648,643.4,4,5,302.7,4.57
44.54,1,-0.036,0.002,0.071,-0.016,0.006,0.045,-1.51,0.031,0.415,43.51,102.0,40.524212,-3.415648,643.4,4,5,302.7,4.57
44.64,1,-0.006,0.011,0.059,-0.019,0.007,0.056,-1.512,0.033,0.418,43.51,102.0,40.524212,-3.415648,643.4,4,5,302.7,4.57
44.74,1,-0.005,-0.007,0.039,-0.011,-0.001,0.051,-1.516,0.034,0.422,44.51,100.1,40.524334,-3.415931,643.6,4,5,300.6,4.57
44.84,1,0.005,-0.03,0.056,0.001,-0.011,0.05,-1.52,0.036,0.425,44.51,100.1,40.524334,-3.415931,643.6,4,5,300.6,4.57
44.94,1,0.024,-0.029,0.066,0.009,-0.025,0.057,-1.526,0.038,0.43,44.51,100.1,40.524334,-3.415931,643.6,4,5,300.6,4.57
45.04,1,-0.006,-0.007,0.049,0.008,-0.021,0.059,-1.531,0.037,0.433,44.51,100.1,40.524334,-3.415931,643.6,4,5,300.6,4.57
45.14,1,-0.028,-0.016,0.037,-0.009,-0.014,0.043,-1.534,0.037,0.437,44.51,100.1,40.524334,-3.415931,643.6,4,5,300.6,4.57
45.24,1,-0.01,-0.009,0.069,-0.016,-0.012,0.055,-1.538,0.037,0.441,44.51,100.1,40.524334,-3.415931,643.6,4,5,300.6,4.57
45.34,1,0.006,-0.007,0.05,-0.007,-0.008,0.056,-1.541,0.037,0.445,44.51,100.1,40.524334,-3.415931,643.6,4,5,300.6,4.57
45.44,1,0.05,-0.019,0.036,0.023,-0.013,0.047,-1.543,0.038,0.448,44.51,100.1,40.524334,-3.415931,643.6,4,5,300.6,4.57
45.54,1,-0.018,-0.01,0.025,0.015,-0.012,0.036,-1.545,0.037,0.451,44.51,100.1,40.524334,-3.415931,643.6,4,5,300.6,4.57
45.65,1,0.018,0.021,0.044,0.009,-0.002,0.035,-1.547,0.034,0.454,44.51,100.1,40.524334,-3.415931,643.6,4,5,300.6,4.57
45.74,1,-0.02,0.01,0.044,-0.008,0.004,0.037,-1.552,0.033,0.456,45.54,100.8,40.524452,-3.416222,643.4,4,5,297.8,4.922
45.84,1,-0.021,0.025,0.039,-0.017,0.022,0.046,-1.556,0.03,0.459,45.54,100.8,40.524452,-3.416222,643.4,4,5,297.8,4.922
45.94,1,0.001,0.037,0.044,-0.009,0.028,0.04,-1.559,0.028,0.461,45.54,100.8,40.524452,-3.416222,643.4,4,5,297.8,4.922
46.05,1,0.027,-0.006,0.054,0.007,0.013,0.05,-1.563,0.027,0.464,45.54,100.8,40.524452,-3.416222,643.4,4,5,297.8,4.922
46.14,1,0.032,0.013,0.027,0.024,0.012,0.039,-1.567,0.025,0.467,45.54,100.8,40.524452,-3.416222,643.4,4,5,297.8,4.922
46.24,1,0.013,0.018,0.039,0.022,0.015,0.036,-1.569,0.021,0.469,45.54,100.8,40.524452,-3.416222,643.4,4,5,297.8,4.922
46.34,1,-0.018,-0.007,0.031,0.006,0.008,0.036,-1.572,0.019,0.472,45.54,100.8,40.524452,-3.416222,643.4,4,5,297.8,4.922
46.44,1,-0.042,0.007,0.022,-0.02,0.002,0.028,-1.574,0.017,0.474,45.54,100.8,40.524452,-3.416222,643.4,4,5,297.8,4.922
46.54,1,-0.047,0.002,0.024,-0.038,0.004,0.022,-1.577,0.018,0.477,45.54,100.8,40.524452,-3.416222,643.4,4,5,297.8,4.922
46.65,1,-0.024,-0.008,0.022,-0.038,-0.002,0.025,-1.581,0.02,0.479,45.54,100.8,40.524452,-3.416222,643.4,4,5,297.8,4.922
46.75,1,0.021,-0.016,0.035,-0.009,-0.009,0.03,-1.582,0.019,0.482,46.52,102.9,40.524567,-3.416521,643.4,3,5,295.3,5.273
46.86,1,0.077,0.017,0.006,0.035,0.0,0.022,-1.581,0.02,0.484,46.52,102.9,40.524567,-3.416521,643.4,3,5,295.3,5.273
46.96,1,0.03,-0.015,0.001,0.044,-0.002,0.007,-1.58,0.021,0.486,46.52,102.9,40.524567,-3.416521,643.4,3,5,295.3,5.273
47.05,1,-0.019,-0.004,0.004,0.013,-0.007,0.005,-1.58,0.019,0.489,46.52,102.9,40.524567,-3.416521,643.4,3,5,295.3,5.273
47.15,1,-0.004,-0.006,0.021,-0.003,-0.003,0.011,-1.58,0.02,0.491,46.52,102.9,40.524567,-3.416521,643.4,3,5,295.3,5.273
47.25,1,0.009,-0.011,-0.005,0.006,-0.008,0.008,-1.579,0.021,0.494,46.52,102.9,40.524567,-3.416521,643.4,3,5,295.3,5.273
47.35,1,0.002,0.018,-0.001,0.005,0.002,0.0,-1.578,0.022,0.497,46.52,102.9,40.524567,-3.416521,643.4,3,5,295.3,5.273
47.46,1,0.014,0.014,-0.016,0.007,0.009,-0.005,-1.577,0.024,0.499,46.52,102.9,40.524567,-3.416521,643.4,3,5,295.3,5.273
47.55,1,-0.001,-0.025,0.006,0.001,-0.001,-0.008,-1.577,0.024,0.502,46.52,102.9,40.524567,-3.416521,643.4,3,5,295.3,5.273
47.65,1,0.005,-0.037,0.014,0.003,-0.027,0.01,-1.579,0.027,0.506,46.52,102.9,40.524567,-3.416521,643.4,3,5,295.3,5.273
47.75,1,0.078,-0.032,0.007,0.039,-0.03,0.006,-1.578,0.031,0.511,47.51,104.9,40.524677,-3.416833,643.5,3,5,293.2,5.273
47.85,1,0.056,-0.041,-0.015,0.053,-0.034,-0.002,-1.576,0.034,0.515,47.51,104.9,40.524677,-3.416833,643.5,3,5,293.2,5.273
47.96,1,0.002,-0.027,-0.001,0.034,-0.035,-0.007,-1.575,0.035,0.517,47.51,104.9,40.524677,-3.416833,643.5,3,5,293.2,5.273
48.05,1,-0.013,-0.011,0.012,0.008,-0.019,0.004,-1.576,0.032,0.519,47.51,104.9,40.524677,-3.416833,643.5,3,5,293.2,5.273
48.15,1,0.01,0.056,0.035,-0.0,0.018,0.019,-1.576,0.029,0.52,47.51,104.9,40.524677,-3.416833,643.5,3,5,293.2,5.273
48.25,1,0.04,0.045,-0.009,0.017,0.032,0.015,-1.575,0.026,0.522,47.51,104.9,40.524677,-3.416833,643.5,3,5,293.2,5.273
48.35,1,-0.038,0.029,0.014,0.007,0.034,0.006,-1.576,0.027,0.524,47.51,104.9,40.524677,-3.416833,643.5,3,5,293.2,5.273
48.45,1,-0.026,-0.009,0.024,-0.02,0.017,0.014,-1.579,0.03,0.526,47.51,104.9,40.524677,-3.416833,643.5,3,5,293.2,5.273
48.55,1,-0.006,0.008,0.04,-0.022,0.004,0.028,-1.582,0.035,0.529,47.51,104.9,40.524677,-3.416833,643.5,3,5,293.2,5.273
48.66,1,0.03,0.011,0.007,0.006,0.01,0.024,-1.583,0.039,0.53,47.51,104.9,40.524677,-3.416833,643.5,3,5,293.2,5.273
48.75,1,0.034,-0.015,0.006,0.028,0.002,0.013,-1.583,0.041,0.533,48.57,106.6,40.524769,-3.417167,643.1,3,5,291.1,4.219
48.85,1,-0.03,-0.044,0.005,0.008,-0.023,0.007,-1.584,0.044,0.536,48.57,106.6,40.524769,-3.417167,643.1,3,5,291.1,4.219
48.95,1,-0.088,-0.011,0.008,-0.037,-0.025,0.002,-1.587,0.046,0.539,48.57,106.6,40.524769,-3.417167,643.1,3,5,291.1,4.219
49.05,1,-0.026,0.005,0.053,-0.064,-0.007,0.024,-1.592,0.048,0.542,48.57,106.6,40.524769,-3.417167,643.1,3,5,291.1,4.219
49.16,1,0.132,0.006,0.036,0.03,0.0,0.046,-1.593,0.052,0.545,48.57,106.6,40.524769,-3.417167,643.1,3,5,291.1,4.219
49.25,1,0.13,-0.025,-0.003,0.111,-0.015,0.021,-1.588,0.054,0.547,48.57,106.6,40.524769,-3.417167,643.1,3,5,291.1,4.219
49.36,1,0.046,0.019,-0.004,0.085,0.001,0.003,-1.587,0.053,0.549,48.57,106.6,40.524769,-3.417167,643.1,3,5,291.1,4.219
49.45,1,-0.146,0.018,0.009,-0.018,0.011,0.004,-1.591,0.049,0.55,48.57,106.6,40.524769,-3.417167,643.1,3,5,291.1,4.219
49.55,1,-0.191,0.039,0.033,-0.131,0.024,0.017,-1.596,0.046,0.551,48.57,106.6,40.524769,-3.417167,643.1,3,5,291.1,4.219
49.65,1,-0.111,0.008,0.014,-0.131,0.019,0.025,-1.596,0.045,0.552,48.57,106.6,40.524769,-3.417167,643.1,3,5,291.1,4.219
49.76,1,0.038,0.038,0.014,-0.06,0.027,0.01,-1.596,0.039,0.553,49.51,109.1,40.524868,-3.417492,643.0,3,5,288.6,4.219
49.85,1,0.129,0.023,0.004,0.037,0.028,0.01,-1.596,0.03,0.554,49.51,109.1,40.524868,-3.417492,643.0,3,5,288.6,4.219
49.95,1,0.02,0.022,-0.03,0.061,0.027,-0.005,-1.596,0.027,0.554,49.51,109.1,40.524868,-3.417492,643.0,3,5,288.6,4.219
50.06,1,-0.05,0.018,-0.011,0.005,0.02,-0.014,-1.596,0.028,0.555,49.51,109.1,40.524868,-3.417492,643.0,3,5,288.6,4.219
50.15,1,0.005,0.017,-0.028,-0.007,0.02,-0.017,-1.593,0.028,0.556,49.51,109.1,40.524868,-3.417492,643.0,3,5,288.6,4.219
50.25,1,-0.049,0.009,-0.087,-0.025,0.014,-0.048,-1.586,0.026,0.556,49.51,109.1,40.524868,-3.417492,643.0,3,5,288.6,4.219
50.36,1,-0.071,0.016,-0.077,-0.043,0.015,-0.069,-1.58,0.022,0.556,49.51,109.1,40.524868,-3.417492,643.0,3,5,288.6,4.219
50.46,1,-0.036,0.042,-0.052,-0.056,0.024,-0.07,-1.578,0.02,0.557,49.51,109.1,40.524868,-3.417492,643.0,3,5,288.6,4.219
50.56,1,-0.024,0.021,-0.066,-0.037,0.033,-0.059,-1.574,0.02,0.557,49.51,109.1,40.524868,-3.417492,643.0,3,5,288.6,4.219
50.66,1,0.032,-0.017,-0.066,-0.004,0.005,-0.059,-1.568,0.026,0.559,49.51,109.1,40.524868,-3.417492,643.0,3,5,288.6,4.219
50.76,1,0.026,-0.002,-0.052,0.027,-0.003,-0.061,-1.563,0.032,0.56,50.5,109.1,40.524868,-3.417492,643.0,3,5,288.6,4.57
50.86,1,-0.017,0.004,-0.058,-0.001,-0.0,-0.059,-1.557,0.035,0.56,50.5,109.1,40.524868,-3.417492,643.0,3,5,288.6,4.57
50.96,1,0.023,0.026,-0.077,0.008,0.01,-0.066,-1.55,0.036,0.559,50.5,109.1,40.524868,-3.417492,643.0,3,5,288.6,4.57
51.06,1,-0.038,0.072,-0.055,-0.002,0.038,-0.064,-1.546,0.032,0.558,50.5,109.1,40.524868,-3.417492,643.0,3,5,288.6,4.57
51.17,1,-0.054,0.071,-0.068,-0.041,0.063,-0.064,-1.542,0.029,0.556,50.5,109.1,40.524868,-3.417492,643.0,3,5,288.6,4.57
51.26,1,-0.044,0.06,-0.047,-0.039,0.062,-0.057,-1.539,0.025,0.555,50.5,109.1,40.524868,-3.417492,643.0,3,5,288.6,4.57
51.36,1,-0.035,0.046,-0.047,-0.042,0.053,-0.054,-1.534,0.02,0.554,50.5,109.1,40.524868,-3.417492,643.0,3,5,288.6,4.57
51.46,1,-0.012,0.029,-0.045,-0.029,0.043,-0.046,-1.53,0.019,0.553,50.5,109.1,40.524868,-3.417492,643.0,3,5,288.6,4.57
51.56,1,0.028,0.025,-0.031,-0.002,0.033,-0.041,-1.528,0.019,0.551,50.5,109.1,40.524868,-3.417492,643.0,3,5,288.6,4.57
51.66,1,0.008,0.033,-0.058,0.013,0.029,-0.044,-1.523,0.017,0.55,50.5,109.1,40.524868,-3.417492,643.0,3,5,288.6,4.57
51.78,1,-0.018,0.052,-0.031,-0.005,0.039,-0.044,-1.52,0.015,0.548,51.52,111.5,40.525028,-3.418193,641.8,3,5,286.2,2.461
51.86,1,0.026,0.051,-0.009,0.004,0.05,-0.026,-1.518,0.014,0.547,51.52,111.5,40.525028,-3.418193,641.8,3,5,286.2,2.461
51.96,1,0.019,0.012,-0.038,0.02,0.034,-0.027,-1.512,0.017,0.546,51.52,111.5,40.525028,-3.418193,641.8,3,5,286.2,2.461
52.06,1,0.014,0.016,-0.033,0.015,0.026,-0.034,-1.509,0.02,0.544,51.52,111.5,40.525028,-3.418193,641.8,3,5,286.2,2.461
52.16,1,-0.045,0.016,-0.024,-0.006,0.017,-0.031,-1.506,0.021,0.543,51.52,111.5,40.525028,-3.418193,641.8,3,5,286.2,2.461
52.26,1,-0.059,0.044,-0.011,-0.04,0.026,-0.017,-1.506,0.021,0.542,51.52,111.5,40.525028,-3.418193,641.8,3,5,286.2,2.461
52.36,1,-0.021,0.016,-0.002,-0.045,0.029,-0.014,-1.506,0.023,0.54,51.52,111.5,40.525028,-3.418193,641.8,3,5,286.2,2.461
52.47,1,0.03,-0.011,-0.008,0.006,0.011,0.001,-1.505,0.026,0.539,51.52,111.5,40.525028,-3.418193,641.8,3,5,286.2,2.461
52.57,1,0.034,0.03,-0.005,0.023,0.014,-0.012,-1.502,0.026,0.538,51.52,111.5,40.525028,-3.418193,641.8,3,5,286.2,2.461
52.66,1,-0.009,0.021,-0.048,0.006,0.024,-0.023,-1.501,0.027,0.536,51.52,111.5,40.525028,-3.418193,641.8,3,5,286.2,2.461
52.76,1,-0.042,0.019,0.009,-0.021,0.013,-0.017,-1.503,0.027,0.534,52.55,110.1,40.525108,-3.418531,640.8,3,5,286.2,1.406
52.86,1,-0.026,0.013,-0.028,-0.025,0.016,-0.014,-1.501,0.025,0.532,52.55,110.1,40.525108,-3.418531,640.8,3,5,286.2,1.406
52.96,1,0.001,-0.006,-0.004,-0.017,0.008,-0.014,-1.499,0.022,0.53,52.55,110.1,40.525108,-3.418531,640.8,3,5,286.2,1.406
53.06,1,0.059,0.013,0.003,0.02,0.003,0.001,-1.499,0.017,0.528,52.55,110.1,40.525108,-3.418531,640.8,3,5,286.2,1.406
53.16,1,-0.007,0.056,-0.035,0.022,0.026,-0.018,-1.496,0.011,0.526,52.55,110.1,40.525108,-3.418531,640.8,3,5,286.2,1.406
53.26,1,-0.08,0.097,-0.016,-0.03,0.064,-0.021,-1.495,-0.0,0.523,52.55,110.1,40.525108,-3.418531,640.8,3,5,286.2,1.406
53.36,1,-0.082,0.07,0.015,-0.065,0.077,-0.006,-1.498,-0.002,0.52,52.55,110.1,40.525108,-3.418531,640.8,3,5,286.2,1.406
53.47,1,0.009,0.03,0.006,-0.043,0.054,0.004,-1.499,0.0,0.518,52.55,110.1,40.525108,-3.418531,640.8,3,5,286.2,1.406
53.57,1,0.061,0.032,-0.004,0.015,0.039,0.005,-1.497,0.002,0.515,52.55,110.1,40.525108,-3.418531,640.8,3,5,286.2,1.406
53.66,1,0.02,0.041,-0.013,0.033,0.038,-0.007,-1.493,0.004,0.511,52.55,110.1,40.525108,-3.418531,640.8,3,5,286.2,1.406
53.77,1,-0.019,0.05,0.005,0.006,0.043,-0.002,-1.492,0.003,0.508,53.51,108.7,40.525181,-3.418879,640.4,3,5,285.5,0.703
53.86,1,-0.018,0.059,-0.001,-0.008,0.051,-0.001,-1.492,0.003,0.505,53.51,108.7,40.525181,-3.418879,640.4,3,5,285.5,0.703
53.97,1,-0.032,0.035,0.001,-0.026,0.046,-0.003,-1.493,0.003,0.502,53.51,108.7,40.525181,-3.418879,640.4,3,5,285.5,0.703
54.07,1,-0.02,-0.006,-0.019,-0.021,0.025,-0.004,-1.493,0.004,0.5,53.51,108.7,40.525181,-3.418879,640.4,3,5,285.5,0.703
54.17,1,-0.007,-0.003,-0.0,-0.015,0.005,-0.006,-1.494,0.007,0.498,53.51,108.7,40.525181,-3.418879,640.4,3,5,285.5,0.703
54.27,1,-0.022,0.002,-0.003,-0.016,0.002,-0.006,-1.493,0.008,0.495,53.51,108.7,40.525181,-3.418879,640.4,3,5,285.5,0.703
54.37,1,-0.036,-0.012,0.005,-0.025,-0.003,-0.002,-1.494,0.011,0.493,53.51,108.7,40.525181,-3.418879,640.4,3,5,285.5,0.703
54.47,1,-0.01,-0.007,0.005,-0.022,-0.01,0.005,-1.494,0.015,0.491,53.51,108.7,40.525181,-3.418879,640.4,3,5,285.5,0.703
54.57,1,0.004,0.013,-0.001,-0.008,0.0,-0.0,-1.494,0.016,0.488,53.51,108.7,40.525181,-3.418879,640.4,3,5,285.5,0.703
54.68,1,0.013,0.028,-0.005,0.001,0.016,0.0,-1.493,0.017,0.486,53.51,108.7,40.525181,-3.418879,640.4,3,5,285.5,0.703
54.77,1,0.046,0.044,0.002,0.023,0.031,-0.001,-1.492,0.018,0.483,54.49,107.1,40.525253,-3.419214,639.4,3,5,286.5,0.703
54.88,1,0.024,0.002,0.009,0.031,0.024,0.006,-1.489,0.02,0.481,54.49,107.1,40.525253,-3.419214,639.4,3,5,286.5,0.703
54.98,1,-0.033,-0.003,-0.018,0.002,0.007,-0.009,-1.488,0.023,0.478,54.49,107.1,40.525253,-3.419214,639.4,3,5,286.5,0.703
55.07,1,-0.061,0.019,0.005,-0.032,0.008,-0.001,-1.49,0.023,0.475,54.49,107.1,40.525253,-3.419214,639.4,3,5,286.5,0.703
55.17,1,-0.044,0.005,0.003,-0.043,0.01,0.003,-1.491,0.024,0.473,54.49,107.1,40.525253,-3.419214,639.4,3,5,286.5,0.703
55.27,1,-0.025,0.032,0.007,-0.039,0.014,0.003,-1.491,0.024,0.47,54.49,107.1,40.525253,-3.419214,639.4,3,5,286.5,0.703
55.38,1,-0.017,0.046,0.002,-0.026,0.031,0.006,-1.491,0.022,0.466,54.49,107.1,40.525253,-3.419214,639.4,3,5,286.5,0.703
55.47,1,0.03,0.051,0.012,0.001,0.045,0.008,-1.491,0.018,0.462,54.49,107.1,40.525253,-3.419214,639.4,3,5,286.5,0.703
55.67,1,-0.043,0.068,-0.021,-0.01,0.057,-0.006,-1.491,0.01,0.453,54.49,107.1,40.525253,-3.419214,639.4,3,5,286.5,0.703
55.77,1,-0.026,0.057,0.004,-0.028,0.061,-0.005,-1.491,0.007,0.448,54.49,107.1,40.525253,-3.419214,639.4,3,5,286.5,0.703
55.87,1,0.003,0.067,0.015,-0.014,0.062,0.005,-1.491,0.003,0.443,55.56,106.8,40.525337,-3.419547,638.6,3,5,286.9,1.406
55.97,1,-0.076,0.079,-0.054,-0.027,0.067,-0.013,-1.49,-0.001,0.437,55.56,106.8,40.525337,-3.419547,638.6,3,5,286.9,1.406
56.08,1,-0.122,0.067,0.029,-0.082,0.075,-0.016,-1.495,-0.002,0.432,55.56,106.8,40.525337,-3.419547,638.6,3,5,286.9,1.406
56.18,1,-0.009,0.066,0.042,-0.075,0.067,0.021,-1.497,-0.003,0.427,55.56,106.8,40.525337,-3.419547,638.6,3,5,286.9,1.406
56.27,1,0.082,0.065,-0.013,0.016,0.066,0.021,-1.493,-0.004,0.421,55.56,106.8,40.525337,-3.419547,638.6,3,5,286.9,1.406
56.37,1,0.022,0.044,-0.011,0.038,0.058,-0.007,-1.488,-0.006,0.416,55.56,106.8,40.525337,-3.419547,638.6,3,5,286.9,1.406
56.47,1,-0.042,0.035,0.01,-0.004,0.046,0.0,-1.49,-0.007,0.411,55.56,106.8,40.525337,-3.419547,638.6,3,5,286.9,1.406
56.58,1,-0.039,0.052,0.006,-0.026,0.044,0.005,-1.492,-0.011,0.405,55.56,106.8,40.525337,-3.419547,638.6,3,5,286.9,1.406
56.68,1,-0.013,0.055,0.003,-0.02,0.053,0.008,-1.494,-0.016,0.399,55.56,106.8,40.525337,-3.419547,638.6,3,5,286.9,1.406
56.78,1,-0.037,0.057,-0.032,-0.026,0.056,-0.013,-1.492,-0.019,0.393,55.56,106.8,40.525337,-3.419547,638.6,3,5,286.9,1.406
56.87,1,-0.069,0.044,-0.005,-0.049,0.049,-0.016,-1.494,-0.019,0.387,56.55,104.9,40.52541,-3.419879,637.6,3,5,287.9,1.406
56.97,1,-0.069,0.043,0.001,-0.066,0.047,-0.003,-1.498,-0.021,0.381,56.55,104.9,40.52541,-3.419879,637.6,3,5,287.9,1.406
57.07,1,0.001,0.042,0.002,-0.039,0.043,-0.002,-1.499,-0.025,0.375,56.55,104.9,40.52541,-3.419879,637.6,3,5,287.9,1.406
57.18,1,-0.005,0.027,-0.011,-0.012,0.037,-0.004,-1.499,-0.026,0.369,56.55,104.9,40.52541,-3.419879,637.6,3,5,287.9,1.406
57.28,1,0.001,0.035,-0.001,-0.007,0.036,-0.003,-1.499,-0.028,0.363,56.55,104.9,40.52541,-3.419879,637.6,3,5,287.9,1.406
57.38,1,0.007,0.022,-0.009,0.002,0.029,-0.006,-1.498,-0.031,0.357,56.55,104.9,40.52541,-3.419879,637.6,3,5,287.9,1.406
57.48,1,-0.013,0.003,-0.008,-0.003,0.016,-0.007,-1.499,-0.033,0.351,56.55,104.9,40.52541,-3.419879,637.6,3,5,287.9,1.406
57.58,1,-0.017,0.015,-0.006,-0.014,0.01,-0.006,-1.5,-0.034,0.345,56.55,104.9,40.52541,-3.419879,637.6,3,5,287.9,1.406
57.68,1,-0.019,0.034,-0.02,-0.014,0.021,-0.015,-1.499,-0.038,0.34,56.55,104.9,40.52541,-3.419879,637.6,3,5,287.9,1.406
57.79,1,-0.078,0.038,-0.024,-0.042,0.033,-0.018,-1.499,-0.041,0.334,56.55,104.9,40.52541,-3.419879,637.6,3,5,287.9,1.406
57.89,1,-0.107,0.025,-0.019,-0.083,0.028,-0.022,-1.501,-0.043,0.328,57.53,104.2,40.525501,-3.420197,636.4,3,5,291.4,1.406
57.98,1,-0.067,-0.001,0.017,-0.078,0.017,-0.003,-1.504,-0.044,0.323,57.53,104.2,40.525501,-3.420197,636.4,3,5,291.4,1.406
58.08,1,0.04,0.004,-0.004,-0.027,0.008,0.002,-1.505,-0.045,0.317,57.53,104.2,40.525501,-3.420197,636.4,3,5,291.4,1.406
58.18,1,0.035,0.028,-0.027,0.019,0.016,-0.013,-1.501,-0.048,0.311,57.53,104.2,40.525501,-3.420197,636.4,3,5,291.4,1.406
58.28,1,-0.038,0.039,-0.023,0.001,0.027,-0.023,-1.501,-0.051,0.305,57.53,104.2,40.525501,-3.420197,636.4,3,5,291.4,1.406
58.38,1,-0.035,0.015,0.004,-0.025,0.029,-0.008,-1.504,-0.052,0.299,57.53,104.2,40.525501,-3.420197,636.4,3,5,291.4,1.406
58.48,1,-0.032,-0.018,-0.014,-0.031,0.007,-0.008,-1.504,-0.05,0.294,57.53,104.2,40.525501,-3.420197,636.4,3,5,291.4,1.406
58.58,1,-0.005,-0.002,-0.007,-0.023,-0.007,-0.011,-1.503,-0.05,0.288,57.53,104.2,40.525501,-3.420197,636.4,3,5,291.4,1.406
58.68,1,0.03,0.003,-0.005,0.002,0.001,-0.004,-1.503,-0.049,0.282,57.53,104.2,40.525501,-3.420197,636.4,3,5,291.4,1.406
58.78,1,0.026,-0.009,-0.007,0.021,-0.003,-0.007,-1.503,-0.05,0.277,57.53,104.2,40.525501,-3.420197,636.4,3,5,291.4,1.406
58.88,1,-0.039,-0.016,-0.03,-0.001,-0.008,-0.017,-1.502,-0.05,0.272,58.49,104.6,40.525604,-3.420501,635.5,3,5,293.9,5.977
58.99,1,-0.063,-0.002,0.001,-0.042,-0.012,-0.016,-1.502,-0.051,0.267,58.49,104.6,40.525604,-3.420501,635.5,3,5,293.9,5.977
59.08,1,-0.029,-0.031,-0.004,-0.036,-0.014,-0.001,-1.504,-0.051,0.263,58.49,104.6,40.525604,-3.420501,635.5,3,5,293.9,5.977
59.19,1,0.055,-0.032,0.009,0.006,-0.035,0.001,-1.502,-0.051,0.258,58.49,104.6,40.525604,-3.420501,635.5,3,5,293.9,5.977
59.29,1,0.048,0.002,-0.024,0.038,-0.014,-0.009,-1.498,-0.057,0.253,58.49,104.6,40.525604,-3.420501,635.5,3,5,293.9,5.977
59.38,1,-0.052,-0.041,-0.028,0.004,-0.018,-0.023,-1.5,-0.058,0.249,58.49,104.6,40.525604,-3.420501,635.5,3,5,293.9,5.977
59.48,1,-0.125,-0.07,0.007,-0.07,-0.037,-0.01,-1.505,-0.059,0.244,58.49,104.6,40.525604,-3.420501,635.5,3,5,293.9,5.977
59.58,1,-0.143,-0.049,-0.038,-0.113,-0.055,-0.018,-1.508,-0.059,0.24,58.49,104.6,40.525604,-3.420501,635.5,3,5,293.9,5.977
59.68,1,-0.134,0.034,-0.004,-0.121,-0.017,-0.012,-1.512,-0.06,0.234,58.49,104.6,40.525604,-3.420501,635.5,3,5,293.9,5.977
59.78,1,0.018,0.009,0.014,-0.074,0.002,-0.005,-1.516,-0.056,0.229,58.49,104.6,40.525604,-3.420501,635.5,3,5,293.9,5.977
59.88,1,0.094,-0.031,0.029,0.015,-0.01,0.017,-1.518,-0.051,0.224,59.48,102.8,40.525715,-3.420805,634.7,3,5,295.7,5.977
59.98,1,0.091,-0.02,0.006,0.068,-0.02,0.016,-1.515,-0.05,0.219,59.48,102.8,40.525715,-3.420805,634.7,3,5,295.7,5.977
60.08,1,0.016,-0.022,0.02,0.053,-0.015,0.014,-1.514,-0.052,0.213,59.48,102.8,40.525715,-3.420805,634.7,3,5,295.7,5.977
60.18,1,-0.062,-0.025,0.026,-0.005,-0.025,0.019,-1.518,-0.056,0.208,59.48,102.8,40.525715,-3.420805,634.7,3,5,295.7,5.977
60.28,1,-0.102,0.035,0.026,-0.065,-0.004,0.025,-1.523,-0.06,0.202,59.48,102.8,40.525715,-3.420805,634.7,3,5,295.7,5.977
60.39,1,-0.049,0.026,0.029,-0.063,0.021,0.023,-1.529,-0.063,0.197,59.48,102.8,40.525715,-3.420805,634.7,3,5,295.7,5.977
60.49,1,-0.016,0.004,0.053,-0.044,0.016,0.039,-1.536,-0.065,0.192,59.48,102.8,40.525715,-3.420805,634.7,3,5,295.7,5.977
60.58,1,0.065,-0.018,0.041,0.011,-0.002,0.044,-1.54,-0.063,0.186,59.48,102.8,40.525715,-3.420805,634.7,3,5,295.7,5.977
60.69,1,-0.0,-0.021,0.018,0.02,-0.016,0.033,-1.543,-0.061,0.181,59.48,102.8,40.525715,-3.420805,634.7,3,5,295.7,5.977
60.78,1,-0.028,-0.023,0.054,-0.002,-0.013,0.036,-1.547,-0.063,0.175,59.48,102.8,40.525715,-3.420805,634.7,3,5,295.7,5.977
60.89,1,0.006,0.01,0.046,-0.007,-0.011,0.044,-1.552,-0.066,0.17,60.49,101.1,40.525829,-3.421104,634.1,3,5,298.5,4.57
61.0,1,-0.015,-0.001,0.024,-0.003,-0.005,0.04,-1.554,-0.069,0.164,60.49,101.1,40.525829,-3.421104,634.1,3,5,298.5,4.57
61.09,1,-0.069,-0.01,0.024,-0.032,-0.001,0.025,-1.556,-0.071,0.159,60.49,101.1,40.525829,-3.421104,634.1,3,5,298.5,4.57
61.19,1,-0.072,-0.007,0.043,-0.061,-0.009,0.035,-1.561,-0.072,0.153,60.49,101.1,40.525829,-3.421104,634.1,3,5,298.5,4.57
61.29,1,0.008,0.026,0.025,-0.035,0.011,0.033,-1.565,-0.078,0.146,60.49,101.1,40.525829,-3.421104,634.1,3,5,298.5,4.57
61.39,1,-0.004,0.058,0.015,-0.009,0.033,0.025,-1.566,-0.084,0.138,60.49,101.1,40.525829,-3.421104,634.1,3,5,298.5,4.57
61.49,1,-0.041,0.048,0.019,-0.021,0.041,0.021,-1.568,-0.091,0.13,60.49,101.1,40.525829,-3.421104,634.1,3,5,298.5,4.57
61.59,1,-0.048,0.077,0.044,-0.041,0.06,0.029,-1.571,-0.098,0.121,60.49,101.1,40.525829,-3.421104,634.1,3,5,298.5,4.57
61.7,1,-0.03,0.072,0.017,-0.038,0.076,0.028,-1.572,-0.103,0.113,60.49,101.1,40.525829,-3.421104,634.1,3,5,298.5,4.57
61.79,1,-0.0,0.038,0.029,-0.019,0.047,0.029,-1.573,-0.102,0.104,60.49,101.1,40.525829,-3.421104,634.1,3,5,298.5,4.57
61.89,1,-0.012,0.034,0.018,-0.009,0.041,0.018,-1.575,-0.102,0.096,61.57,104.2,40.525967,-3.421402,633.7,3,5,300.9,5.273
61.99,1,-0.013,0.067,0.018,-0.022,0.053,0.019,-1.577,-0.108,0.088,61.57,104.2,40.525967,-3.421402,633.7,3,5,300.9,5.273
62.09,1,-0.031,0.054,0.008,-0.015,0.054,0.02,-1.577,-0.115,0.079,61.57,104.2,40.525967,-3.421402,633.7,3,5,300.9,5.273
62.19,1,-0.025,0.048,0.018,-0.022,0.051,0.013,-1.579,-0.118,0.071,61.57,104.2,40.525967,-3.421402,633.7,3,5,300.9,5.273
62.3,1,-0.009,0.017,0.035,-0.023,0.037,0.022,-1.583,-0.12,0.063,61.57,104.2,40.525967,-3.421402,633.7,3,5,300.9,5.273
62.4,1,-0.014,0.007,0.003,-0.017,0.019,0.019,-1.586,-0.122,0.055,61.57,104.2,40.525967,-3.421402,633.7,3,5,300.9,5.273
62.49,1,-0.03,0.002,0.002,-0.016,0.01,0.007,-1.588,-0.123,0.048,61.57,104.2,40.525967,-3.421402,633.7,3,5,300.9,5.273
62.59,1,-0.061,0.022,-0.005,-0.039,0.014,0.003,-1.59,-0.126,0.04,61.57,104.2,40.525967,-3.421402,633.7,3,5,300.9,5.273
62.69,1,-0.049,0.043,-0.006,-0.048,0.03,-0.005,-1.591,-0.132,0.032,61.57,104.2,40.525967,-3.421402,633.7,3,5,300.9,5.273
62.79,1,-0.038,0.04,-0.007,-0.04,0.033,-0.002,-1.593,-0.135,0.024,61.57,104.2,40.525967,-3.421402,633.7,3,5,300.9,5.273
62.89,1,-0.002,-0.002,0.005,-0.029,0.025,-0.003,-1.594,-0.132,0.017,62.52,106.6,40.526115,-3.421691,633.5,3,5,305.2,6.68
62.99,1,0.001,-0.026,-0.006,-0.011,-0.003,-0.002,-1.593,-0.131,0.01,62.52,106.6,40.526115,-3.421691,633.5,3,5,305.2,6.68
63.09,1,0.004,-0.022,-0.012,-0.001,-0.016,-0.007,-1.593,-0.133,0.003,62.52,106.6,40.526115,-3.421691,633.5,3,5,305.2,6.68
63.19,1,-0.052,0.007,-0.028,-0.017,-0.009,-0.016,-1.594,-0.134,-0.004,62.52,106.6,40.526115,-3.421691,633.5,3,5,305.2,6.68
63.29,1,-0.029,-0.001,0.003,-0.033,-0.005,-0.01,-1.596,-0.135,-0.011,62.52,106.6,40.526115,-3.421691,633.5,3,5,305.2,6.68
63.39,1,0.004,0.002,-0.006,-0.015,0.002,-0.004,-1.597,-0.134,-0.018,62.52,106.6,40.526115,-3.421691,633.5,3,5,305.2,6.68
63.5,1,-0.034,-0.017,-0.005,-0.018,-0.004,-0.009,-1.597,-0.131,-0.024,62.52,106.6,40.526115,-3.421691,633.5,3,5,305.2,6.68
63.59,1,-0.05,-0.035,-0.012,-0.037,-0.018,-0.008,-1.596,-0.126,-0.029,62.52,106.6,40.526115,-3.421691,633.5,3,5,305.2,6.68
63.69,1,-0.085,-0.077,0.002,-0.056,-0.044,-0.003,-1.597,-0.118,-0.033,62.52,106.6,40.526115,-3.421691,633.5,3,5,305.2,6.68
63.79,1,-0.007,-0.077,-0.004,-0.046,-0.065,-0.004,-1.598,-0.113,-0.039,62.52,106.6,40.526115,-3.421691,633.5,3,5,305.2,6.68
63.89,1,0.003,-0.051,-0.02,-0.019,-0.068,-0.008,-1.598,-0.111,-0.044,63.49,108.8,40.526283,-3.421978,633.0,3,5,308.7,6.68
64.0,1,-0.031,-0.017,-0.029,-0.017,-0.041,-0.022,-1.596,-0.111,-0.05,63.49,108.8,40.526283,-3.421978,633.0,3,5,308.7,6.68
64.09,1,-0.057,0.015,-0.034,-0.035,-0.013,-0.029,-1.595,-0.111,-0.056,63.49,108.8,40.526283,-3.421978,633.0,3,5,308.7,6.68
64.19,1,-0.041,-0.003,-0.034,-0.043,-0.003,-0.03,-1.592,-0.11,-0.06,63.49,108.8,40.526283,-3.421978,633.0,3,5,308.7,6.68
64.29,1,-0.06,-0.025,-0.046,-0.047,-0.012,-0.039,-1.589,-0.106,-0.065,63.49,108.8,40.526283,-3.421978,633.0,3,5,308.7,6.68
64.4,1,-0.045,-0.022,-0.041,-0.053,-0.02,-0.041,-1.588,-0.101,-0.07,63.49,108.8,40.526283,-3.421978,633.0,3,5,308.7,6.68
64.49,1,-0.018,-0.029,-0.027,-0.039,-0.02,-0.035,-1.586,-0.1,-0.075,63.49,108.8,40.526283,-3.421978,633.0,3,5,308.7,6.68
64.6,1,0.009,-0.021,-0.064,-0.012,-0.028,-0.046,-1.581,-0.097,-0.08,63.49,108.8,40.526283,-3.421978,633.0,3,5,308.7,6.68
64.7,1,-0.065,0.009,-0.059,-0.025,-0.011,-0.055,-1.578,-0.095,-0.085,63.49,108.8,40.526283,-3.421978,633.0,3,5,308.7,6.68
64.81,1,-0.061,0.0,-0.031,-0.052,0.001,-0.047,-1.578,-0.094,-0.09,63.49,108.8,40.526283,-3.421978,633.0,3,5,308.7,6.68
64.9,1,-0.034,-0.003,-0.061,-0.052,-0.002,-0.045,-1.576,-0.093,-0.095,64.51,110.8,40.526463,-3.422255,632.3,3,5,311.5,6.328
65.0,1,-0.013,0.001,-0.055,-0.026,-0.002,-0.055,-1.57,-0.09,-0.1,64.51,110.8,40.526463,-3.422255,632.3,3,5,311.5,6.328
65.1,1,-0.01,-0.001,-0.054,-0.024,-0.001,-0.056,-1.566,-0.091,-0.105,64.51,110.8,40.526463,-3.422255,632.3,3,5,311.5,6.328
65.2,1,0.024,0.014,-0.054,0.003,0.003,-0.055,-1.562,-0.093,-0.111,64.51,110.8,40.526463,-3.422255,632.3,3,5,311.5,6.328
65.3,1,-0.04,0.01,-0.064,-0.005,0.009,-0.056,-1.557,-0.096,-0.116,64.51,110.8,40.526463,-3.422255,632.3,3,5,311.5,6.328
65.4,1,-0.032,0.012,-0.044,-0.029,0.013,-0.055,-1.554,-0.098,-0.122,64.51,110.8,40.526463,-3.422255,632.3,3,5,311.5,6.328
65.5,1,-0.0,0.019,-0.045,-0.022,0.014,-0.047,-1.552,-0.1,-0.128,64.51,110.8,40.526463,-3.422255,632.3,3,5,311.5,6.328
65.6,1,-0.017,-0.01,-0.055,-0.007,0.004,-0.05,-1.55,-0.098,-0.133,64.51,110.8,40.526463,-3.422255,632.3,3,5,311.5,6.328
65.7,1,-0.037,-0.026,-0.036,-0.025,-0.008,-0.048,-1.548,-0.097,-0.138,64.51,110.8,40.526463,-3.422255,632.3,3,5,311.5,6.328
65.8,1,-0.046,-0.014,-0.032,-0.036,-0.015,-0.037,-1.547,-0.097,-0.142,64.51,110.8,40.526463,-3.422255,632.3,3,5,311.5,6.328
65.9,1,-0.006,-0.024,-0.046,-0.03,-0.02,-0.04,-1.546,-0.093,-0.147,65.52,110.7,40.526653,-3.422515,631.6,3,5,314.6,5.977
66.01,1,0.02,0.009,-0.044,-0.002,-0.008,-0.043,-1.543,-0.096,-0.152,65.52,110.7,40.526653,-3.422515,631.6,3,5,314.6,5.977
66.1,1,-0.017,0.012,-0.047,0.007,0.002,-0.042,-1.54,-0.096,-0.157,65.52,110.7,40.526653,-3.422515,631.6,3,5,314.6,5.977
66.2,1,-0.057,-0.016,-0.048,-0.032,-0.0,-0.048,-1.538,-0.095,-0.161,65.52,110.7,40.526653,-3.422515,631.6,3,5,314.6,5.977
66.3,1,-0.007,-0.014,-0.031,-0.029,-0.01,-0.04,-1.537,-0.095,-0.166,65.52,110.7,40.526653,-3.422515,631.6,3,5,314.6,5.977
66.4,1,-0.015,-0.011,-0.044,-0.012,-0.016,-0.037,-1.534,-0.094,-0.172,65.52,110.7,40.526653,-3.422515,631.6,3,5,314.6,5.977
66.5,1,-0.027,0.013,-0.046,-0.025,-0.001,-0.047,-1.53,-0.097,-0.177,65.52,110.7,40.526653,-3.422515,631.6,3,5,314.6,5.977
66.61,1,-0.009,0.021,-0.031,-0.018,0.014,-0.04,-1.528,-0.098,-0.182,65.52,110.7,40.526653,-3.422515,631.6,3,5,314.6,5.977
66.71,1,-0.025,-0.017,-0.032,-0.021,0.002,-0.034,-1.526,-0.099,-0.187,65.52,110.7,40.526653,-3.422515,631.6,3,5,314.6,5.977
66.8,1,0.013,-0.023,-0.025,-0.007,-0.012,-0.028,-1.524,-0.097,-0.192,65.52,110.7,40.526653,-3.422515,631.6,3,5,314.6,5.977
66.9,1,-0.003,-0.002,-0.027,0.004,-0.012,-0.028,-1.522,-0.097,-0.197,66.52,110.4,40.526855,-3.422764,631.0,3,5,317.5,5.977
67.0,1,-0.042,-0.007,-0.033,-0.016,-0.007,-0.03,-1.521,-0.098,-0.202,66.52,110.4,40.526855,-3.422764,631.0,3,5,317.5,5.977
67.1,1,-0.021,-0.016,-0.033,-0.025,-0.011,-0.031,-1.52,-0.099,-0.207,66.52,110.4,40.526855,-3.422764,631.0,3,5,317.5,5.977
67.21,1,-0.063,0.047,-0.038,-0.041,0.012,-0.033,-1.52,-0.1,-0.213,66.52,110.4,40.526855,-3.422764,631.0,3,5,317.5,5.977
67.3,1,-0.06,0.031,-0.039,-0.058,0.028,-0.039,-1.521,-0.099,-0.218,66.52,110.4,40.526855,-3.422764,631.0,3,5,317.5,5.977
67.4,1,0.023,-0.013,-0.022,-0.022,0.012,-0.03,-1.521,-0.096,-0.223,66.52,110.4,40.526855,-3.422764,631.0,3,5,317.5,5.977
67.5,1,0.015,-0.014,-0.038,0.007,-0.007,-0.032,-1.518,-0.095,-0.229,66.52,110.4,40.526855,-3.422764,631.0,3,5,317.5,5.977
67.61,1,-0.05,0.004,-0.034,-0.021,-0.005,-0.037,-1.517,-0.099,-0.235,66.52,110.4,40.526855,-3.422764,631.0,3,5,317.5,5.977
67.7,1,-0.019,0.022,-0.017,-0.026,0.011,-0.025,-1.516,-0.102,-0.241,66.52,110.4,40.526855,-3.422764,631.0,3,5,317.5,5.977
67.81,1,-0.032,0.029,-0.028,-0.025,0.02,-0.025,-1.515,-0.107,-0.248,66.52,110.4,40.526855,-3.422764,631.0,3,5,317.5,5.977
67.91,1,-0.037,0.03,-0.041,-0.032,0.026,-0.032,-1.514,-0.111,-0.254,67.54,109.0,40.527065,-3.422992,630.4,3,5,320.3,5.625
68.0,1,-0.062,0.016,-0.019,-0.046,0.026,-0.031,-1.514,-0.115,-0.26,67.54,109.0,40.527065,-3.422992,630.4,3,5,320.3,5.625
68.1,1,-0.04,0.004,-0.023,-0.047,0.014,-0.021,-1.515,-0.116,-0.266,67.54,109.0,40.527065,-3.422992,630.4,3,5,320.3,5.625
68.2,1,-0.005,0.008,-0.025,-0.029,0.007,-0.028,-1.514,-0.119,-0.272,67.54,109.0,40.527065,-3.422992,630.4,3,5,320.3,5.625
68.31,1,-0.019,-0.004,-0.017,-0.017,0.006,-0.02,-1.513,-0.119,-0.278,67.54,109.0,40.527065,-3.422992,630.4,3,5,320.3,5.625
68.42,1,0.005,-0.01,-0.009,-0.011,-0.005,-0.013,-1.513,-0.119,-0.284,67.54,109.0,40.527065,-3.422992,630.4,3,5,320.3,5.625
68.51,1,0.022,-0.028,-0.021,0.01,-0.016,-0.017,-1.511,-0.121,-0.289,67.54,109.0,40.527065,-3.422992,630.4,3,5,320.3,5.625
68.61,1,-0.037,-0.009,-0.032,-0.006,-0.015,-0.026,-1.509,-0.121,-0.294,67.54,109.0,40.527065,-3.422992,630.4,3,5,320.3,5.625
68.71,1,-0.057,-0.013,-0.032,-0.035,-0.008,-0.031,-1.51,-0.117,-0.299,67.54,109.0,40.527065,-3.422992,630.4,3,5,320.3,5.625
68.81,1,-0.058,-0.04,-0.003,-0.051,-0.027,-0.017,-1.511,-0.113,-0.304,67.54,109.0,40.527065,-3.422992,630.4,3,5,320.3,5.625
68.92,1,-0.014,-0.036,-0.019,-0.041,-0.035,-0.014,-1.512,-0.11,-0.308,68.49,108.0,40.527279,-3.423218,629.5,3,5,323.4,5.977
69.01,1,-0.027,-0.025,-0.022,-0.025,-0.03,-0.019,-1.512,-0.104,-0.313,68.49,108.0,40.527279,-3.423218,629.5,3,5,323.4,5.977
69.12,1,-0.002,-0.006,-0.025,-0.016,-0.025,-0.021,-1.511,-0.105,-0.317,68.49,108.0,40.527279,-3.423218,629.5,3,5,323.4,5.977
69.21,1,-0.024,-0.021,-0.012,-0.012,-0.012,-0.02,-1.51,-0.106,-0.322,68.49,108.0,40.527279,-3.423218,629.5,3,5,323.4,5.977
69.31,1,-0.044,-0.026,-0.064,-0.032,-0.019,-0.035,-1.51,-0.104,-0.328,68.49,108.0,40.527279,-3.423218,629.5,3,5,323.4,5.977
69.41,1,-0.077,-0.01,-0.002,-0.056,-0.016,-0.033,-1.514,-0.108,-0.333,68.49,108.0,40.527279,-3.423218,629.5,3,5,323.4,5.977
69.52,1,-0.062,-0.022,-0.017,-0.066,-0.016,-0.013,-1.516,-0.109,-0.338,68.49,108.0,40.527279,-3.423218,629.5,3,5,323.4,5.977
69.62,1,-0.011,-0.015,-0.014,-0.043,-0.022,-0.019,-1.514,-0.108,-0.343,68.49,108.0,40.527279,-3.423218,629.5,3,5,323.4,5.977
69.71,1,0.028,-0.02,-0.03,-0.007,-0.017,-0.021,-1.513,-0.109,-0.348,68.49,108.0,40.527279,-3.423218,629.5,3,5,323.4,5.977
69.81,1,0.018,-0.024,-0.017,0.017,-0.023,-0.02,-1.511,-0.109,-0.353,68.49,108.0,40.527279,-3.423218,629.5,3,5,323.4,5.977
69.91,1,-0.029,-0.014,-0.027,-0.003,-0.02,-0.025,-1.51,-0.11,-0.358,69.52,106.7,40.527496,-3.423432,628.9,3,5,326.6,6.328
70.01,1,-0.057,-0.036,-0.032,-0.032,-0.023,-0.028,-1.509,-0.106,-0.362,69.52,106.7,40.527496,-3.423432,628.9,3,5,326.6,6.328
70.11,1,-0.046,-0.055,-0.01,-0.041,-0.041,-0.02,-1.51,-0.1,-0.365,69.52,106.7,40.527496,-3.423432,628.9,3,5,326.6,6.328
70.21,1,-0.033,-0.045,-0.02,-0.043,-0.045,-0.021,-1.509,-0.096,-0.368,69.52,106.7,40.527496,-3.423432,628.9,3,5,326.6,6.328
70.32,1,-0.02,-0.077,-0.019,-0.029,-0.057,-0.016,-1.509,-0.089,-0.371,69.52,106.7,40.527496,-3.423432,628.9,3,5,326.6,6.328
70.41,1,-0.007,-0.076,-0.018,-0.021,-0.073,-0.019,-1.508,-0.083,-0.374,69.52,106.7,40.527496,-3.423432,628.9,3,5,326.6,6.328
70.51,1,-0.028,-0.051,-0.012,-0.016,-0.064,-0.015,-1.507,-0.08,-0.377,69.52,106.7,40.527496,-3.423432,628.9,3,5,326.6,6.328
70.61,1,-0.031,-0.057,-0.005,-0.031,-0.058,-0.012,-1.508,-0.077,-0.38,69.52,106.7,40.527496,-3.423432,628.9,3,5,326.6,6.328
70.72,1,-0.002,-0.028,-0.006,-0.018,-0.045,-0.006,-1.509,-0.073,-0.383,69.52,106.7,40.527496,-3.423432,628.9,3,5,326.6,6.328
70.82,1,-0.005,-0.033,-0.02,-0.006,-0.037,-0.013,-1.506,-0.072,-0.385,69.52,106.7,40.527496,-3.423432,628.9,3,5,326.6,6.328
70.92,1,-0.008,-0.029,-0.025,-0.006,-0.033,-0.02,-1.504,-0.07,-0.388,70.49,105.6,40.527721,-3.423604,628.1,3,5,329.1,6.328
71.03,1,-0.055,-0.023,0.001,-0.025,-0.028,-0.012,-1.505,-0.067,-0.391,70.49,105.6,40.527721,-3.423604,628.1,3,5,329.1,6.328
71.11,1,-0.005,-0.03,0.041,-0.033,-0.03,0.006,-1.507,-0.067,-0.394,70.49,105.6,40.527721,-3.423604,628.1,3,5,329.1,6.328
71.21,1,0.025,-0.028,0.027,0.005,-0.031,0.03,-1.507,-0.067,-0.397,70.49,105.6,40.527721,-3.423604,628.1,3,5,329.1,6.328
71.31,1,-0.001,-0.002,0.031,0.014,-0.018,0.028,-1.51,-0.068,-0.401,70.49,105.6,40.527721,-3.423604,628.1,3,5,329.1,6.328
71.42,1,-0.04,0.004,0.047,-0.023,-0.001,0.035,-1.514,-0.071,-0.405,70.49,105.6,40.527721,-3.423604,628.1,3,5,329.1,6.328
71.52,1,-0.044,0.006,0.051,-0.03,0.004,0.046,-1.52,-0.073,-0.41,70.49,105.6,40.527721,-3.423604,628.1,3,5,329.1,6.328
71.61,1,-0.029,-0.016,0.041,-0.032,-0.008,0.045,-1.525,-0.074,-0.414,70.49,105.6,40.527721,-3.423604,628.1,3,5,329.1,6.328
71.71,1,-0.012,-0.028,0.048,-0.027,-0.017,0.044,-1.53,-0.073,-0.417,70.49,105.6,40.527721,-3.423604,628.1,3,5,329.1,6.328
71.82,1,-0.027,-0.045,0.045,-0.02,-0.034,0.048,-1.535,-0.073,-0.419,70.49,105.6,40.527721,-3.423604,628.1,3,5,329.1,6.328
71.91,1,-0.003,-0.053,0.045,-0.019,-0.037,0.046,-1.541,-0.071,-0.421,71.49,105.6,40.527721,-3.423604,628.1,3,5,329.1,5.625
72.02,1,-0.006,-0.05,0.034,-0.004,-0.047,0.043,-1.547,-0.072,-0.423,71.49,105.6,40.527721,-3.423604,628.1,3,5,329.1,5.625
72.12,1,-0.035,-0.038,0.051,-0.02,-0.048,0.042,-1.55,-0.069,-0.425,71.49,105.6,40.527721,-3.423604,628.1,3,5,329.1,5.625
72.22,1,-0.032,-0.056,0.047,-0.031,-0.05,0.045,-1.554,-0.064,-0.427,71.49,105.6,40.527721,-3.423604,628.1,3,5,329.1,5.625
72.32,1,-0.025,-0.051,0.036,-0.029,-0.048,0.042,-1.558,-0.063,-0.43,71.49,105.6,40.527721,-3.423604,628.1,3,5,329.1,5.625
72.42,1,-0.01,-0.023,0.051,-0.022,-0.041,0.042,-1.561,-0.067,-0.432,71.49,105.6,40.527721,-3.423604,628.1,3,5,329.1,5.625
72.52,1,0.004,-0.022,0.043,-0.008,-0.027,0.048,-1.565,-0.067,-0.435,71.49,105.6,40.527721,-3.423604,628.1,3,5,329.1,5.625
72.62,1,-0.032,-0.048,0.023,-0.009,-0.036,0.036,-1.566,-0.067,-0.437,71.49,105.6,40.527721,-3.423604,628.1,3,5,329.1,5.625
72.72,1,-0.015,-0.025,0.054,-0.025,-0.035,0.039,-1.57,-0.065,-0.439,71.49,105.6,40.527721,-3.423604,628.1,3,5,329.1,5.625
72.82,1,-0.019,-0.004,0.026,-0.014,-0.018,0.039,-1.574,-0.066,-0.442,71.49,105.6,40.527721,-3.423604,628.1,3,5,329.1,5.625
72.92,1,-0.031,-0.018,0.017,-0.025,-0.011,0.024,-1.575,-0.066,-0.444,72.49,106.6,40.528183,-3.423941,627.5,3,5,332.2,3.164
73.02,1,0.021,-0.046,0.03,-0.008,-0.032,0.025,-1.576,-0.063,-0.446,72.49,106.6,40.528183,-3.423941,627.5,3,5,332.2,3.164
73.12,1,0.01,-0.033,0.019,0.01,-0.032,0.028,-1.577,-0.062,-0.448,72.49,106.6,40.528183,-3.423941,627.5,3,5,332.2,3.164
73.23,1,-0.017,-0.018,0.014,0.001,-0.028,0.018,-1.578,-0.063,-0.449,72.49,106.6,40.528183,-3.423941,627.5,3,5,332.2,3.164
73.32,1,0.001,-0.003,0.017,-0.009,-0.015,0.02,-1.579,-0.064,-0.451,72.49,106.6,40.528183,-3.423941,627.5,3,5,332.2,3.164
73.43,1,-0.016,-0.031,0.004,-0.005,-0.022,0.011,-1.581,-0.061,-0.452,72.49,106.6,40.528183,-3.423941,627.5,3,5,332.2,3.164
73.52,1,-0.016,-0.025,0.009,-0.016,-0.026,0.008,-1.581,-0.062,-0.454,72.49,106.6,40.528183,-3.423941,627.5,3,5,332.2,3.164
73.62,1,0.019,-0.025,0.013,-0.003,-0.024,0.012,-1.582,-0.062,-0.455,72.49,106.6,40.528183,-3.423941,627.5,3,5,332.2,3.164
73.72,1,-0.005,-0.043,0.02,0.003,-0.03,0.013,-1.582,-0.062,-0.456,72.49,106.6,40.528183,-3.423941,627.5,3,5,332.2,3.164
73.82,1,0.009,-0.052,0.033,0.006,-0.04,0.024,-1.584,-0.058,-0.457,72.49,106.6,40.528183,-3.423941,627.5,3,5,332.2,3.164
73.92,1,0.009,-0.051,0.028,0.01,-0.049,0.027,-1.586,-0.054,-0.457,73.53,108.8,40.528431,-3.42411,627.5,3,5,333.3,2.461
74.03,1,-0.02,-0.048,-0.002,-0.002,-0.048,0.015,-1.586,-0.053,-0.458,73.53,108.8,40.528431,-3.42411,627.5,3,5,333.3,2.461
74.13,1,-0.063,-0.048,0.032,-0.036,-0.048,0.019,-1.588,-0.053,-0.458,73.53,108.8,40.528431,-3.42411,627.5,3,5,333.3,2.461
74.22,1,-0.018,-0.045,0.027,-0.034,-0.049,0.029,-1.591,-0.051,-0.458,73.53,108.8,40.528431,-3.42411,627.5,3,5,333.3,2.461
74.33,1,-0.042,-0.069,0.024,-0.035,-0.055,0.022,-1.592,-0.047,-0.458,73.53,108.8,40.528431,-3.42411,627.5,3,5,333.3,2.461
74.43,1,-0.005,-0.057,0.021,-0.025,-0.058,0.022,-1.596,-0.044,-0.457,73.53,108.8,40.528431,-3.42411,627.5,3,5,333.3,2.461
74.52,1,-0.014,-0.054,0.017,-0.016,-0.057,0.021,-1.598,-0.041,-0.457,73.53,108.8,40.528431,-3.42411,627.5,3,5,333.3,2.461
74.63,1,-0.03,-0.064,0.015,-0.021,-0.057,0.019,-1.601,-0.038,-0.456,73.53,108.8,40.528431,-3.42411,627.5,3,5,333.3,2.461
74.72,1,-0.001,-0.042,0.02,-0.014,-0.054,0.018,-1.603,-0.034,-0.455,73.53,108.8,40.528431,-3.42411,627.5,3,5,333.3,2.461
74.82,1,0.039,-0.044,0.019,0.007,-0.047,0.02,-1.603,-0.03,-0.455,73.53,108.8,40.528431,-3.42411,627.5,3,5,333.3,2.461
74.92,1,0.007,-0.025,-0.004,0.018,-0.038,0.009,-1.602,-0.029,-0.454,74.5,111.7,40.528679,-3.424269,627.2,3,5,334.0,1.758
75.02,1,-0.026,-0.041,-0.016,-0.005,-0.036,-0.003,-1.602,-0.028,-0.453,74.5,111.7,40.528679,-3.424269,627.2,3,5,334.0,1.758
75.13,1,0.025,-0.037,-0.019,0.006,-0.041,-0.009,-1.599,-0.025,-0.452,74.5,111.7,40.528679,-3.424269,627.2,3,5,334.0,1.758
75.23,1,-0.009,-0.031,-0.048,0.002,-0.033,-0.03,-1.594,-0.027,-0.451,74.5,111.7,40.528679,-3.424269,627.2,3,5,334.0,1.758
75.32,1,-0.047,-0.036,-0.078,-0.017,-0.032,-0.051,-1.591,-0.023,-0.449,74.5,111.7,40.528679,-3.424269,627.2,3,5,334.0,1.758
75.42,1,-0.05,-0.074,-0.08,-0.038,-0.051,-0.068,-1.591,-0.023,-0.447,74.5,111.7,40.528679,-3.424269,627.2,3,5,334.0,1.758
75.52,1,-0.089,-0.06,-0.095,-0.067,-0.058,-0.086,-1.59,-0.021,-0.445,74.5,111.7,40.528679,-3.424269,627.2,3,5,334.0,1.758
75.63,1,-0.027,-0.052,-0.087,-0.052,-0.058,-0.087,-1.585,-0.018,-0.443,74.5,111.7,40.528679,-3.424269,627.2,3,5,334.0,1.758
75.73,1,-0.003,-0.019,-0.068,-0.025,-0.041,-0.078,-1.576,-0.016,-0.443,74.5,111.7,40.528679,-3.424269,627.2,3,5,334.0,1.758
75.84,1,0.017,-0.012,-0.067,-0.003,-0.026,-0.072,-1.57,-0.019,-0.442,74.5,111.7,40.528679,-3.424269,627.2,3,5,334.0,1.758
75.93,1,0.027,-0.011,-0.055,0.011,-0.015,-0.066,-1.564,-0.019,-0.441,75.5,115.2,40.528934,-3.424434,627.2,3,5,333.3,1.758
76.03,1,0.01,-0.008,-0.074,0.014,-0.012,-0.064,-1.557,-0.017,-0.44,75.5,115.2,40.528934,-3.424434,627.2,3,5,333.3,1.758
76.13,1,0.018,-0.021,-0.06,0.009,-0.009,-0.066,-1.55,-0.017,-0.438,75.5,115.2,40.528934,-3.424434,627.2,3,5,333.3,1.758
76.23,1,0.001,-0.052,-0.075,0.012,-0.033,-0.066,-1.543,-0.013,-0.435,75.5,115.2,40.528934,-3.424434,627.2,3,5,333.3,1.758
76.33,1,-0.008,-0.073,-0.062,0.005,-0.056,-0.07,-1.536,-0.01,-0.432,75.5,115.2,40.528934,-3.424434,627.2,3,5,333.3,1.758
76.43,1,-0.025,-0.056,-0.039,-0.011,-0.058,-0.052,-1.533,-0.004,-0.429,75.5,115.2,40.528934,-3.424434,627.2,3,5,333.3,1.758
76.54,1,0.011,-0.052,-0.04,-0.005,-0.056,-0.045,-1.53,-0.003,-0.427,75.5,115.2,40.528934,-3.424434,627.2,3,5,333.3,1.758
76.63,1,-0.02,-0.049,-0.052,-0.006,-0.052,-0.047,-1.525,-0.002,-0.424,75.5,115.2,40.528934,-3.424434,627.2,3,5,333.3,1.758
76.73,1,-0.101,-0.094,-0.076,-0.042,-0.064,-0.056,-1.522,-0.002,-0.421,75.5,115.2,40.528934,-3.424434,627.2,3,5,333.3,1.758
76.83,1,-0.133,-0.017,-0.007,-0.099,-0.057,-0.05,-1.527,-0.008,-0.418,75.5,115.2,40.528934,-3.424434,627.2,3,5,333.3,1.758
76.93,1,0.057,0.008,0.021,-0.057,-0.019,-0.005,-1.528,-0.011,-0.416,76.49,113.5,40.529186,-3.424595,627.5,3,5,332.9,0.703
77.03,1,0.215,-0.029,-0.04,0.088,-0.019,-0.01,-1.523,-0.01,-0.412,76.49,113.5,40.529186,-3.424595,627.5,3,5,332.9,0.703
77.13,1,0.08,-0.076,-0.088,0.124,-0.047,-0.054,-1.518,-0.011,-0.408,76.49,113.5,40.529186,-3.424595,627.5,3,5,332.9,0.703
77.23,1,-0.079,-0.042,-0.049,0.029,-0.048,-0.061,-1.515,-0.012,-0.405,76.49,113.5,40.529186,-3.424595,627.5,3,5,332.9,0.703
77.33,1,-0.072,-0.022,-0.003,-0.042,-0.037,-0.031,-1.515,-0.012,-0.404,76.49,113.5,40.529186,-3.424595,627.5,3,5,332.9,0.703
77.43,1,0.017,-0.012,0.001,-0.031,-0.023,-0.011,-1.514,-0.016,-0.402,76.49,113.5,40.529186,-3.424595,627.5,3,5,332.9,0.703
77.54,1,0.101,-0.003,-0.036,0.04,-0.014,-0.02,-1.509,-0.017,-0.4,76.49,113.5,40.529186,-3.424595,627.5,3,5,332.9,0.703
77.63,1,0.08,0.007,-0.001,0.071,-0.005,-0.017,-1.507,-0.017,-0.398,76.49,113.5,40.529186,-3.424595,627.5,3,5,332.9,0.703
77.73,1,0.071,-0.014,-0.01,0.072,-0.003,-0.01,-1.505,-0.018,-0.396,76.49,113.5,40.529186,-3.424595,627.5,3,5,332.9,0.703
77.83,1,-0.019,0.003,-0.055,0.042,-0.002,-0.024,-1.501,-0.018,-0.394,76.49,113.5,40.529186,-3.424595,627.5,3,5,332.9,0.703
77.93,1,-0.18,-0.019,-0.037,-0.058,-0.01,-0.041,-1.502,-0.017,-0.392,77.51,111.5,40.529434,-3.424763,626.6,3,5,331.5,1.758
78.03,1,-0.343,-0.035,-0.046,-0.215,-0.025,-0.046,-1.509,-0.018,-0.389,77.51,111.5,40.529434,-3.424763,626.6,3,5,331.5,1.758
78.14,1,-0.059,-0.02,0.016,-0.192,-0.018,-0.018,-1.514,-0.018,-0.387,77.51,111.5,40.529434,-3.424763,626.6,3,5,331.5,1.758
78.24,1,0.233,-0.034,0.002,0.02,-0.024,0.002,-1.51,-0.017,-0.385,77.51,111.5,40.529434,-3.424763,626.6,3,5,331.5,1.758
78.33,1,0.187,-0.032,-0.036,0.149,-0.033,-0.012,-1.505,-0.017,-0.382,77.51,111.5,40.529434,-3.424763,626.6,3,5,331.5,1.758
78.44,1,0.077,-0.031,-0.023,0.126,-0.036,-0.025,-1.502,-0.016,-0.379,77.51,111.5,40.529434,-3.424763,626.6,3,5,331.5,1.758
78.53,1,-0.033,-0.044,-0.029,0.057,-0.034,-0.029,-1.498,-0.011,-0.376,77.51,111.5,40.529434,-3.424763,626.6,3,5,331.5,1.758
78.63,1,-0.096,-0.01,-0.01,-0.034,-0.028,-0.02,-1.496,-0.007,-0.374,77.51,111.5,40.529434,-3.424763,626.6,3,5,331.5,1.758
78.73,1,-0.043,-0.036,0.011,-0.057,-0.028,-0.004,-1.496,-0.002,-0.37,77.51,111.5,40.529434,-3.424763,626.6,3,5,331.5,1.758
78.83,1,0.007,-0.048,-0.003,-0.027,-0.038,-0.001,-1.495,0.003,-0.368,77.51,111.5,40.529434,-3.424763,626.6,3,5,331.5,1.758
78.94,1,-0.004,-0.01,0.017,-0.007,-0.026,0.004,-1.496,0.004,-0.365,78.49,110.6,40.529678,-3.424937,625.8,3,5,330.8,2.109
79.03,1,-0.033,0.017,0.053,-0.021,-0.009,0.032,-1.502,0.002,-0.364,78.49,110.6,40.529678,-3.424937,625.8,3,5,330.8,2.109
79.13,1,-0.104,0.023,-0.005,-0.045,0.014,0.02,-1.506,0.001,-0.361,78.49,110.6,40.529678,-3.424937,625.8,3,5,330.8,2.109
79.24,1,-0.106,-0.007,0.014,-0.096,0.01,0.008,-1.509,0.005,-0.358,78.49,110.6,40.529678,-3.424937,625.8,3,5,330.8,2.109
79.33,1,-0.048,-0.047,0.037,-0.078,-0.019,0.021,-1.513,0.01,-0.355,78.49,110.6,40.529678,-3.424937,625.8,3,5,330.8,2.109
79.44,1,0.005,-0.048,0.041,-0.035,-0.036,0.035,-1.518,0.014,-0.352,78.49,110.6,40.529678,-3.424937,625.8,3,5,330.8,2.109
79.54,1,0.078,-0.064,0.064,0.018,-0.051,0.051,-1.521,0.017,-0.349,78.49,110.6,40.529678,-3.424937,625.8,3,5,330.8,2.109
79.65,1,0.066,-0.023,0.044,0.055,-0.048,0.05,-1.523,0.018,-0.345,78.49,110.6,40.529678,-3.424937,625.8,3,5,330.8,2.109
79.75,1,0.014,-0.014,0.039,0.045,-0.025,0.046,-1.524,0.019,-0.341,78.49,110.6,40.529678,-3.424937,625.8,3,5,330.8,2.109
79.84,1,-0.021,-0.029,0.044,0.005,-0.026,0.036,-1.525,0.024,-0.338,78.49,110.6,40.529678,-3.424937,625.8,3,5,330.8,2.109
79.94,1,0.005,-0.029,0.074,-0.0,-0.027,0.059,-1.529,0.028,-0.334,79.49,110.6,40.529919,-3.425114,624.6,3,5,330.8,0.703
80.04,1,0.035,-0.027,0.043,0.015,-0.029,0.057,-1.534,0.031,-0.331,79.49,110.6,40.529919,-3.425114,624.6,3,5,330.8,0.703
80.15,1,-0.002,0.004,0.033,0.018,-0.014,0.043,-1.536,0.029,-0.328,79.49,110.6,40.529919,-3.425114,624.6,3,5,330.8,0.703
80.24,1,-0.085,-0.002,0.034,-0.03,-0.006,0.035,-1.539,0.034,-0.325,79.49,110.6,40.529919,-3.425114,624.6,3,5,330.8,0.703
80.34,1,-0.204,-0.015,0.028,-0.099,-0.014,0.029,-1.545,0.041,-0.321,79.49,110.6,40.529919,-3.425114,624.6,3,5,330.8,0.703
80.44,1,-0.158,-0.03,-0.031,-0.145,-0.012,0.014,-1.549,0.041,-0.318,79.49,110.6,40.529919,-3.425114,624.6,3,5,330.8,0.703
80.54,1,0.011,-0.005,0.053,-0.104,-0.016,0.016,-1.552,0.038,-0.315,79.49,110.6,40.529919,-3.425114,624.6,3,5,330.8,0.703
80.64,1,-0.033,0.02,0.028,-0.052,-0.003,0.03,-1.553,0.036,-0.312,79.49,110.6,40.529919,-3.425114,624.6,3,5,330.8,0.703
80.74,1,-0.003,-0.005,0.026,-0.038,0.01,0.022,-1.554,0.034,-0.308,79.49,110.6,40.529919,-3.425114,624.6,3,5,330.8,0.703
80.85,1,0.089,-0.013,0.024,0.035,-0.01,0.03,-1.554,0.036,-0.304,79.49,110.6,40.529919,-3.425114,624.6,3,5,330.8,0.703
80.94,1,0.027,0.01,-0.037,0.044,-0.002,-0.002,-1.55,0.038,-0.301,80.49,110.7,40.530151,-3.425306,624.4,3,5,328.4,0.703
81.04,1,0.028,-0.013,-0.032,0.029,-0.001,-0.024,-1.548,0.04,-0.297,80.49,110.7,40.530151,-3.425306,624.4,3,5,328.4,0.703
81.14,1,-0.1,-0.04,-0.023,-0.015,-0.022,-0.023,-1.547,0.04,-0.293,80.49,110.7,40.530151,-3.425306,624.4,3,5,328.4,0.703
81.24,1,-0.048,-0.004,-0.021,-0.056,-0.017,-0.022,-1.548,0.038,-0.289,80.49,110.7,40.530151,-3.425306,624.4,3,5,328.4,0.703
81.34,1,-0.079,-0.019,-0.045,-0.053,-0.012,-0.029,-1.547,0.039,-0.286,80.49,110.7,40.530151,-3.425306,624.4,3,5,328.4,0.703
81.44,1,-0.101,-0.009,-0.009,-0.086,-0.018,-0.028,-1.548,0.039,-0.282,80.49,110.7,40.530151,-3.425306,624.4,3,5,328.4,0.703
81.54,1,0.005,-0.012,0.02,-0.061,-0.01,-0.006,-1.55,0.04,-0.278,80.49,110.7,40.530151,-3.425306,624.4,3,5,328.4,0.703
81.64,1,0.145,-0.031,0.005,0.044,-0.018,0.009,-1.547,0.041,-0.274,80.49,110.7,40.530151,-3.425306,624.4,3,5,328.4,0.703
81.74,1,0.076,-0.012,-0.043,0.084,-0.023,-0.014,-1.543,0.041,-0.27,80.49,110.7,40.530151,-3.425306,624.4,3,5,328.4,0.703
81.84,1,0.013,-0.001,-0.007,0.053,-0.01,-0.02,-1.542,0.041,-0.266,80.49,110.7,40.530151,-3.425306,624.4,3,5,328.4,0.703
81.94,1,-0.014,0.011,-0.005,0.016,0.0,-0.009,-1.542,0.039,-0.261,81.49,111.1,40.530376,-3.425514,624.2,3,5,325.9,2.461
82.05,1,-0.016,-0.015,-0.003,-0.001,-0.004,-0.007,-1.542,0.039,-0.257,81.49,111.1,40.530376,-3.425514,624.2,3,5,325.9,2.461
82.14,1,-0.097,-0.012,-0.006,-0.04,-0.008,-0.007,-1.543,0.04,-0.253,81.49,111.1,40.530376,-3.425514,624.2,3,5,325.9,2.461
82.24,1,-0.043,-0.008,0.071,-0.072,-0.011,0.022,-1.546,0.041,-0.249,81.49,111.1,40.530376,-3.425514,624.2,3,5,325.9,2.461
82.34,1,0.066,-0.015,0.032,0.001,-0.012,0.045,-1.551,0.045,-0.244,81.49,111.1,40.530376,-3.425514,624.2,3,5,325.9,2.461
82.44,1,0.055,-0.026,0.006,0.025,-0.012,0.019,-1.551,0.048,-0.24,81.49,111.1,40.530376,-3.425514,624.2,3,5,325.9,2.461
82.55,1,0.065,-0.004,0.022,0.052,-0.015,0.023,-1.551,0.048,-0.235,81.49,111.1,40.530376,-3.425514,624.2,3,5,325.9,2.461
82.65,1,-0.073,-0.006,0.007,0.021,-0.012,0.016,-1.552,0.051,-0.231,81.49,111.1,40.530376,-3.425514,624.2,3,5,325.9,2.461
82.75,1,-0.077,-0.014,0.004,-0.053,-0.007,0.008,-1.555,0.049,-0.227,81.49,111.1,40.530376,-3.425514,624.2,3,5,325.9,2.461
82.85,1,-0.109,0.014,0.01,-0.071,-0.006,0.013,-1.557,0.051,-0.222,81.49,111.1,40.530376,-3.425514,624.2,3,5,325.9,2.461
82.95,1,-0.053,0.003,0.036,-0.075,0.009,0.011,-1.559,0.052,-0.219,82.51,112.4,40.530605,-3.425726,623.8,3,5,323.4,4.922
83.05,1,0.042,-0.012,0.034,-0.031,-0.006,0.036,-1.559,0.051,-0.215,82.51,112.4,40.530605,-3.425726,623.8,3,5,323.4,4.922
83.15,1,-0.01,0.007,0.013,0.003,-0.004,0.022,-1.559,0.053,-0.21,82.51,112.4,40.530605,-3.425726,623.8,3,5,323.4,4.922
83.25,1,0.037,-0.005,0.014,0.015,0.006,0.022,-1.558,0.053,-0.205,82.51,112.4,40.530605,-3.425726,623.8,3,5,323.4,4.922
83.35,1,-0.062,-0.008,-0.018,-0.008,-0.004,-0.006,-1.558,0.051,-0.202,82.51,112.4,40.530605,-3.425726,623.8,3,5,323.4,4.922
83.45,1,-0.111,-0.014,0.033,-0.07,-0.01,0.01,-1.561,0.052,-0.198,82.51,112.4,40.530605,-3.425726,623.8,3,5,323.4,4.922
83.55,1,-0.038,-0.009,0.013,-0.068,-0.012,0.019,-1.562,0.055,-0.194,82.51,112.4,40.530605,-3.425726,623.8,3,5,323.4,4.922
83.65,1,-0.041,0.007,-0.016,-0.047,-0.005,0.001,-1.561,0.053,-0.19,82.51,112.4,40.530605,-3.425726,623.8,3,5,323.4,4.922
83.75,1,0.013,0.005,0.024,-0.03,0.002,0.004,-1.561,0.053,-0.186,82.51,112.4,40.530605,-3.425726,623.8,3,5,323.4,4.922
83.85,1,0.0,-0.007,-0.016,-0.001,0.0,0.006,-1.562,0.054,-0.182,82.51,112.4,40.530605,-3.425726,623.8,3,5,323.4,4.922
83.96,1,-0.013,0.001,-0.008,-0.002,-0.001,-0.008,-1.561,0.054,-0.178,83.53,112.4,40.530605,-3.425726,623.8,3,5,323.4,4.922
84.06,1,-0.048,0.011,-0.03,-0.021,0.003,-0.013,-1.561,0.053,-0.174,83.53,112.4,40.530605,-3.425726,623.8,3,5,323.4,4.922
84.16,1,-0.059,0.038,-0.038,-0.052,0.02,-0.029,-1.562,0.048,-0.172,83.53,112.4,40.530605,-3.425726,623.8,3,5,323.4,4.922
84.25,1,-0.039,0.058,-0.044,-0.047,0.039,-0.037,-1.56,0.044,-0.169,83.53,112.4,40.530605,-3.425726,623.8,3,5,323.4,4.922
84.35,1,-0.017,0.047,-0.075,-0.028,0.047,-0.057,-1.554,0.042,-0.166,83.53,112.4,40.530605,-3.425726,623.8,3,5,323.4,4.922
84.45,1,-0.02,0.018,-0.06,-0.022,0.036,-0.06,-1.549,0.04,-0.163,83.53,112.4,40.530605,-3.425726,623.8,3,5,323.4,4.922
84.55,1,-0.058,0.01,-0.042,-0.036,0.018,-0.055,-1.546,0.041,-0.16,83.53,112.4,40.530605,-3.425726,623.8,3,5,323.4,4.922
84.65,1,-0.097,0.013,-0.043,-0.07,0.015,-0.046,-1.545,0.041,-0.158,83.53,112.4,40.530605,-3.425726,623.8,3,5,323.4,4.922
84.75,1,-0.06,0.01,-0.009,-0.07,0.012,-0.03,-1.544,0.037,-0.155,83.53,112.4,40.530605,-3.425726,623.8,3,5,323.4,4.922
84.85,1,-0.039,0.01,-0.047,-0.054,0.013,-0.033,-1.539,0.035,-0.153,83.53,112.4,40.530605,-3.425726,623.8,3,5,323.4,4.922
84.95,1,-0.016,0.03,-0.027,-0.038,0.016,-0.035,-1.536,0.034,-0.15,84.49,114.2,40.531059,-3.426193,622.2,3,5,319.2,4.219
85.05,1,-0.027,-0.003,-0.042,-0.027,0.013,-0.033,-1.535,0.031,-0.147,84.49,114.2,40.531059,-3.426193,622.2,3,5,319.2,4.219
85.15,1,-0.004,-0.004,-0.058,-0.021,0.004,-0.047,-1.529,0.031,-0.144,84.49,114.2,40.531059,-3.426193,622.2,3,5,319.2,4.219
85.25,1,-0.063,-0.015,-0.061,-0.027,-0.01,-0.053,-1.526,0.032,-0.141,84.49,114.2,40.531059,-3.426193,622.2,3,5,319.2,4.219
85.35,1,-0.099,-0.0,-0.009,-0.064,-0.003,-0.044,-1.527,0.031,-0.138,84.49,114.2,40.531059,-3.426193,622.2,3,5,319.2,4.219
85.45,1,-0.062,-0.003,-0.005,-0.072,-0.005,-0.014,-1.53,0.029,-0.135,84.49,114.2,40.531059,-3.426193,622.2,3,5,319.2,4.219
85.55,1,-0.075,-0.007,0.014,-0.074,-0.002,-0.002,-1.534,0.027,-0.132,84.49,114.2,40.531059,-3.426193,622.2,3,5,319.2,4.219
85.65,1,-0.001,-0.009,0.014,-0.046,-0.006,0.006,-1.535,0.027,-0.129,84.49,114.2,40.531059,-3.426193,622.2,3,5,319.2,4.219
85.75,1,0.001,0.006,0.008,-0.016,-0.004,0.013,-1.537,0.031,-0.126,84.49,114.2,40.531059,-3.426193,622.2,3,5,319.2,4.219
85.85,1,-0.017,0.013,0.011,-0.01,0.006,0.008,-1.54,0.031,-0.123,84.49,114.2,40.531059,-3.426193,622.2,3,5,319.2,4.219
85.95,1,-0.034,0.004,0.027,-0.021,0.005,0.017,-1.544,0.03,-0.12,85.49,113.9,40.531265,-3.426447,621.6,3,5,317.5,3.516
86.05,1,-0.046,-0.01,0.021,-0.037,0.002,0.021,-1.549,0.033,-0.116,85.49,113.9,40.531265,-3.426447,621.6,3,5,317.5,3.516
86.15,1,-0.011,0.01,0.03,-0.027,0.003,0.022,-1.551,0.034,-0.113,85.49,113.9,40.531265,-3.426447,621.6,3,5,317.5,3.516
86.25,1,-0.017,0.022,0.022,-0.019,0.009,0.027,-1.555,0.037,-0.11,85.49,113.9,40.531265,-3.426447,621.6,3,5,317.5,3.516
86.36,1,-0.036,-0.012,-0.001,-0.022,0.004,0.011,-1.557,0.037,-0.106,85.49,113.9,40.531265,-3.426447,621.6,3,5,317.5,3.516
86.47,1,-0.152,-0.001,-0.027,-0.073,-0.002,0.0,-1.56,0.037,-0.102,85.49,113.9,40.531265,-3.426447,621.6,3,5,317.5,3.516
86.55,1,-0.265,0.027,0.0,-0.18,0.009,-0.017,-1.567,0.037,-0.098,85.49,113.9,40.531265,-3.426447,621.6,3,5,317.5,3.516
86.66,1,-0.057,-0.033,0.126,-0.159,0.001,0.052,-1.571,0.043,-0.093,85.49,113.9,40.531265,-3.426447,621.6,3,5,317.5,3.516
86.76,1,0.143,-0.098,0.028,-0.005,-0.047,0.061,-1.569,0.054,-0.087,85.49,113.9,40.531265,-3.426447,621.6,3,5,317.5,3.516
86.86,1,0.083,-0.067,-0.006,0.074,-0.075,0.022,-1.568,0.058,-0.082,85.49,113.9,40.531265,-3.426447,621.6,3,5,317.5,3.516
86.96,1,-0.012,-0.023,0.039,0.041,-0.05,0.024,-1.572,0.061,-0.078,86.49,114.4,40.531467,-3.426699,621.0,3,5,315.4,3.516
87.06,1,-0.088,-0.002,0.027,-0.025,-0.025,0.028,-1.575,0.06,-0.074,86.49,114.4,40.531467,-3.426699,621.0,3,5,315.4,3.516
87.17,1,-0.061,0.063,0.055,-0.061,0.02,0.041,-1.578,0.054,-0.072,86.49,114.4,40.531467,-3.426699,621.0,3,5,315.4,3.516
87.26,1,-0.064,0.043,0.025,-0.059,0.038,0.035,-1.579,0.047,-0.07,86.49,114.4,40.531467,-3.426699,621.0,3,5,315.4,3.516
87.36,1,-0.008,0.078,0.026,-0.046,0.059,0.025,-1.583,0.044,-0.068,86.49,114.4,40.531467,-3.426699,621.0,3,5,315.4,3.516
87.46,1,-0.054,0.053,0.005,-0.034,0.059,0.021,-1.586,0.038,-0.066,86.49,114.4,40.531467,-3.426699,621.0,3,5,315.4,3.516
87.56,1,-0.075,0.018,0.019,-0.055,0.041,0.014,-1.588,0.034,-0.063,86.49,114.4,40.531467,-3.426699,621.0,3,5,315.4,3.516
87.66,1,-0.076,0.003,-0.0,-0.069,0.016,0.016,-1.591,0.033,-0.06,86.49,114.4,40.531467,-3.426699,621.0,3,5,315.4,3.516
87.76,1,-0.083,0.011,-0.012,-0.076,0.012,-0.003,-1.59,0.033,-0.058,86.49,114.4,40.531467,-3.426699,621.0,3,5,315.4,3.516
87.86,1,-0.03,0.008,-0.028,-0.054,0.008,-0.009,-1.591,0.032,-0.055,86.49,114.4,40.531467,-3.426699,621.0,3,5,315.4,3.516
87.96,1,-0.031,-0.018,-0.026,-0.042,0.0,-0.025,-1.591,0.033,-0.053,87.49,116.0,40.531673,-3.426976,620.9,3,5,312.9,3.867
88.07,1,-0.04,0.024,-0.013,-0.044,0.008,-0.023,-1.589,0.033,-0.05,87.49,116.0,40.531673,-3.426976,620.9,3,5,312.9,3.867
88.16,1,-0.045,-0.007,0.0,-0.033,0.003,-0.006,-1.589,0.033,-0.047,87.49,116.0,40.531673,-3.426976,620.9,3,5,312.9,3.867
88.27,1,-0.026,0.013,-0.027,-0.037,0.003,-0.02,-1.587,0.033,-0.044,87.49,116.0,40.531673,-3.426976,620.9,3,5,312.9,3.867
88.37,1,-0.072,-0.017,-0.013,-0.052,0.003,-0.014,-1.589,0.032,-0.041,87.49,116.0,40.531673,-3.426976,620.9,3,5,312.9,3.867
88.46,1,-0.077,0.008,-0.001,-0.069,-0.002,-0.01,-1.592,0.034,-0.038,87.49,116.0,40.531673,-3.426976,620.9,3,5,312.9,3.867
88.56,1,-0.038,-0.004,-0.005,-0.061,-0.004,-0.001,-1.593,0.036,-0.035,87.49,116.0,40.531673,-3.426976,620.9,3,5,312.9,3.867
88.66,1,-0.042,-0.012,-0.022,-0.047,-0.006,-0.015,-1.592,0.037,-0.033,87.49,116.0,40.531673,-3.426976,620.9,3,5,312.9,3.867
88.76,1,-0.014,-0.004,-0.012,-0.027,-0.008,-0.017,-1.592,0.038,-0.03,87.49,116.0,40.531673,-3.426976,620.9,3,5,312.9,3.867
88.86,1,-0.064,0.009,-0.003,-0.041,0.002,-0.013,-1.592,0.038,-0.027,87.49,116.0,40.531673,-3.426976,620.9,3,5,312.9,3.867
88.96,1,-0.043,-0.002,0.0,-0.044,0.005,0.001,-1.594,0.039,-0.024,88.53,117.3,40.531876,-3.427268,621.1,3,5,311.5,4.57
89.06,1,-0.071,0.002,-0.011,-0.057,-0.002,-0.009,-1.595,0.039,-0.02,88.53,117.3,40.531876,-3.427268,621.1,3,5,311.5,4.57
89.16,1,-0.037,-0.018,-0.014,-0.056,-0.003,-0.01,-1.596,0.04,-0.017,88.53,117.3,40.531876,-3.427268,621.1,3,5,311.5,4.57
89.27,1,-0.051,-0.015,-0.011,-0.046,-0.015,-0.007,-1.595,0.042,-0.013,88.53,117.3,40.531876,-3.427268,621.1,3,5,311.5,4.57
89.36,1,-0.064,-0.001,-0.023,-0.055,-0.008,-0.018,-1.594,0.043,-0.01,88.53,117.3,40.531876,-3.427268,621.1,3,5,311.5,4.57
89.47,1,-0.079,0.013,-0.008,-0.067,0.002,-0.013,-1.594,0.043,-0.008,88.53,117.3,40.531876,-3.427268,621.1,3,5,311.5,4.57
89.57,1,-0.128,0.007,-0.025,-0.092,0.005,-0.015,-1.593,0.043,-0.004,88.53,117.3,40.531876,-3.427268,621.1,3,5,311.5,4.57
89.66,1,-0.09,0.024,-0.001,-0.106,0.012,-0.015,-1.593,0.044,-0.001,88.53,117.3,40.531876,-3.427268,621.1,3,5,311.5,4.57
89.76,1,-0.018,-0.001,-0.016,-0.061,0.01,-0.012,-1.594,0.043,0.002,88.53,117.3,40.531876,-3.427268,621.1,3,5,311.5,4.57
89.86,1,-0.056,0.02,-0.017,-0.049,0.011,-0.012,-1.595,0.043,0.005,88.53,117.3,40.531876,-3.427268,621.1,3,5,311.5,4.57
89.97,1,-0.037,-0.015,-0.011,-0.049,0.007,-0.015,-1.596,0.039,0.008,89.5,117.0,40.532066,-3.42756,621.5,3,5,310.1,2.812
90.06,1,0.003,-0.012,-0.013,-0.023,-0.007,-0.014,-1.594,0.042,0.011,89.5,117.0,40.532066,-3.42756,621.5,3,5,310.1,2.812
90.17,1,-0.047,-0.017,-0.062,-0.027,-0.014,-0.031,-1.591,0.045,0.014,89.5,117.0,40.532066,-3.42756,621.5,3,5,310.1,2.812
90.27,1,-0.095,0.002,-0.078,-0.059,-0.013,-0.059,-1.586,0.047,0.018,89.5,117.0,40.532066,-3.42756,621.5,3,5,310.1,2.812
90.37,1,-0.093,0.018,-0.059,-0.088,0.01,-0.063,-1.582,0.049,0.021,89.5,117.0,40.532066,-3.42756,621.5,3,5,310.1,2.812
90.47,1,-0.019,-0.012,-0.06,-0.06,0.005,-0.06,-1.577,0.05,0.024,89.5,117.0,40.532066,-3.42756,621.5,3,5,310.1,2.812
90.57,1,-0.04,0.021,-0.067,-0.037,0.004,-0.065,-1.571,0.051,0.027,89.5,117.0,40.532066,-3.42756,621.5,3,5,310.1,2.812
90.67,1,-0.055,-0.004,-0.054,-0.046,0.006,-0.059,-1.569,0.052,0.03,89.5,117.0,40.532066,-3.42756,621.5,3,5,310.1,2.812
90.77,1,-0.027,0.001,-0.071,-0.037,-0.002,-0.063,-1.561,0.051,0.033,89.5,117.0,40.532066,-3.42756,621.5,3,5,310.1,2.812
90.87,1,-0.059,0.027,-0.077,-0.046,0.013,-0.069,-1.556,0.048,0.035,89.5,117.0,40.532066,-3.42756,621.5,3,5,310.1,2.812
90.97,1,-0.0,0.001,-0.056,-0.029,0.01,-0.065,-1.552,0.047,0.038,90.52,117.3,40.532242,-3.427872,622.1,3,5,307.3,4.219
91.07,1,-0.043,0.004,-0.065,-0.027,0.005,-0.065,-1.548,0.046,0.041,90.52,117.3,40.532242,-3.427872,622.1,3,5,307.3,4.219
91.17,1,-0.057,0.008,-0.047,-0.046,0.008,-0.056,-1.545,0.044,0.044,90.52,117.3,40.532242,-3.427872,622.1,3,5,307.3,4.219
91.27,1,-0.055,0.025,-0.055,-0.051,0.014,-0.057,-1.543,0.043,0.046,90.52,117.3,40.532242,-3.427872,622.1,3,5,307.3,4.219
91.38,1,-0.046,0.012,-0.045,-0.049,0.017,-0.046,-1.541,0.042,0.049,90.52,117.3,40.532242,-3.427872,622.1,3,5,307.3,4.219
91.48,1,-0.066,0.028,-0.055,-0.052,0.019,-0.054,-1.538,0.041,0.051,90.52,117.3,40.532242,-3.427872,622.1,3,5,307.3,4.219
91.57,1,-0.063,0.037,-0.023,-0.067,0.031,-0.044,-1.539,0.042,0.053,90.52,117.3,40.532242,-3.427872,622.1,3,5,307.3,4.219
91.67,1,-0.04,-0.004,-0.031,-0.058,0.017,-0.028,-1.539,0.045,0.056,90.52,117.3,40.532242,-3.427872,622.1,3,5,307.3,4.219
91.77,1,-0.02,0.031,-0.065,-0.027,0.015,-0.046,-1.536,0.049,0.059,90.52,117.3,40.532242,-3.427872,622.1,3,5,307.3,4.219
91.87,1,-0.033,-0.021,-0.03,-0.038,0.008,-0.048,-1.534,0.052,0.062,90.52,117.3,40.532242,-3.427872,622.1,3,5,307.3,4.219
91.98,1,0.009,-0.003,-0.036,-0.018,-0.004,-0.035,-1.533,0.051,0.065,91.49,115.0,40.532413,-3.428189,623.0,3,5,304.8,5.273
92.07,1,-0.013,0.003,-0.034,-0.004,-0.001,-0.032,-1.531,0.049,0.068,91.49,115.0,40.532413,-3.428189,623.0,3,5,304.8,5.273
92.17,1,-0.075,-0.005,-0.043,-0.033,-0.002,-0.042,-1.526,0.05,0.071,91.49,115.0,40.532413,-3.428189,623.0,3,5,304.8,5.273
92.27,1,-0.069,0.014,-0.018,-0.064,0.005,-0.031,-1.526,0.048,0.074,91.49,115.0,40.532413,-3.428189,623.0,3,5,304.8,5.273
92.38,1,-0.052,0.014,-0.018,-0.057,0.007,-0.019,-1.526,0.047,0.077,91.49,115.0,40.532413,-3.428189,623.0,3,5,304.8,5.273
92.47,1,-0.047,0.015,-0.04,-0.053,0.014,-0.032,-1.524,0.045,0.08,91.49,115.0,40.532413,-3.428189,623.0,3,5,304.8,5.273
92.58,1,-0.029,0.025,-0.023,-0.04,0.019,-0.028,-1.524,0.044,0.082,91.49,115.0,40.532413,-3.428189,623.0,3,5,304.8,5.273
92.67,1,-0.035,0.012,-0.027,-0.037,0.018,-0.027,-1.522,0.042,0.085,91.49,115.0,40.532413,-3.428189,623.0,3,5,304.8,5.273
92.77,1,-0.011,0.006,-0.003,-0.031,0.015,-0.017,-1.519,0.04,0.087,91.49,115.0,40.532413,-3.428189,623.0,3,5,304.8,5.273
92.87,1,0.019,0.022,-0.025,-0.0,0.015,-0.016,-1.518,0.039,0.09,91.49,115.0,40.532413,-3.428189,623.0,3,5,304.8,5.273
92.97,1,-0.005,0.021,-0.018,0.001,0.017,-0.016,-1.517,0.038,0.092,92.51,115.0,40.532413,-3.428189,623.0,3,5,304.8,5.273
93.08,1,-0.003,0.02,-0.012,-0.001,0.016,-0.018,-1.516,0.037,0.095,92.51,115.0,40.532413,-3.428189,623.0,3,5,304.8,5.273
93.17,1,-0.056,0.038,-0.006,-0.026,0.028,-0.015,-1.517,0.035,0.097,92.51,115.0,40.532413,-3.428189,623.0,3,5,304.8,5.273
93.27,1,-0.002,0.002,0.015,-0.028,0.024,-0.001,-1.519,0.037,0.1,92.51,115.0,40.532413,-3.428189,623.0,3,5,304.8,5.273
93.37,1,0.05,-0.033,0.012,0.016,-0.008,0.011,-1.52,0.038,0.103,92.51,115.0,40.532413,-3.428189,623.0,3,5,304.8,5.273
93.47,1,-0.002,-0.016,0.007,0.013,-0.015,0.01,-1.52,0.041,0.107,92.51,115.0,40.532413,-3.428189,623.0,3,5,304.8,5.273
93.57,1,-0.012,-0.033,0.034,0.002,-0.026,0.015,-1.524,0.041,0.111,92.51,115.0,40.532413,-3.428189,623.0,3,5,304.8,5.273
93.67,1,-0.014,-0.028,0.041,-0.007,-0.024,0.032,-1.527,0.04,0.115,92.51,115.0,40.532413,-3.428189,623.0,3,5,304.8,5.273
93.78,1,-0.028,0.006,0.036,-0.015,-0.018,0.038,-1.532,0.039,0.118,92.51,115.0,40.532413,-3.428189,623.0,3,5,304.8,5.273
93.89,1,-0.009,-0.004,0.05,-0.019,-0.004,0.037,-1.537,0.043,0.121,92.51,115.0,40.532413,-3.428189,623.0,3,5,304.8,5.273
93.98,1,-0.007,-0.0,0.052,-0.013,-0.004,0.05,-1.541,0.043,0.124,93.5,108.2,40.532696,-3.428801,624.3,3,5,301.3,3.516
94.08,1,-0.02,0.02,0.028,-0.013,0.004,0.042,-1.544,0.04,0.128,93.5,108.2,40.532696,-3.428801,624.3,3,5,301.3,3.516
94.18,1,-0.007,-0.002,0.036,-0.013,0.007,0.035,-1.548,0.039,0.131,93.5,108.2,40.532696,-3.428801,624.3,3,5,301.3,3.516
94.28,1,-0.024,0.02,0.039,-0.013,0.008,0.036,-1.552,0.038,0.133,93.5,108.2,40.532696,-3.428801,624.3,3,5,301.3,3.516
94.38,1,-0.016,0.024,0.065,-0.019,0.019,0.05,-1.557,0.033,0.135,93.5,108.2,40.532696,-3.428801,624.3,3,5,301.3,3.516
94.48,1,-0.032,0.011,0.035,-0.024,0.021,0.046,-1.562,0.032,0.138,93.5,108.2,40.532696,-3.428801,624.3,3,5,301.3,3.516
94.58,1,-0.03,0.024,0.061,-0.033,0.02,0.045,-1.567,0.031,0.14,93.5,108.2,40.532696,-3.428801,624.3,3,5,301.3,3.516
94.68,1,-0.0,0.037,0.071,-0.017,0.027,0.066,-1.572,0.032,0.143,93.5,108.2,40.532696,-3.428801,624.3,3,5,301.3,3.516
94.78,1,-0.01,0.028,0.031,-0.003,0.025,0.054,-1.575,0.032,0.146,93.5,108.2,40.532696,-3.428801,624.3,3,5,301.3,3.516
94.88,1,-0.01,-0.002,0.066,-0.009,0.014,0.047,-1.579,0.03,0.148,93.5,108.2,40.532696,-3.428801,624.3,3,5,301.3,3.516
94.98,1,-0.021,-0.005,0.054,-0.016,0.002,0.06,-1.585,0.03,0.151,94.48,106.2,40.532833,-3.429104,625.0,3,5,300.2,3.516
95.08,1,-0.056,0.018,0.035,-0.033,0.01,0.051,-1.589,0.029,0.154,94.48,106.2,40.532833,-3.429104,625.0,3,5,300.2,3.516
95.18,1,-0.025,0.009,0.048,-0.039,0.013,0.041,-1.594,0.03,0.156,94.48,106.2,40.532833,-3.429104,625.0,3,5,300.2,3.516
95.28,1,-0.034,0.006,0.035,-0.027,0.008,0.041,-1.597,0.029,0.158,94.48,106.2,40.532833,-3.429104,625.0,3,5,300.2,3.516
95.38,1,-0.01,0.028,0.054,-0.027,0.015,0.044,-1.6,0.026,0.16,94.48,106.2,40.532833,-3.429104,625.0,3,5,300.2,3.516
95.49,1,-0.032,0.003,0.015,-0.025,0.016,0.037,-1.603,0.024,0.162,94.48,106.2,40.532833,-3.429104,625.0,3,5,300.2,3.516
95.58,1,-0.006,0.001,0.039,-0.02,0.006,0.029,-1.606,0.026,0.164,94.48,106.2,40.532833,-3.429104,625.0,3,5,300.2,3.516
95.69,1,-0.009,0.029,0.018,-0.009,0.013,0.031,-1.608,0.027,0.166,94.48,106.2,40.532833,-3.429104,625.0,3,5,300.2,3.516
95.78,1,-0.043,0.022,0.022,-0.023,0.026,0.022,-1.609,0.027,0.169,94.48,106.2,40.532833,-3.429104,625.0,3,5,300.2,3.516
95.88,1,-0.004,-0.015,0.018,-0.021,0.007,0.021,-1.611,0.028,0.171,94.48,106.2,40.532833,-3.429104,625.0,3,5,300.2,3.516
95.98,1,-0.029,-0.008,0.035,-0.016,-0.006,0.028,-1.614,0.03,0.173,95.5,105.1,40.532959,-3.429407,626.2,3,5,298.8,3.516
96.08,1,-0.008,0.008,0.013,-0.019,-0.001,0.021,-1.616,0.029,0.175,95.5,105.1,40.532959,-3.429407,626.2,3,5,298.8,3.516
96.18,1,0.011,0.007,0.036,-0.005,0.004,0.026,-1.617,0.031,0.177,95.5,105.1,40.532959,-3.429407,626.2,3,5,298.8,3.516
96.29,1,-0.005,0.029,-0.006,0.004,0.013,0.018,-1.619,0.029,0.179,95.5,105.1,40.532959,-3.429407,626.2,3,5,298.8,3.516
96.38,1,-0.019,0.007,0.011,-0.014,0.017,0.007,-1.62,0.028,0.181,95.5,105.1,40.532959,-3.429407,626.2,3,5,298.8,3.516
96.48,1,-0.005,-0.002,0.017,-0.007,0.007,0.011,-1.621,0.028,0.183,95.5,105.1,40.532959,-3.429407,626.2,3,5,298.8,3.516
96.58,1,-0.018,0.024,0.013,-0.011,0.008,0.016,-1.621,0.028,0.186,95.5,105.1,40.532959,-3.429407,626.2,3,5,298.8,3.516
96.68,1,-0.04,0.026,-0.004,-0.024,0.018,0.008,-1.621,0.03,0.188,95.5,105.1,40.532959,-3.429407,626.2,3,5,298.8,3.516
96.79,1,-0.057,-0.003,-0.007,-0.04,0.017,-0.004,-1.62,0.027,0.19,95.5,105.1,40.532959,-3.429407,626.2,3,5,298.8,3.516
96.89,1,-0.047,-0.011,0.012,-0.053,-0.002,0.003,-1.622,0.025,0.192,95.5,105.1,40.532959,-3.429407,626.2,3,5,298.8,3.516
96.99,1,0.02,-0.033,0.002,-0.018,-0.017,0.004,-1.621,0.029,0.195,96.53,109.7,40.533073,-3.429726,627.7,3,5,295.3,4.922
97.08,1,0.034,-0.029,0.015,0.012,-0.023,0.01,-1.622,0.029,0.197,96.53,109.7,40.533073,-3.429726,627.7,3,5,295.3,4.922
97.19,1,-0.029,-0.005,0.018,0.002,-0.021,0.015,-1.623,0.031,0.199,96.53,109.7,40.533073,-3.429726,627.7,3,5,295.3,4.922
97.28,1,-0.051,0.01,0.013,-0.028,-0.001,0.013,-1.626,0.029,0.201,96.53,109.7,40.533073,-3.429726,627.7,3,5,295.3,4.922
97.39,1,-0.022,0.029,0.017,-0.033,0.013,0.016,-1.627,0.03,0.204,96.53,109.7,40.533073,-3.429726,627.7,3,5,295.3,4.922
97.48,1,-0.013,0.007,-0.01,-0.02,0.012,0.007,-1.626,0.031,0.206,96.53,109.7,40.533073,-3.429726,627.7,3,5,295.3,4.922
97.59,1,0.01,-0.024,-0.006,-0.007,-0.003,-0.003,-1.626,0.032,0.209,96.53,109.7,40.533073,-3.429726,627.7,3,5,295.3,4.922
97.69,1,-0.008,0.002,0.003,-0.003,-0.006,-0.003,-1.627,0.031,0.211,96.53,109.7,40.533073,-3.429726,627.7,3,5,295.3,4.922
97.79,1,-0.027,-0.017,0.002,-0.016,-0.009,0.001,-1.627,0.032,0.214,96.53,109.7,40.533073,-3.429726,627.7,3,5,295.3,4.922
97.89,1,-0.006,-0.021,0.022,-0.015,-0.016,0.01,-1.628,0.034,0.216,96.53,109.7,40.533073,-3.429726,627.7,3,5,295.3,4.922
97.99,1,-0.012,-0.022,0.018,-0.009,-0.017,0.017,-1.628,0.037,0.219,97.53,109.7,40.533073,-3.429726,627.7,3,5,295.3,4.922
98.09,1,-0.019,-0.016,0.006,-0.016,-0.021,0.009,-1.63,0.038,0.222,97.53,109.7,40.533073,-3.429726,627.7,3,5,295.3,4.922
98.19,1,-0.022,0.01,0.016,-0.018,-0.01,0.015,-1.632,0.037,0.224,97.53,109.7,40.533073,-3.429726,627.7,3,5,295.3,4.922
98.29,1,0.009,0.036,0.004,-0.004,0.017,0.012,-1.632,0.038,0.225,97.53,109.7,40.533073,-3.429726,627.7,3,5,295.3,4.922
98.39,1,-0.023,0.059,-0.015,-0.012,0.04,-0.004,-1.632,0.035,0.226,97.53,109.7,40.533073,-3.429726,627.7,3,5,295.3,4.922
98.49,1,-0.02,0.026,-0.013,-0.02,0.041,-0.01,-1.633,0.037,0.229,97.53,109.7,40.533073,-3.429726,627.7,3,5,295.3,4.922
98.59,1,-0.052,-0.024,-0.017,-0.029,0.013,-0.015,-1.635,0.039,0.231,97.53,109.7,40.533073,-3.429726,627.7,3,5,295.3,4.922
98.69,1,-0.046,-0.052,-0.021,-0.052,-0.025,-0.013,-1.635,0.043,0.235,97.53,109.7,40.533073,-3.429726,627.7,3,5,295.3,4.922
98.8,1,-0.007,-0.041,0.007,-0.027,-0.036,-0.01,-1.635,0.048,0.239,97.53,109.7,40.533073,-3.429726,627.7,3,5,295.3,4.922
98.89,1,-0.012,-0.035,-0.004,-0.015,-0.04,-0.001,-1.635,0.05,0.242,97.53,109.7,40.533073,-3.429726,627.7,3,5,295.3,4.922
98.99,1,-0.002,-0.027,-0.011,-0.006,-0.033,-0.01,-1.635,0.053,0.245,98.55,111.7,40.533295,-3.430396,630.4,4,5,291.8,3.516
99.09,1,-0.001,0.012,0.0,-0.006,-0.013,0.001,-1.633,0.052,0.246,98.55,111.7,40.533295,-3.430396,630.4,4,5,291.8,3.516
99.19,1,-0.008,0.038,0.015,-0.005,0.012,0.001,-1.633,0.05,0.247,98.55,111.7,40.533295,-3.430396,630.4,4,5,291.8,3.516
99.3,1,0.013,0.05,-0.019,-0.001,0.033,-0.002,-1.635,0.041,0.248,98.55,111.7,40.533295,-3.430396,630.4,4,5,291.8,3.516
99.39,1,0.026,0.051,-0.007,0.016,0.045,-0.006,-1.633,0.035,0.249,98.55,111.7,40.533295,-3.430396,630.4,4,5,291.8,3.516
99.49,1,-0.009,0.039,-0.005,0.008,0.042,-0.008,-1.631,0.035,0.25,98.55,111.7,40.533295,-3.430396,630.4,4,5,291.8,3.516
99.59,1,0.024,0.038,0.012,0.007,0.042,0.001,-1.633,0.031,0.252,98.55,111.7,40.533295,-3.430396,630.4,4,5,291.8,3.516
99.69,1,0.004,0.002,-0.011,0.014,0.031,-0.0,-1.632,0.03,0.253,98.55,111.7,40.533295,-3.430396,630.4,4,5,291.8,3.516
99.79,1,-0.01,0.024,-0.01,-0.004,0.017,-0.005,-1.632,0.03,0.255,98.55,111.7,40.533295,-3.430396,630.4,4,5,291.8,3.516
99.89,1,-0.035,-0.003,-0.029,-0.016,0.009,-0.02,-1.63,0.031,0.258,98.55,111.7,40.533295,-3.430396,630.4,4,5,291.8,3.516
100.0,1,-0.09,0.002,-0.026,-0.05,0.004,-0.023,-1.63,0.029,0.259,99.55,113.0,40.53339,-3.430744,632.5,3,5,289.3,4.57
100.1,1,-0.01,-0.008,-0.005,-0.049,-0.006,-0.015,-1.629,0.031,0.261,99.55,113.0,40.53339,-3.430744,632.5,3,5,289.3,4.57
100.19,1,0.042,0.012,-0.013,0.006,0.006,-0.011,-1.627,0.029,0.262,99.55,113.0,40.53339,-3.430744,632.5,3,5,289.3,4.57
100.29,1,0.023,0.009,-0.034,0.021,0.01,-0.022,-1.623,0.026,0.265,99.55,113.0,40.53339,-3.430744,632.5,3,5,289.3,4.57
100.39,1,-0.007,-0.007,-0.001,0.011,0.002,-0.014,-1.622,0.027,0.267,99.55,113.0,40.53339,-3.430744,632.5,3,5,289.3,4.57
100.5,1,-0.036,-0.013,-0.007,-0.009,-0.006,-0.012,-1.623,0.027,0.269,99.55,113.0,40.53339,-3.430744,632.5,3,5,289.3,4.57
100.6,1,-0.119,-0.017,-0.013,-0.061,-0.013,-0.009,-1.622,0.028,0.27,99.55,113.0,40.53339,-3.430744,632.5,3,5,289.3,4.57
100.69,1,-0.072,0.014,0.013,-0.085,-0.007,-0.004,-1.622,0.027,0.272,99.55,113.0,40.53339,-3.430744,632.5,3,5,289.3,4.57
100.8,1,0.034,-0.001,0.021,-0.035,0.001,0.014,-1.623,0.027,0.273,99.55,113.0,40.53339,-3.430744,632.5,3,5,289.3,4.57
100.9,1,0.027,0.001,-0.031,0.006,0.001,-0.006,-1.619,0.028,0.275,99.55,113.0,40.53339,-3.430744,632.5,3,5,289.3,4.57
100.99,1,0.033,-0.022,-0.028,0.029,-0.011,-0.016,-1.618,0.029,0.277,100.51,113.7,40.53347,-3.431112,634.4,3,5,287.6,4.219
101.1,1,-0.08,-0.027,0.003,-0.015,-0.016,-0.015,-1.619,0.03,0.279,100.51,113.7,40.53347,-3.431112,634.4,3,5,287.6,4.219
101.19,1,-0.098,-0.018,-0.025,-0.073,-0.017,-0.016,-1.62,0.031,0.281,100.51,113.7,40.53347,-3.431112,634.4,3,5,287.6,4.219
101.3,1,-0.037,0.004,0.01,-0.062,-0.009,-0.01,-1.622,0.032,0.283,100.51,113.7,40.53347,-3.431112,634.4,3,5,287.6,4.219
101.39,1,-0.026,0.013,0.015,-0.04,-0.002,0.01,-1.623,0.035,0.285,100.51,113.7,40.53347,-3.431112,634.4,3,5,287.6,4.219
101.5,1,0.068,0.016,0.017,0.011,0.012,0.012,-1.622,0.037,0.287,100.51,113.7,40.53347,-3.431112,634.4,3,5,287.6,4.219
101.6,1,0.009,-0.014,-0.01,0.028,0.002,0.006,-1.62,0.04,0.289,100.51,113.7,40.53347,-3.431112,634.4,3,5,287.6,4.219
101.7,1,-0.028,-0.033,0.016,0.002,-0.016,0.003,-1.621,0.043,0.292,100.51,113.7,40.53347,-3.431112,634.4,3,5,287.6,4.219
101.8,1,-0.061,0.008,0.031,-0.04,-0.007,0.012,-1.622,0.04,0.293,100.51,113.7,40.53347,-3.431112,634.4,3,5,287.6,4.219
101.91,1,0.007,0.017,-0.011,-0.028,0.006,0.016,-1.623,0.033,0.293,100.51,113.7,40.53347,-3.431112,634.4,3,5,287.6,4.219
102.01,1,-0.035,0.033,-0.018,-0.017,0.015,-0.011,-1.622,0.029,0.294,101.54,114.3,40.533558,-3.431471,636.0,3,5,285.8,3.516
102.1,1,-0.03,0.014,0.007,-0.03,0.022,0.004,-1.623,0.027,0.295,101.54,114.3,40.533558,-3.431471,636.0,3,5,285.8,3.516
102.2,1,-0.036,0.009,-0.016,-0.031,0.013,-0.008,-1.624,0.031,0.298,101.54,114.3,40.533558,-3.431471,636.0,3,5,285.8,3.516
102.3,1,-0.036,-0.022,-0.027,-0.031,-0.004,-0.016,-1.624,0.034,0.301,101.54,114.3,40.533558,-3.431471,636.0,3,5,285.8,3.516
102.4,1,-0.042,-0.014,-0.001,-0.043,-0.009,-0.017,-1.623,0.042,0.303,101.54,114.3,40.533558,-3.431471,636.0,3,5,285.8,3.516
102.5,1,0.008,-0.044,-0.067,-0.025,-0.023,-0.031,-1.619,0.044,0.305,101.54,114.3,40.533558,-3.431471,636.0,3,5,285.8,3.516
102.6,1,-0.008,-0.013,-0.05,-0.002,-0.026,-0.043,-1.612,0.044,0.306,101.54,114.3,40.533558,-3.431471,636.0,3,5,285.8,3.516
102.7,1,-0.039,0.02,-0.046,-0.017,-0.006,-0.05,-1.606,0.039,0.307,101.54,114.3,40.533558,-3.431471,636.0,3,5,285.8,3.516
102.8,1,0.02,0.008,-0.071,-0.011,0.01,-0.054,-1.601,0.035,0.308,101.54,114.3,40.533558,-3.431471,636.0,3,5,285.8,3.516
102.9,1,-0.029,0.011,-0.061,-0.008,0.008,-0.061,-1.595,0.036,0.31,101.54,114.3,40.533558,-3.431471,636.0,3,5,285.8,3.516
103.0,1,-0.048,-0.022,-0.053,-0.037,-0.008,-0.062,-1.591,0.036,0.312,102.51,115.4,40.533627,-3.431832,638.1,3,5,283.7,3.516
103.1,1,0.019,-0.027,-0.036,-0.01,-0.015,-0.04,-1.587,0.034,0.314,102.51,115.4,40.533627,-3.431832,638.1,3,5,283.7,3.516
103.2,1,-0.025,-0.034,-0.046,-0.008,-0.024,-0.05,-1.58,0.037,0.316,102.51,115.4,40.533627,-3.431832,638.1,3,5,283.7,3.516
103.3,1,0.011,-0.064,-0.031,-0.016,-0.04,-0.041,-1.578,0.043,0.319,102.51,115.4,40.533627,-3.431832,638.1,3,5,283.7,3.516
103.4,1,0.002,-0.026,-0.015,0.006,-0.039,-0.028,-1.575,0.044,0.321,102.51,115.4,40.533627,-3.431832,638.1,3,5,283.7,3.516
103.5,1,0.005,-0.016,-0.032,0.004,-0.028,-0.027,-1.574,0.045,0.323,102.51,115.4,40.533627,-3.431832,638.1,3,5,283.7,3.516
103.6,1,-0.064,-0.017,0.007,-0.015,-0.02,-0.017,-1.575,0.046,0.325,102.51,115.4,40.533627,-3.431832,638.1,3,5,283.7,3.516
103.7,1,-0.042,-0.003,0.003,-0.044,-0.013,0.004,-1.577,0.045,0.327,102.51,115.4,40.533627,-3.431832,638.1,3,5,283.7,3.516
103.81,1,-0.003,0.024,0.008,-0.033,0.006,0.001,-1.576,0.046,0.329,102.51,115.4,40.533627,-3.431832,638.1,3,5,283.7,3.516
103.91,1,0.009,0.033,0.001,-0.001,0.018,0.005,-1.576,0.047,0.33,102.51,115.4,40.533627,-3.431832,638.1,3,5,283.7,3.516
104.01,1,-0.031,0.019,0.013,-0.014,0.024,0.002,-1.577,0.049,0.331,103.5,113.9,40.533691,-3.432196,639.0,3,5,281.6,4.219
104.1,1,-0.024,0.01,0.028,-0.028,0.019,0.014,-1.581,0.054,0.333,103.5,113.9,40.533691,-3.432196,639.0,3,5,281.6,4.219
104.2,1,-0.089,0.021,-0.01,-0.056,0.014,0.012,-1.584,0.053,0.333,103.5,113.9,40.533691,-3.432196,639.0,3,5,281.6,4.219
104.3,1,-0.019,0.053,0.1,-0.047,0.029,0.043,-1.585,0.048,0.333,103.5,113.9,40.533691,-3.432196,639.0,3,5,281.6,4.219
104.41,1,0.062,0.065,0.022,0.016,0.048,0.051,-1.582,0.045,0.333,103.5,113.9,40.533691,-3.432196,639.0,3,5,281.6,4.219
104.5,1,-0.049,0.054,0.021,-0.001,0.058,0.02,-1.583,0.04,0.335,103.5,113.9,40.533691,-3.432196,639.0,3,5,281.6,4.219
104.6,1,-0.046,0.024,0.075,-0.035,0.038,0.051,-1.588,0.04,0.338,103.5,113.9,40.533691,-3.432196,639.0,3,5,281.6,4.219
104.7,1,-0.012,0.01,0.062,-0.029,0.026,0.058,-1.589,0.043,0.34,103.5,113.9,40.533691,-3.432196,639.0,3,5,281.6,4.219
104.81,1,0.006,-0.025,0.028,-0.006,0.002,0.052,-1.59,0.043,0.342,103.5,113.9,40.533691,-3.432196,639.0,3,5,281.6,4.219
104.91,1,-0.046,0.001,0.036,-0.021,-0.008,0.034,-1.593,0.045,0.342,103.5,113.9,40.533691,-3.432196,639.0,3,5,281.6,4.219
105.01,1,-0.079,-0.008,0.045,-0.053,-0.001,0.044,-1.597,0.043,0.343,104.49,113.5,40.533737,-3.432564,640.0,3,5,279.5,4.219
105.12,1,-0.011,0.019,0.04,-0.051,0.001,0.042,-1.599,0.042,0.344,104.49,113.5,40.533737,-3.432564,640.0,3,5,279.5,4.219
105.2,1,0.032,-0.006,-0.014,0.005,0.012,0.021,-1.6,0.045,0.347,104.49,113.5,40.533737,-3.432564,640.0,3,5,279.5,4.219
105.31,1,0.048,-0.017,0.006,0.032,-0.01,0.003,-1.6,0.047,0.35,104.49,113.5,40.533737,-3.432564,640.0,3,5,279.5,4.219
105.41,1,-0.068,-0.019,-0.005,-0.01,-0.016,-0.002,-1.602,0.05,0.352,104.49,113.5,40.533737,-3.432564,640.0,3,5,279.5,4.219
105.51,1,-0.042,-0.011,0.044,-0.039,-0.018,0.018,-1.605,0.052,0.353,104.49,113.5,40.533737,-3.432564,640.0,3,5,279.5,4.219
105.62,1,-0.06,0.031,-0.024,-0.042,0.004,0.01,-1.606,0.046,0.353,104.49,113.5,40.533737,-3.432564,640.0,3,5,279.5,4.219
105.71,1,-0.083,0.051,-0.051,-0.066,0.032,-0.025,-1.603,0.041,0.354,104.49,113.5,40.533737,-3.432564,640.0,3,5,279.5,4.219
105.81,1,-0.094,0.044,-0.047,-0.086,0.043,-0.043,-1.602,0.039,0.355,104.49,113.5,40.533737,-3.432564,640.0,3,5,279.5,4.219
105.91,1,-0.007,0.001,-0.063,-0.056,0.024,-0.043,-1.597,0.039,0.357,104.49,113.5,40.533737,-3.432564,640.0,3,5,279.5,4.219
106.02,1,0.059,-0.006,-0.068,0.005,0.007,-0.066,-1.588,0.043,0.359,105.5,114.5,40.533772,-3.432937,641.7,3,5,277.7,4.219
106.12,1,0.063,-0.01,-0.076,0.038,-0.0,-0.068,-1.578,0.047,0.36,105.5,114.5,40.533772,-3.432937,641.7,3,5,277.7,4.219
106.22,1,0.061,-0.001,-0.051,0.058,-0.011,-0.062,-1.572,0.05,0.361,105.5,114.5,40.533772,-3.432937,641.7,3,5,277.7,4.219
106.32,1,-0.007,0.017,-0.081,0.038,0.011,-0.071,-1.564,0.05,0.362,105.5,114.5,40.533772,-3.432937,641.7,3,5,277.7,4.219
106.41,1,-0.084,-0.036,-0.064,-0.024,-0.003,-0.068,-1.561,0.051,0.364,105.5,114.5,40.533772,-3.432937,641.7,3,5,277.7,4.219
106.51,1,-0.052,-0.014,-0.018,-0.061,-0.022,-0.056,-1.561,0.051,0.366,105.5,114.5,40.533772,-3.432937,641.7,3,5,277.7,4.219
106.61,1,0.032,0.014,-0.058,-0.018,-0.003,-0.031,-1.557,0.054,0.368,105.5,114.5,40.533772,-3.432937,641.7,3,5,277.7,4.219
106.71,1,0.031,-0.016,-0.06,0.019,-0.008,-0.061,-1.55,0.058,0.369,105.5,114.5,40.533772,-3.432937,641.7,3,5,277.7,4.219
106.81,1,-0.027,0.017,-0.059,-0.0,0.002,-0.057,-1.548,0.057,0.37,105.5,114.5,40.533772,-3.432937,641.7,3,5,277.7,4.219
106.91,1,-0.014,0.054,-0.025,-0.015,0.026,-0.045,-1.545,0.053,0.371,105.5,114.5,40.533772,-3.432937,641.7,3,5,277.7,4.219
107.01,1,0.039,0.038,-0.046,0.009,0.037,-0.037,-1.541,0.052,0.372,106.5,113.0,40.533806,-3.433296,643.1,3,5,275.6,3.867
107.11,1,0.029,0.071,-0.04,0.027,0.054,-0.041,-1.536,0.049,0.371,106.5,113.0,40.533806,-3.433296,643.1,3,5,275.6,3.867
107.21,1,-0.009,0.045,-0.032,0.013,0.055,-0.04,-1.533,0.046,0.371,106.5,113.0,40.533806,-3.433296,643.1,3,5,275.6,3.867
107.31,1,-0.051,0.017,-0.042,-0.019,0.038,-0.036,-1.53,0.043,0.371,106.5,113.0,40.533806,-3.433296,643.1,3,5,275.6,3.867
107.42,1,-0.063,0.053,-0.017,-0.042,0.036,-0.029,-1.527,0.036,0.37,106.5,113.0,40.533806,-3.433296,643.1,3,5,275.6,3.867
107.52,1,-0.024,0.062,-0.037,-0.043,0.051,-0.034,-1.526,0.029,0.369,106.5,113.0,40.533806,-3.433296,643.1,3,5,275.6,3.867
107.61,1,-0.034,0.075,-0.033,-0.034,0.067,-0.033,-1.524,0.023,0.367,106.5,113.0,40.533806,-3.433296,643.1,3,5,275.6,3.867
107.71,1,0.003,0.063,-0.013,-0.018,0.065,-0.026,-1.523,0.021,0.367,106.5,113.0,40.533806,-3.433296,643.1,3,5,275.6,3.867
107.81,1,-0.035,0.02,0.003,-0.02,0.042,-0.009,-1.524,0.021,0.366,106.5,113.0,40.533806,-3.433296,643.1,3,5,275.6,3.867
107.91,1,0.037,0.007,-0.01,0.004,0.027,-0.005,-1.522,0.021,0.366,106.5,113.0,40.533806,-3.433296,643.1,3,5,275.6,3.867
108.01,1,-0.027,-0.026,-0.018,0.005,0.001,-0.01,-1.52,0.02,0.366,107.49,113.0,40.533806,-3.433296,643.1,3,5,275.6,3.867
108.12,1,-0.065,0.003,0.008,-0.042,-0.007,-0.008,-1.522,0.02,0.366,107.49,113.0,40.533806,-3.433296,643.1,3,5,275.6,3.867
108.21,1,-0.037,0.006,0.06,-0.047,0.004,0.024,-1.526,0.02,0.367,107.49,113.0,40.533806,-3.433296,643.1,3,5,275.6,3.867
108.32,1,0.023,-0.016,0.024,-0.014,-0.0,0.032,-1.529,0.023,0.369,107.49,113.0,40.533806,-3.433296,643.1,3,5,275.6,3.867
108.41,1,0.009,-0.045,0.029,0.006,-0.023,0.029,-1.53,0.029,0.37,107.49,113.0,40.533806,-3.433296,643.1,3,5,275.6,3.867
108.52,1,-0.024,-0.04,0.042,-0.01,-0.042,0.033,-1.534,0.034,0.37,107.49,113.0,40.533806,-3.433296,643.1,3,5,275.6,3.867
108.62,1,-0.023,0.008,0.046,-0.012,-0.018,0.041,-1.537,0.035,0.37,107.49,113.0,40.533806,-3.433296,643.1,3,5,275.6,3.867
108.72,1,-0.037,0.0,0.042,-0.027,-0.005,0.046,-1.541,0.033,0.371,107.49,113.0,40.533806,-3.433296,643.1,3,5,275.6,3.867
108.82,1,-0.015,0.04,0.048,-0.023,0.014,0.041,-1.545,0.03,0.371,107.49,113.0,40.533806,-3.433296,643.1,3,5,275.6,3.867
108.91,1,0.02,0.081,0.055,-0.009,0.049,0.048,-1.55,0.026,0.369,107.49,113.0,40.533806,-3.433296,643.1,3,5,275.6,3.867
109.01,1,0.002,0.052,0.044,0.003,0.056,0.05,-1.556,0.024,0.368,108.55,107.2,40.533836,-3.434008,645.4,3,5,272.8,2.812
109.12,1,-0.058,0.028,0.02,-0.018,0.05,0.039,-1.562,0.023,0.367,108.55,107.2,40.533836,-3.434008,645.4,3,5,272.8,2.812
109.22,1,-0.052,0.002,0.108,-0.051,0.027,0.059,-1.567,0.026,0.366,108.55,107.2,40.533836,-3.434008,645.4,3,5,272.8,2.812
109.33,1,0.068,-0.027,0.081,0.004,-0.009,0.085,-1.565,0.029,0.367,108.55,107.2,40.533836,-3.434008,645.4,3,5,272.8,2.812
109.43,1,0.023,-0.02,0.022,0.027,-0.012,0.049,-1.563,0.03,0.368,108.55,107.2,40.533836,-3.434008,645.4,3,5,272.8,2.812
109.52,1,0.023,-0.018,0.08,0.021,-0.018,0.061,-1.563,0.03,0.369,108.55,107.2,40.533836,-3.434008,645.4,3,5,272.8,2.812
109.62,1,-0.023,0.015,0.077,0.009,-0.009,0.075,-1.567,0.029,0.368,108.55,107.2,40.533836,-3.434008,645.4,3,5,272.8,2.812
109.72,1,-0.035,0.033,0.057,-0.019,0.011,0.066,-1.573,0.027,0.368,108.55,107.2,40.533836,-3.434008,645.4,3,5,272.8,2.812
109.82,1,-0.028,0.05,0.057,-0.031,0.043,0.057,-1.577,0.023,0.367,108.55,107.2,40.533836,-3.434008,645.4,3,5,272.8,2.812
109.93,1,0.002,0.028,0.051,-0.015,0.034,0.056,-1.582,0.022,0.367,108.55,107.2,40.533836,-3.434008,645.4,3,5,272.8,2.812
110.02,1,-0.004,0.031,0.043,-0.003,0.032,0.051,-1.587,0.02,0.366,109.5,107.2,40.533852,-3.43436,646.2,3,5,272.5,1.406
110.12,1,-0.013,0.02,0.043,-0.014,0.027,0.041,-1.591,0.021,0.365,109.5,107.2,40.533852,-3.43436,646.2,3,5,272.5,1.406
110.22,1,-0.019,0.007,0.046,-0.017,0.012,0.049,-1.596,0.022,0.364,109.5,107.2,40.533852,-3.43436,646.2,3,5,272.5,1.406
110.32,1,0.009,0.015,0.038,-0.003,0.016,0.039,-1.599,0.022,0.364,109.5,107.2,40.533852,-3.43436,646.2,3,5,272.5,1.406
110.43,1,0.034,0.015,0.03,0.014,0.017,0.041,-1.602,0.027,0.363,109.5,107.2,40.533852,-3.43436,646.2,3,5,272.5,1.406
110.52,1,0.011,0.024,0.02,0.023,0.015,0.028,-1.605,0.029,0.362,109.5,107.2,40.533852,-3.43436,646.2,3,5,272.5,1.406
110.62,1,-0.051,0.054,-0.007,-0.01,0.027,0.01,-1.605,0.025,0.36,109.5,107.2,40.533852,-3.43436,646.2,3,5,272.5,1.406
110.72,1,-0.061,0.065,-0.007,-0.045,0.056,-0.0,-1.605,0.024,0.358,109.5,107.2,40.533852,-3.43436,646.2,3,5,272.5,1.406
110.82,1,-0.041,0.058,0.011,-0.048,0.06,0.002,-1.605,0.024,0.357,109.5,107.2,40.533852,-3.43436,646.2,3,5,272.5,1.406
110.92,1,0.036,0.036,0.02,-0.012,0.051,0.013,-1.604,0.021,0.356,109.5,107.2,40.533852,-3.43436,646.2,3,5,272.5,1.406
111.03,1,-0.011,0.042,0.017,0.005,0.042,0.014,-1.604,0.019,0.355,110.5,107.2,40.533852,-3.43436,646.2,3,5,272.5,1.406
111.13,1,0.024,0.046,0.046,-0.002,0.049,0.026,-1.607,0.02,0.353,110.5,107.2,40.533852,-3.43436,646.2,3,5,272.5,1.406
111.22,1,0.049,0.025,0.026,0.036,0.035,0.039,-1.608,0.019,0.352,110.5,107.2,40.533852,-3.43436,646.2,3,5,272.5,1.406
111.32,1,-0.087,0.044,-0.016,-0.004,0.036,0.007,-1.609,0.016,0.35,110.5,107.2,40.533852,-3.43436,646.2,3,5,272.5,1.406
111.42,1,-0.083,0.041,0.06,-0.068,0.039,0.02,-1.613,0.014,0.347,110.5,107.2,40.533852,-3.43436,646.2,3,5,272.5,1.406
111.52,1,-0.016,-0.009,0.043,-0.05,0.022,0.044,-1.616,0.012,0.346,110.5,107.2,40.533852,-3.43436,646.2,3,5,272.5,1.406
111.62,1,0.012,0.002,-0.009,-0.017,0.003,0.021,-1.615,0.014,0.345,110.5,107.2,40.533852,-3.43436,646.2,3,5,272.5,1.406
111.72,1,0.008,0.024,0.021,0.006,0.013,0.017,-1.615,0.012,0.344,110.5,107.2,40.533852,-3.43436,646.2,3,5,272.5,1.406
111.83,1,-0.021,0.025,0.013,-0.01,0.024,0.012,-1.618,0.012,0.342,110.5,107.2,40.533852,-3.43436,646.2,3,5,272.5,1.406
111.92,1,-0.018,0.029,0.004,-0.015,0.022,0.014,-1.62,0.01,0.339,110.5,107.2,40.533852,-3.43436,646.2,3,5,272.5,1.406
112.02,1,0.016,0.032,0.009,-0.002,0.029,0.007,-1.62,0.009,0.337,111.53,109.7,40.533852,-3.435077,649.6,3,5,270.0,2.109
112.12,1,-0.013,0.011,0.021,-0.004,0.025,0.015,-1.622,0.009,0.335,111.53,109.7,40.533852,-3.435077,649.6,3,5,270.0,2.109
112.22,1,-0.017,0.041,0.004,-0.012,0.024,0.013,-1.623,0.007,0.333,111.53,109.7,40.533852,-3.435077,649.6,3,5,270.0,2.109
112.32,1,-0.014,0.041,-0.009,-0.005,0.038,0.003,-1.621,0.005,0.33,111.53,109.7,40.533852,-3.435077,649.6,3,5,270.0,2.109
112.43,1,-0.048,0.012,-0.045,-0.032,0.028,-0.023,-1.619,0.003,0.328,111.53,109.7,40.533852,-3.435077,649.6,3,5,270.0,2.109
112.53,1,0.021,0.033,-0.028,-0.016,0.024,-0.031,-1.616,0.003,0.325,111.53,109.7,40.533852,-3.435077,649.6,3,5,270.0,2.109
112.63,1,0.018,0.001,-0.022,0.013,0.017,-0.021,-1.616,0.004,0.323,111.53,109.7,40.533852,-3.435077,649.6,3,5,270.0,2.109
112.72,1,-0.036,-0.02,-0.029,-0.006,0.003,-0.033,-1.614,0.004,0.322,111.53,109.7,40.533852,-3.435077,649.6,3,5,270.0,2.109
112.83,1,-0.019,-0.024,-0.016,-0.031,-0.014,-0.025,-1.617,0.003,0.32,111.53,109.7,40.533852,-3.435077,649.6,3,5,270.0,2.109
112.93,1,-0.036,0.018,-0.0,-0.012,-0.005,-0.005,-1.618,0.005,0.319,111.53,109.7,40.533852,-3.435077,649.6,3,5,270.0,2.109
113.03,1,-0.031,0.033,0.008,-0.034,0.013,-0.004,-1.618,0.003,0.317,112.52,110.7,40.533852,-3.435443,650.7,3,5,270.0,2.461
113.13,1,0.017,0.01,0.002,-0.011,0.016,0.004,-1.618,0.002,0.314,112.52,110.7,40.533852,-3.435443,650.7,3,5,270.0,2.461
113.23,1,-0.021,0.022,-0.006,-0.01,0.02,-0.003,-1.62,0.003,0.312,112.52,110.7,40.533852,-3.435443,650.7,3,5,270.0,2.461
113.33,1,0.019,-0.001,0.013,-0.0,0.012,0.004,-1.62,0.004,0.311,112.52,110.7,40.533852,-3.435443,650.7,3,5,270.0,2.461
113.43,1,0.009,-0.028,0.008,0.011,-0.005,0.007,-1.622,0.008,0.31,112.52,110.7,40.533852,-3.435443,650.7,3,5,270.0,2.461
113.54,1,-0.033,-0.052,0.004,-0.015,-0.034,0.007,-1.621,0.01,0.309,112.52,110.7,40.533852,-3.435443,650.7,3,5,270.0,2.461
113.64,1,0.001,-0.015,0.016,-0.008,-0.031,0.008,-1.623,0.012,0.307,112.52,110.7,40.533852,-3.435443,650.7,3,5,270.0,2.461
113.75,1,-0.036,0.01,0.012,-0.015,-0.007,0.011,-1.622,0.01,0.304,112.52,110.7,40.533852,-3.435443,650.7,3,5,270.0,2.461
113.83,1,-0.028,0.023,-0.006,-0.033,0.006,0.008,-1.621,0.01,0.302,112.52,110.7,40.533852,-3.435443,650.7,3,5,270.0,2.461
113.93,1,-0.045,0.032,-0.035,-0.029,0.02,-0.013,-1.62,0.011,0.3,112.52,110.7,40.533852,-3.435443,650.7,3,5,270.0,2.461
114.03,1,0.005,0.037,-0.042,-0.026,0.029,-0.03,-1.615,0.01,0.297,113.49,110.4,40.533855,-3.435788,652.3,3,5,269.6,0.703
114.14,1,-0.013,0.001,-0.083,-0.005,0.019,-0.053,-1.61,0.01,0.295,113.49,110.4,40.533855,-3.435788,652.3,3,5,269.6,0.703
114.23,1,-0.029,0.006,-0.068,-0.019,0.01,-0.069,-1.604,0.009,0.292,113.49,110.4,40.533855,-3.435788,652.3,3,5,269.6,0.703
114.33,1,-0.052,0.01,-0.082,-0.039,0.007,-0.073,-1.598,0.011,0.291,113.49,110.4,40.533855,-3.435788,652.3,3,5,269.6,0.703
114.43,1,-0.012,-0.037,-0.062,-0.035,-0.005,-0.073,-1.591,0.011,0.289,113.49,110.4,40.533855,-3.435788,652.3,3,5,269.6,0.703
114.53,1,0.005,-0.031,-0.078,-0.011,-0.025,-0.067,-1.585,0.016,0.288,113.49,110.4,40.533855,-3.435788,652.3,3,5,269.6,0.703
114.63,1,-0.039,-0.006,-0.062,-0.017,-0.018,-0.073,-1.578,0.018,0.287,113.49,110.4,40.533855,-3.435788,652.3,3,5,269.6,0.703
114.73,1,-0.003,-0.019,-0.036,-0.024,-0.019,-0.055,-1.576,0.016,0.285,113.49,110.4,40.533855,-3.435788,652.3,3,5,269.6,0.703
114.83,1,0.026,0.005,-0.045,0.012,-0.003,-0.046,-1.571,0.011,0.282,113.49,110.4,40.533855,-3.435788,652.3,3,5,269.6,0.703
114.94,1,0.028,-0.004,-0.06,0.019,-0.003,-0.05,-1.566,0.009,0.281,113.49,110.4,40.533855,-3.435788,652.3,3,5,269.6,0.703
115.03,1,0.018,-0.004,-0.048,0.021,-0.005,-0.052,-1.561,0.006,0.278,114.53,111.2,40.533855,-3.436157,653.7,3,5,269.6,0.352
115.13,1,-0.048,0.002,-0.049,-0.004,-0.001,-0.05,-1.559,0.006,0.277,114.53,111.2,40.533855,-3.436157,653.7,3,5,269.6,0.352
115.23,1,-0.045,0.004,-0.027,-0.035,0.001,-0.038,-1.557,0.004,0.274,114.53,111.2,40.533855,-3.436157,653.7,3,5,269.6,0.352
115.34,1,0.04,0.0,-0.023,-0.008,0.0,-0.032,-1.553,0.001,0.272,114.53,111.2,40.533855,-3.436157,653.7,3,5,269.6,0.352
115.44,1,0.033,-0.013,-0.037,0.023,-0.005,-0.031,-1.549,-0.001,0.269,114.53,111.2,40.533855,-3.436157,653.7,3,5,269.6,0.352
115.63,1,-0.013,-0.001,-0.027,0.003,0.003,-0.033,-1.544,-0.008,0.264,114.53,111.2,40.533855,-3.436157,653.7,3,5,269.6,0.352
115.74,1,-0.024,-0.033,-0.016,-0.012,-0.009,-0.024,-1.541,-0.008,0.263,114.53,111.2,40.533855,-3.436157,653.7,3,5,269.6,0.352
115.83,1,-0.018,-0.012,-0.024,-0.017,-0.02,-0.022,-1.539,-0.008,0.261,114.53,111.2,40.533855,-3.436157,653.7,3,5,269.6,0.352
115.94,1,-0.013,-0.026,-0.027,-0.013,-0.021,-0.026,-1.538,-0.008,0.259,114.53,111.2,40.533855,-3.436157,653.7,3,5,269.6,0.352
116.03,1,-0.015,-0.02,-0.021,-0.014,-0.026,-0.023,-1.537,-0.004,0.258,114.53,111.2,40.533855,-3.436157,653.7,3,5,269.6,0.352
116.13,1,-0.006,-0.048,0.005,-0.016,-0.027,-0.017,-1.537,-0.002,0.258,115.52,111.2,40.533855,-3.436157,653.7,3,5,269.6,0.352
116.23,1,0.027,-0.024,-0.007,0.009,-0.033,-0.004,-1.538,0.002,0.257,115.52,111.2,40.533855,-3.436157,653.7,3,5,269.6,0.352
116.33,1,-0.017,-0.012,-0.005,0.006,-0.026,-0.006,-1.539,0.001,0.254,115.52,111.2,40.533855,-3.436157,653.7,3,5,269.6,0.352
116.43,1,-0.056,-0.008,0.027,-0.023,-0.017,0.009,-1.543,-0.001,0.251,115.52,111.2,40.533855,-3.436157,653.7,3,5,269.6,0.352
116.54,1,-0.089,-0.0,0.023,-0.065,-0.008,0.019,-1.547,-0.004,0.249,115.52,111.2,40.533855,-3.436157,653.7,3,5,269.6,0.352
116.64,1,-0.002,0.007,0.047,-0.046,0.001,0.031,-1.551,-0.01,0.247,115.52,111.2,40.533855,-3.436157,653.7,3,5,269.6,0.352
116.75,1,0.031,-0.027,0.05,-0.006,-0.009,0.045,-1.554,-0.008,0.245,115.52,111.2,40.533855,-3.436157,653.7,3,5,269.6,0.352
116.85,1,0.083,-0.024,0.04,0.041,-0.013,0.039,-1.553,-0.008,0.243,115.52,111.2,40.533855,-3.436157,653.7,3,5,269.6,0.352
