Timestamp_Accel,SystemActivated,accelerometerXAxis,accelerometerYAxis,accelerometerZAxis,AccelX_KF,AccelY_KF,AccelZ_KF,gyroscopeXAxis,gyroscopeYAxis,gyroscopeZAxis,Timestamp_GPS,Speed,latitude,longitude,Altitude,VerticalAccuracy,HorizontalAccuracy,Course,Difcourse
22.99,1,-0.025,0.014,0.026,-0.013,0.022,0.024,-1.619,0.001,-1.126,22.97,64.0,40.505798,-3.356529,604.8,3,5,274.9,0.703
23.09,1,-0.049,0.041,0.008,-0.038,0.013,0.011,-1.62,-0.001,-1.127,22.97,64.0,40.505798,-3.356529,604.8,3,5,274.9,0.703
23.2,1,-0.032,-0.004,0.016,-0.035,0.021,0.015,-1.62,-0.001,-1.128,22.97,64.0,40.505798,-3.356529,604.8,3,5,274.9,0.703
23.29,1,-0.04,0.022,-0.02,-0.031,0.014,0.004,-1.62,-0.0,-1.128,22.97,64.0,40.505798,-3.356529,604.8,3,5,274.9,0.703
23.4,1,-0.036,-0.023,0.011,-0.042,-0.005,-0.003,-1.62,-0.002,-1.128,22.97,64.0,40.505798,-3.356529,604.8,3,5,274.9,0.703
23.5,1,-0.005,-0.003,0.047,-0.025,0.001,0.023,-1.622,-0.002,-1.129,22.97,64.0,40.505798,-3.356529,604.8,3,5,274.9,0.703
23.6,1,0.029,-0.006,0.019,0.005,-0.002,0.026,-1.623,-0.001,-1.128,22.97,64.0,40.505798,-3.356529,604.8,3,5,274.9,0.703
23.7,1,0.017,-0.05,0.009,0.013,-0.026,0.018,-1.623,0.005,-1.126,22.97,64.0,40.505798,-3.356529,604.8,3,5,274.9,0.703
23.8,1,-0.009,-0.049,0.026,0.011,-0.04,0.02,-1.624,0.012,-1.124,22.97,64.0,40.505798,-3.356529,604.8,3,5,274.9,0.703
23.9,1,-0.041,-0.025,0.042,-0.019,-0.04,0.03,-1.628,0.018,-1.122,22.97,64.0,40.505798,-3.356529,604.8,3,5,274.9,0.703
24.01,1,-0.022,-0.015,0.048,-0.027,-0.023,0.037,-1.632,0.019,-1.12,23.96,67.5,40.505814,-3.356752,605.0,3,5,275.6,0.703
24.1,1,-0.002,0.005,0.042,-0.017,-0.011,0.045,-1.635,0.023,-1.117,23.96,67.5,40.505814,-3.356752,605.0,3,5,275.6,0.703
24.2,1,0.003,-0.006,0.032,-0.001,-0.004,0.04,-1.639,0.026,-1.115,23.96,67.5,40.505814,-3.356752,605.0,3,5,275.6,0.703
24.3,1,-0.04,-0.019,0.029,-0.018,-0.009,0.033,-1.643,0.028,-1.112,23.96,67.5,40.505814,-3.356752,605.0,3,5,275.6,0.703
24.4,1,-0.005,-0.032,0.055,-0.015,-0.022,0.039,-1.65,0.032,-1.109,23.96,67.5,40.505814,-3.356752,605.0,3,5,275.6,0.703
24.5,1,-0.004,-0.05,0.041,-0.012,-0.036,0.045,-1.655,0.036,-1.107,23.96,67.5,40.505814,-3.356752,605.0,3,5,275.6,0.703
24.61,1,0.009,-0.008,0.004,0.0,-0.031,0.026,-1.657,0.038,-1.105,23.96,67.5,40.505814,-3.356752,605.0,3,5,275.6,0.703
24.71,1,-0.005,-0.006,0.034,0.003,-0.014,0.023,-1.658,0.037,-1.103,23.96,67.5,40.505814,-3.356752,605.0,3,5,275.6,0.703
24.8,1,-0.065,0.011,0.033,-0.03,-0.002,0.032,-1.662,0.037,-1.101,23.96,67.5,40.505814,-3.356752,605.0,3,5,275.6,0.703
24.9,1,-0.062,0.001,0.016,-0.052,0.002,0.023,-1.664,0.038,-1.1,23.96,67.5,40.505814,-3.356752,605.0,3,5,275.6,0.703
25.0,1,-0.04,-0.0,0.028,-0.049,-0.003,0.021,-1.666,0.036,-1.099,24.98,72.4,40.505833,-3.356981,605.2,3,5,274.6,1.055
25.1,1,-0.024,0.03,0.04,-0.035,0.014,0.032,-1.668,0.031,-1.098,24.98,72.4,40.505833,-3.356981,605.2,3,5,274.6,1.055
25.2,1,0.004,0.016,0.036,-0.018,0.021,0.039,-1.668,0.029,-1.098,24.98,72.4,40.505833,-3.356981,605.2,3,5,274.6,1.055
25.3,1,-0.015,-0.002,0.017,-0.009,0.01,0.029,-1.668,0.027,-1.096,24.98,72.4,40.505833,-3.356981,605.2,3,5,274.6,1.055
25.4,1,0.019,0.005,0.028,0.003,0.001,0.024,-1.672,0.028,-1.095,24.98,72.4,40.505833,-3.356981,605.2,3,5,274.6,1.055
25.5,1,-0.006,0.005,0.032,0.002,0.012,0.028,-1.674,0.026,-1.094,24.98,72.4,40.505833,-3.356981,605.2,3,5,274.6,1.055
25.61,1,-0.029,0.028,0.006,-0.017,0.014,0.023,-1.675,0.027,-1.093,24.98,72.4,40.505833,-3.356981,605.2,3,5,274.6,1.055
25.7,1,-0.013,0.034,-0.009,-0.018,0.021,0.003,-1.673,0.025,-1.092,24.98,72.4,40.505833,-3.356981,605.2,3,5,274.6,1.055
25.81,1,0.018,0.009,0.029,-0.003,0.02,0.011,-1.673,0.025,-1.091,24.98,72.4,40.505833,-3.356981,605.2,3,5,274.6,1.055
25.91,1,0.033,-0.001,0.013,0.017,0.01,0.02,-1.674,0.027,-1.09,24.98,72.4,40.505833,-3.356981,605.2,3,5,274.6,1.055
26.0,1,0.009,0.026,-0.007,0.019,0.015,0.005,-1.672,0.025,-1.089,25.97,76.8,40.505848,-3.357232,605.3,3,5,274.6,1.055
26.11,1,-0.015,0.014,0.009,0.002,0.015,0.004,-1.673,0.023,-1.089,25.97,76.8,40.505848,-3.357232,605.3,3,5,274.6,1.055
26.2,1,-0.036,-0.005,0.012,-0.016,0.008,0.01,-1.674,0.023,-1.088,25.97,76.8,40.505848,-3.357232,605.3,3,5,274.6,1.055
26.31,1,-0.064,-0.013,-0.009,-0.04,-0.004,0.003,-1.675,0.025,-1.087,25.97,76.8,40.505848,-3.357232,605.3,3,5,274.6,1.055
26.41,1,-0.052,-0.001,0.008,-0.053,-0.006,-0.003,-1.676,0.023,-1.086,25.97,76.8,40.505848,-3.357232,605.3,3,5,274.6,1.055
26.5,1,-0.006,0.021,0.02,-0.033,0.01,0.01,-1.678,0.021,-1.086,25.97,76.8,40.505848,-3.357232,605.3,3,5,274.6,1.055
26.6,1,0.013,0.01,0.0,-0.008,0.011,0.01,-1.678,0.02,-1.086,25.97,76.8,40.505848,-3.357232,605.3,3,5,274.6,1.055
26.71,1,0.003,0.009,-0.014,0.001,0.009,-0.003,-1.676,0.018,-1.086,25.97,76.8,40.505848,-3.357232,605.3,3,5,274.6,1.055
26.81,1,-0.049,0.017,-0.009,-0.018,0.009,-0.008,-1.676,0.016,-1.087,25.97,76.8,40.505848,-3.357232,605.3,3,5,274.6,1.055
26.91,1,-0.123,0.01,0.027,-0.057,0.019,0.004,-1.68,0.016,-1.087,25.97,76.8,40.505848,-3.357232,605.3,3,5,274.6,1.055
27.01,1,-0.01,-0.004,0.016,-0.072,-0.001,0.019,-1.681,0.014,-1.087,26.96,80.9,40.505867,-3.357494,606.0,3,5,274.6,0.0
27.11,1,0.013,-0.038,0.007,-0.019,-0.012,0.013,-1.68,0.013,-1.087,26.96,80.9,40.505867,-3.357494,606.0,3,5,274.6,0.0
27.21,1,0.02,0.03,-0.017,0.01,0.002,-0.003,-1.679,0.01,-1.088,26.96,80.9,40.505867,-3.357494,606.0,3,5,274.6,0.0
27.31,1,-0.016,0.067,0.013,-0.001,0.034,0.0,-1.679,0.009,-1.088,26.96,80.9,40.505867,-3.357494,606.0,3,5,274.6,0.0
27.41,1,-0.02,0.038,0.023,-0.01,0.041,0.012,-1.679,0.006,-1.088,26.96,80.9,40.505867,-3.357494,606.0,3,5,274.6,0.0
27.51,1,-0.009,0.009,-0.012,-0.017,0.028,0.004,-1.68,0.005,-1.088,26.96,80.9,40.505867,-3.357494,606.0,3,5,274.6,0.0
27.61,1,-0.008,0.024,0.003,-0.008,0.02,0.002,-1.68,0.005,-1.09,26.96,80.9,40.505867,-3.357494,606.0,3,5,274.6,0.0
27.71,1,-0.032,0.04,-0.009,-0.022,0.032,-0.005,-1.68,0.004,-1.091,26.96,80.9,40.505867,-3.357494,606.0,3,5,274.6,0.0
27.81,1,-0.018,0.043,0.006,-0.021,0.035,-0.0,-1.679,0.001,-1.093,26.96,80.9,40.505867,-3.357494,606.0,3,5,274.6,0.0
27.91,1,-0.028,0.062,-0.04,-0.014,0.059,-0.012,-1.678,-0.004,-1.094,26.96,80.9,40.505867,-3.357494,606.0,3,5,274.6,0.0
28.01,1,0.014,0.061,0.023,-0.016,0.054,-0.009,-1.677,-0.002,-1.094,27.97,84.2,40.505886,-3.357765,606.3,3,5,274.2,0.352
28.11,1,-0.015,0.019,-0.012,-0.008,0.035,0.005,-1.675,0.001,-1.094,27.97,84.2,40.505886,-3.357765,606.3,3,5,274.2,0.352
28.22,1,-0.009,0.041,-0.037,-0.002,0.042,-0.026,-1.675,0.005,-1.095,27.97,84.2,40.505886,-3.357765,606.3,3,5,274.2,0.352
28.32,1,-0.01,-0.004,0.017,-0.019,0.021,-0.003,-1.675,0.007,-1.095,27.97,84.2,40.505886,-3.357765,606.3,3,5,274.2,0.352
28.41,1,-0.018,-0.004,-0.114,-0.009,0.004,-0.041,-1.665,0.007,-1.097,27.97,84.2,40.505886,-3.357765,606.3,3,5,274.2,0.352
28.51,1,-0.029,0.017,-0.156,-0.012,0.007,-0.105,-1.661,0.005,-1.098,27.97,84.2,40.505886,-3.357765,606.3,3,5,274.2,0.352
28.61,1,-0.018,0.045,-0.111,-0.032,0.027,-0.13,-1.659,0.001,-1.099,27.97,84.2,40.505886,-3.357765,606.3,3,5,274.2,0.352
28.71,1,-0.027,0.04,-0.082,-0.023,0.03,-0.098,-1.648,0.0,-1.099,27.97,84.2,40.505886,-3.357765,606.3,3,5,274.2,0.352
28.82,1,0.062,-0.005,-0.12,0.009,0.012,-0.107,-1.638,-0.003,-1.099,27.97,84.2,40.505886,-3.357765,606.3,3,5,274.2,0.352
28.91,1,0.022,-0.015,-0.094,0.033,0.01,-0.102,-1.624,-0.005,-1.099,27.97,84.2,40.505886,-3.357765,606.3,3,5,274.2,0.352
29.01,1,-0.084,-0.018,-0.092,-0.021,-0.011,-0.098,-1.612,-0.01,-1.099,28.96,87.9,40.505905,-3.35805,605.9,3,5,275.6,1.406
29.11,1,-0.044,0.004,-0.044,-0.041,-0.008,-0.074,-1.609,-0.011,-1.1,28.96,87.9,40.505905,-3.35805,605.9,3,5,275.6,1.406
29.21,1,-0.066,0.015,-0.065,-0.056,0.007,-0.062,-1.602,-0.012,-1.1,28.96,87.9,40.505905,-3.35805,605.9,3,5,275.6,1.406
29.32,1,-0.019,0.007,-0.061,-0.041,0.004,-0.061,-1.596,-0.01,-1.1,28.96,87.9,40.505905,-3.35805,605.9,3,5,275.6,1.406
29.41,1,-0.025,0.026,-0.073,-0.03,0.018,-0.068,-1.593,-0.009,-1.101,28.96,87.9,40.505905,-3.35805,605.9,3,5,275.6,1.406
29.52,1,0.001,0.031,-0.088,-0.014,0.026,-0.076,-1.59,-0.008,-1.102,28.96,87.9,40.505905,-3.35805,605.9,3,5,275.6,1.406
29.61,1,-0.052,0.007,-0.084,-0.028,0.019,-0.083,-1.58,-0.008,-1.102,28.96,87.9,40.505905,-3.35805,605.9,3,5,275.6,1.406
29.71,1,0.005,-0.013,0.003,-0.026,-0.002,-0.049,-1.576,-0.007,-1.102,28.96,87.9,40.505905,-3.35805,605.9,3,5,275.6,1.406
29.81,1,0.033,0.01,-0.014,0.012,0.005,-0.013,-1.575,-0.008,-1.103,28.96,87.9,40.505905,-3.35805,605.9,3,5,275.6,1.406
29.92,1,-0.009,0.019,-0.023,0.013,0.012,-0.026,-1.575,-0.008,-1.104,28.96,87.9,40.505905,-3.35805,605.9,3,5,275.6,1.406
30.02,1,-0.034,-0.006,0.013,-0.019,0.003,-0.009,-1.577,-0.008,-1.104,30.01,87.0,40.505932,-3.358337,605.6,3,5,276.0,1.758
30.12,1,-0.025,-0.002,0.017,-0.027,0.005,0.008,-1.579,-0.011,-1.104,30.01,87.0,40.505932,-3.358337,605.6,3,5,276.0,1.758
30.22,1,0.006,-0.011,0.021,-0.01,0.0,0.011,-1.579,-0.013,-1.104,30.01,87.0,40.505932,-3.358337,605.6,3,5,276.0,1.758
30.32,1,-0.027,-0.043,0.035,-0.01,-0.028,0.027,-1.584,-0.007,-1.102,30.01,87.0,40.505932,-3.358337,605.6,3,5,276.0,1.758
30.42,1,0.006,-0.041,0.01,-0.01,-0.036,0.019,-1.586,-0.005,-1.101,30.01,87.0,40.505932,-3.358337,605.6,3,5,276.0,1.758
30.53,1,-0.019,-0.037,0.025,-0.008,-0.036,0.022,-1.586,-0.006,-1.1,30.01,87.0,40.505932,-3.358337,605.6,3,5,276.0,1.758
30.62,1,-0.039,-0.036,0.024,-0.023,-0.035,0.023,-1.589,-0.003,-1.099,30.01,87.0,40.505932,-3.358337,605.6,3,5,276.0,1.758
30.73,1,-0.014,-0.035,0.037,-0.023,-0.035,0.028,-1.593,0.002,-1.096,30.01,87.0,40.505932,-3.358337,605.6,3,5,276.0,1.758
30.82,1,-0.03,-0.058,0.021,-0.025,-0.047,0.03,-1.594,0.008,-1.093,30.01,87.0,40.505932,-3.358337,605.6,3,5,276.0,1.758
30.92,1,-0.028,-0.076,0.017,-0.027,-0.061,0.022,-1.597,0.01,-1.09,30.01,87.0,40.505932,-3.358337,605.6,3,5,276.0,1.758
31.02,1,-0.023,-0.048,0.022,-0.029,-0.058,0.021,-1.599,0.013,-1.088,30.98,88.7,40.505947,-3.358623,605.2,3,5,276.0,0.352
31.12,1,-0.014,-0.008,0.03,-0.015,-0.04,0.026,-1.603,0.015,-1.086,30.98,88.7,40.505947,-3.358623,605.2,3,5,276.0,0.352
31.22,1,-0.029,-0.002,0.013,-0.02,-0.01,0.02,-1.603,0.01,-1.085,30.98,88.7,40.505947,-3.358623,605.2,3,5,276.0,0.352
31.33,1,-0.028,-0.003,0.039,-0.03,-0.006,0.022,-1.606,0.009,-1.083,30.98,88.7,40.505947,-3.358623,605.2,3,5,276.0,0.352
31.42,1,-0.027,-0.024,0.016,-0.026,-0.012,0.03,-1.61,0.012,-1.081,30.98,88.7,40.505947,-3.358623,605.2,3,5,276.0,0.352
31.52,1,0.019,-0.014,0.039,-0.014,-0.02,0.023,-1.61,0.017,-1.079,30.98,88.7,40.505947,-3.358623,605.2,3,5,276.0,0.352
31.62,1,0.016,-0.012,-0.019,0.014,-0.012,0.019,-1.611,0.021,-1.077,30.98,88.7,40.505947,-3.358623,605.2,3,5,276.0,0.352
31.72,1,-0.052,-0.018,-0.013,-0.018,-0.017,-0.014,-1.611,0.018,-1.077,30.98,88.7,40.505947,-3.358623,605.2,3,5,276.0,0.352
31.82,1,-0.029,0.013,-0.005,-0.026,-0.001,-0.005,-1.611,0.015,-1.075,30.98,88.7,40.505947,-3.358623,605.2,3,5,276.0,0.352
31.93,1,-0.046,-0.006,-0.064,-0.035,-0.0,-0.028,-1.607,0.015,-1.073,30.98,88.7,40.505947,-3.358623,605.2,3,5,276.0,0.352
32.12,1,-0.048,-0.043,-0.069,-0.029,-0.025,-0.057,-1.598,0.019,-1.069,31.97,90.7,40.505962,-3.358915,604.8,3,5,274.2,1.758
32.23,1,-0.022,-0.046,-0.046,-0.027,-0.037,-0.058,-1.594,0.022,-1.067,31.97,90.7,40.505962,-3.358915,604.8,3,5,274.2,1.758
32.33,1,0.007,0.001,-0.072,-0.017,-0.021,-0.058,-1.588,0.022,-1.064,31.97,90.7,40.505962,-3.358915,604.8,3,5,274.2,1.758
32.42,1,-0.053,-0.017,-0.069,-0.025,-0.021,-0.071,-1.582,0.02,-1.062,31.97,90.7,40.505962,-3.358915,604.8,3,5,274.2,1.758
32.53,1,-0.024,-0.017,-0.04,-0.031,-0.017,-0.054,-1.58,0.021,-1.06,31.97,90.7,40.505962,-3.358915,604.8,3,5,274.2,1.758
32.62,1,0.001,-0.019,-0.052,-0.016,-0.021,-0.05,-1.575,0.025,-1.058,31.97,90.7,40.505962,-3.358915,604.8,3,5,274.2,1.758
32.72,1,0.017,-0.003,-0.036,-0.001,-0.011,-0.047,-1.57,0.028,-1.057,31.97,90.7,40.505962,-3.358915,604.8,3,5,274.2,1.758
32.82,1,0.025,0.022,-0.036,0.015,0.004,-0.036,-1.566,0.024,-1.055,31.97,90.7,40.505962,-3.358915,604.8,3,5,274.2,1.758
32.92,1,0.001,0.009,-0.039,0.021,0.013,-0.04,-1.561,0.022,-1.053,31.97,90.7,40.505962,-3.358915,604.8,3,5,274.2,1.758
33.03,1,-0.051,0.005,-0.068,-0.021,0.009,-0.051,-1.558,0.023,-1.051,31.97,90.7,40.505962,-3.358915,604.8,3,5,274.2,1.758
33.13,1,-0.045,-0.03,-0.022,-0.037,-0.008,-0.042,-1.555,0.026,-1.049,32.98,89.6,40.505978,-3.359208,604.5,3,5,273.9,2.109
33.22,1,-0.008,-0.005,-0.026,-0.031,-0.013,-0.029,-1.554,0.027,-1.048,32.98,89.6,40.505978,-3.359208,604.5,3,5,273.9,2.109
33.32,1,0.001,-0.003,-0.046,-0.011,-0.006,-0.038,-1.55,0.024,-1.046,32.98,89.6,40.505978,-3.359208,604.5,3,5,273.9,2.109
33.43,1,-0.024,-0.021,-0.034,-0.009,-0.011,-0.036,-1.548,0.023,-1.044,32.98,89.6,40.505978,-3.359208,604.5,3,5,273.9,2.109
33.53,1,-0.015,-0.01,-0.043,-0.018,-0.016,-0.038,-1.543,0.022,-1.042,32.98,89.6,40.505978,-3.359208,604.5,3,5,273.9,2.109
33.63,1,-0.048,-0.001,-0.035,-0.032,-0.002,-0.039,-1.541,0.024,-1.039,32.98,89.6,40.505978,-3.359208,604.5,3,5,273.9,2.109
33.74,1,-0.024,-0.003,-0.013,-0.032,-0.005,-0.026,-1.542,0.027,-1.036,32.98,89.6,40.505978,-3.359208,604.5,3,5,273.9,2.109
33.84,1,-0.022,-0.028,-0.023,-0.025,-0.015,-0.022,-1.539,0.03,-1.034,32.98,89.6,40.505978,-3.359208,604.5,3,5,273.9,2.109
33.93,1,-0.016,-0.027,-0.034,-0.022,-0.024,-0.027,-1.537,0.034,-1.031,32.98,89.6,40.505978,-3.359208,604.5,3,5,273.9,2.109
34.03,1,-0.003,-0.01,-0.006,-0.013,-0.022,-0.018,-1.536,0.036,-1.029,32.98,89.6,40.505978,-3.359208,604.5,3,5,273.9,2.109
34.13,1,-0.0,-0.004,-0.031,-0.002,-0.011,-0.021,-1.534,0.035,-1.026,33.95,89.1,40.505989,-3.359499,604.9,3,5,272.8,1.406
34.23,1,-0.014,-0.017,-0.034,-0.011,-0.008,-0.031,-1.53,0.037,-1.024,33.95,89.1,40.505989,-3.359499,604.9,3,5,272.8,1.406
34.33,1,0.008,-0.015,0.013,-0.002,-0.014,-0.012,-1.53,0.041,-1.021,33.95,89.1,40.505989,-3.359499,604.9,3,5,272.8,1.406
34.43,1,-0.004,-0.022,-0.049,0.005,-0.015,-0.022,-1.529,0.044,-1.017,33.95,89.1,40.505989,-3.359499,604.9,3,5,272.8,1.406
34.53,1,0.005,-0.033,-0.009,-0.004,-0.027,-0.024,-1.527,0.047,-1.013,33.95,89.1,40.505989,-3.359499,604.9,3,5,272.8,1.406
34.63,1,-0.011,-0.018,-0.021,-0.002,-0.023,-0.019,-1.527,0.049,-1.009,33.95,89.1,40.505989,-3.359499,604.9,3,5,272.8,1.406
34.73,1,-0.052,-0.062,-0.015,-0.024,-0.034,-0.019,-1.527,0.049,-1.006,33.95,89.1,40.505989,-3.359499,604.9,3,5,272.8,1.406
34.84,1,0.026,-0.027,0.013,-0.015,-0.043,-0.001,-1.527,0.047,-1.002,33.95,89.1,40.505989,-3.359499,604.9,3,5,272.8,1.406
34.95,1,0.007,-0.006,-0.008,0.016,-0.022,-0.002,-1.526,0.049,-0.998,33.95,89.1,40.505989,-3.359499,604.9,3,5,272.8,1.406
35.03,1,-0.077,-0.033,-0.032,-0.04,-0.024,-0.022,-1.526,0.051,-0.994,33.95,89.1,40.505989,-3.359499,604.9,3,5,272.8,1.406
35.13,1,-0.019,-0.032,0.048,-0.037,-0.03,0.005,-1.531,0.052,-0.99,34.97,86.6,40.505997,-3.35979,605.0,3,5,270.7,3.164
35.23,1,-0.034,-0.011,-0.004,-0.024,-0.022,0.019,-1.534,0.053,-0.986,34.97,86.6,40.505997,-3.35979,605.0,3,5,270.7,3.164
35.33,1,-0.029,-0.036,0.003,-0.032,-0.028,-0.001,-1.534,0.053,-0.981,34.97,86.6,40.505997,-3.35979,605.0,3,5,270.7,3.164
35.43,1,-0.005,-0.029,0.022,-0.023,-0.03,0.009,-1.54,0.053,-0.977,34.97,86.6,40.505997,-3.35979,605.0,3,5,270.7,3.164
35.53,1,-0.001,0.025,-0.003,-0.009,-0.007,0.014,-1.542,0.053,-0.974,34.97,86.6,40.505997,-3.35979,605.0,3,5,270.7,3.164
35.63,1,-0.043,0.02,0.013,-0.015,0.008,0.006,-1.543,0.052,-0.972,34.97,86.6,40.505997,-3.35979,605.0,3,5,270.7,3.164
35.73,1,-0.01,0.027,0.023,-0.023,0.023,0.016,-1.544,0.052,-0.969,34.97,86.6,40.505997,-3.35979,605.0,3,5,270.7,3.164
35.83,1,0.007,0.019,0.002,-0.004,0.023,0.014,-1.547,0.053,-0.967,34.97,86.6,40.505997,-3.35979,605.0,3,5,270.7,3.164
35.93,1,-0.026,0.029,-0.007,-0.013,0.025,-0.001,-1.547,0.051,-0.964,34.97,86.6,40.505997,-3.35979,605.0,3,5,270.7,3.164
36.03,1,-0.056,0.023,0.011,-0.033,0.024,0.006,-1.55,0.049,-0.962,34.97,86.6,40.505997,-3.35979,605.0,3,5,270.7,3.164
36.13,1,-0.069,0.029,-0.001,-0.054,0.026,0.004,-1.551,0.046,-0.96,35.96,85.9,40.505997,-3.360076,605.1,3,5,268.9,3.867
36.24,1,-0.04,0.004,0.01,-0.057,0.021,0.001,-1.555,0.043,-0.957,35.96,85.9,40.505997,-3.360076,605.1,3,5,268.9,3.867
36.33,1,-0.019,0.029,0.004,-0.034,0.017,0.009,-1.558,0.04,-0.955,35.96,85.9,40.505997,-3.360076,605.1,3,5,268.9,3.867
36.43,1,0.001,0.02,0.004,-0.013,0.022,0.002,-1.557,0.041,-0.953,35.96,85.9,40.505997,-3.360076,605.1,3,5,268.9,3.867
36.53,1,-0.053,0.002,-0.015,-0.027,0.014,-0.003,-1.559,0.041,-0.95,35.96,85.9,40.505997,-3.360076,605.1,3,5,268.9,3.867
36.64,1,-0.007,0.018,0.015,-0.024,0.005,0.001,-1.559,0.04,-0.948,35.96,85.9,40.505997,-3.360076,605.1,3,5,268.9,3.867
36.74,1,-0.019,0.024,-0.034,-0.015,0.021,-0.007,-1.558,0.039,-0.946,35.96,85.9,40.505997,-3.360076,605.1,3,5,268.9,3.867
36.84,1,-0.01,0.037,-0.014,-0.02,0.027,-0.025,-1.556,0.036,-0.945,35.96,85.9,40.505997,-3.360076,605.1,3,5,268.9,3.867
36.94,1,-0.015,0.053,-0.009,-0.015,0.04,-0.004,-1.555,0.032,-0.944,35.96,85.9,40.505997,-3.360076,605.1,3,5,268.9,3.867
37.04,1,-0.028,0.045,-0.053,-0.019,0.038,-0.035,-1.553,0.031,-0.943,35.96,85.9,40.505997,-3.360076,605.1,3,5,268.9,3.867
37.14,1,-0.033,0.026,0.01,-0.026,0.045,-0.017,-1.553,0.031,-0.942,36.96,85.9,40.505997,-3.360076,605.1,3,5,268.9,3.867
37.25,1,0.055,0.026,-0.021,0.005,0.031,-0.008,-1.552,0.03,-0.941,36.96,85.9,40.505997,-3.360076,605.1,3,5,268.9,3.867
37.34,1,-0.007,-0.01,-0.024,0.016,0.005,-0.02,-1.551,0.026,-0.941,36.96,85.9,40.505997,-3.360076,605.1,3,5,268.9,3.867
37.44,1,-0.088,0.071,-0.025,-0.034,0.035,-0.023,-1.55,0.012,-0.94,36.96,85.9,40.505997,-3.360076,605.1,3,5,268.9,3.867
37.54,1,-0.097,0.043,-0.029,-0.079,0.052,-0.03,-1.553,0.01,-0.939,36.96,85.9,40.505997,-3.360076,605.1,3,5,268.9,3.867
37.64,1,-0.062,0.007,0.009,-0.078,0.031,-0.014,-1.556,0.01,-0.937,36.96,85.9,40.505997,-3.360076,605.1,3,5,268.9,3.867
37.74,1,-0.014,-0.018,-0.026,-0.046,-0.003,-0.01,-1.554,0.014,-0.935,36.96,85.9,40.505997,-3.360076,605.1,3,5,268.9,3.867
37.85,1,0.028,0.004,0.019,-0.008,0.001,-0.006,-1.554,0.014,-0.933,36.96,85.9,40.505997,-3.360076,605.1,3,5,268.9,3.867
37.94,1,0.048,0.03,-0.01,0.026,0.012,0.004,-1.551,0.013,-0.932,36.96,85.9,40.505997,-3.360076,605.1,3,5,268.9,3.867
38.04,1,-0.02,0.013,-0.016,0.016,0.017,-0.013,-1.548,0.012,-0.93,36.96,85.9,40.505997,-3.360076,605.1,3,5,268.9,3.867
38.14,1,-0.04,0.022,0.021,-0.019,0.018,0.001,-1.549,0.012,-0.929,37.95,84.0,40.50597,-3.360651,605.5,3,5,267.2,1.758
38.24,1,-0.019,-0.004,0.017,-0.026,0.013,0.015,-1.55,0.012,-0.927,37.95,84.0,40.50597,-3.360651,605.5,3,5,267.2,1.758
38.34,1,-0.022,-0.018,-0.005,-0.021,-0.004,0.008,-1.55,0.013,-0.925,37.95,84.0,40.50597,-3.360651,605.5,3,5,267.2,1.758
38.44,1,-0.001,-0.015,-0.006,-0.013,-0.014,-0.001,-1.548,0.012,-0.923,37.95,84.0,40.50597,-3.360651,605.5,3,5,267.2,1.758
38.54,1,-0.013,-0.009,-0.008,-0.008,-0.008,-0.004,-1.548,0.012,-0.921,37.95,84.0,40.50597,-3.360651,605.5,3,5,267.2,1.758
38.65,1,-0.007,0.001,-0.008,-0.012,-0.005,-0.01,-1.546,0.012,-0.919,37.95,84.0,40.50597,-3.360651,605.5,3,5,267.2,1.758
38.74,1,-0.014,0.002,-0.006,-0.011,-0.003,-0.005,-1.545,0.011,-0.917,37.95,84.0,40.50597,-3.360651,605.5,3,5,267.2,1.758
38.84,1,0.007,-0.007,-0.008,-0.008,-0.004,-0.008,-1.544,0.012,-0.915,37.95,84.0,40.50597,-3.360651,605.5,3,5,267.2,1.758
38.94,1,0.021,-0.002,0.006,0.011,-0.004,-0.003,-1.545,0.013,-0.913,37.95,84.0,40.50597,-3.360651,605.5,3,5,267.2,1.758
39.05,1,-0.0,0.005,0.008,0.011,0.001,0.008,-1.545,0.011,-0.911,37.95,84.0,40.50597,-3.360651,605.5,3,5,267.2,1.758
39.14,1,-0.032,-0.037,-0.026,-0.012,-0.014,-0.01,-1.544,0.011,-0.908,38.94,82.5,40.505951,-3.360924,606.1,4,5,265.8,1.406
39.25,1,0.008,-0.006,0.05,-0.01,-0.02,0.008,-1.547,0.011,-0.905,38.94,82.5,40.505951,-3.360924,606.1,4,5,265.8,1.406
39.34,1,-0.014,-0.011,-0.001,-0.009,-0.019,0.019,-1.547,0.011,-0.902,38.94,82.5,40.505951,-3.360924,606.1,4,5,265.8,1.406
39.44,1,-0.028,-0.023,-0.029,-0.016,-0.009,-0.011,-1.547,0.008,-0.899,38.94,82.5,40.505951,-3.360924,606.1,4,5,265.8,1.406
39.55,1,-0.047,0.004,0.051,-0.034,-0.007,0.013,-1.551,0.008,-0.896,38.94,82.5,40.505951,-3.360924,606.1,4,5,265.8,1.406
39.64,1,0.019,-0.024,0.028,-0.015,-0.015,0.03,-1.552,0.009,-0.892,38.94,82.5,40.505951,-3.360924,606.1,4,5,265.8,1.406
39.74,1,-0.001,-0.047,-0.011,0.008,-0.025,0.012,-1.548,0.016,-0.888,38.94,82.5,40.505951,-3.360924,606.1,4,5,265.8,1.406
39.85,1,-0.024,-0.054,0.018,-0.014,-0.043,0.005,-1.55,0.023,-0.884,38.94,82.5,40.505951,-3.360924,606.1,4,5,265.8,1.406
39.94,1,-0.002,-0.047,0.023,-0.013,-0.046,0.016,-1.551,0.026,-0.88,38.94,82.5,40.505951,-3.360924,606.1,4,5,265.8,1.406
40.05,1,-0.001,-0.026,0.025,-0.001,-0.04,0.022,-1.552,0.026,-0.876,38.94,82.5,40.505951,-3.360924,606.1,4,5,265.8,1.406
40.15,1,-0.043,0.007,0.032,-0.022,-0.02,0.025,-1.555,0.026,-0.872,39.98,82.9,40.505928,-3.361189,606.5,4,5,263.0,4.219
40.25,1,-0.041,-0.01,0.035,-0.032,-0.007,0.035,-1.557,0.026,-0.868,39.98,82.9,40.505928,-3.361189,606.5,4,5,263.0,4.219
40.35,1,-0.01,-0.027,0.011,-0.031,-0.012,0.026,-1.56,0.029,-0.864,39.98,82.9,40.505928,-3.361189,606.5,4,5,263.0,4.219
40.45,1,0.03,-0.025,0.061,0.006,-0.018,0.036,-1.561,0.033,-0.86,39.98,82.9,40.505928,-3.361189,606.5,4,5,263.0,4.219
40.55,1,0.005,-0.017,0.023,0.009,-0.025,0.037,-1.563,0.037,-0.856,39.98,82.9,40.505928,-3.361189,606.5,4,5,263.0,4.219
40.65,1,-0.017,0.003,0.061,0.001,-0.013,0.042,-1.563,0.036,-0.853,39.98,82.9,40.505928,-3.361189,606.5,4,5,263.0,4.219
40.75,1,0.001,0.039,0.0,0.001,0.003,0.032,-1.562,0.037,-0.85,39.98,82.9,40.505928,-3.361189,606.5,4,5,263.0,4.219
40.85,1,-0.039,0.014,0.055,-0.03,0.023,0.027,-1.564,0.039,-0.845,39.98,82.9,40.505928,-3.361189,606.5,4,5,263.0,4.219
40.95,1,-0.039,0.009,0.059,-0.032,0.026,0.052,-1.566,0.043,-0.841,39.98,82.9,40.505928,-3.361189,606.5,4,5,263.0,4.219
41.06,1,-0.043,-0.03,0.03,-0.036,-0.005,0.044,-1.566,0.045,-0.838,39.98,82.9,40.505928,-3.361189,606.5,4,5,263.0,4.219
41.15,1,0.015,-0.03,0.026,-0.015,-0.028,0.032,-1.571,0.048,-0.835,40.94,82.9,40.505898,-3.361455,607.1,4,5,261.2,4.57
41.25,1,0.003,0.049,0.069,-0.004,0.0,0.044,-1.574,0.04,-0.833,40.94,82.9,40.505898,-3.361455,607.1,4,5,261.2,4.57
41.35,1,0.022,0.071,0.058,0.007,0.043,0.058,-1.574,0.035,-0.831,40.94,82.9,40.505898,-3.361455,607.1,4,5,261.2,4.57
41.45,1,0.011,0.066,0.021,0.018,0.066,0.04,-1.572,0.034,-0.83,40.94,82.9,40.505898,-3.361455,607.1,4,5,261.2,4.57
41.55,1,-0.01,0.048,0.042,0.002,0.055,0.037,-1.575,0.031,-0.828,40.94,82.9,40.505898,-3.361455,607.1,4,5,261.2,4.57
41.65,1,-0.022,0.028,0.033,-0.012,0.043,0.039,-1.582,0.027,-0.826,40.94,82.9,40.505898,-3.361455,607.1,4,5,261.2,4.57
41.75,1,-0.006,0.006,0.028,-0.009,0.024,0.037,-1.586,0.025,-0.824,40.94,82.9,40.505898,-3.361455,607.1,4,5,261.2,4.57
41.85,1,-0.009,0.019,0.008,-0.008,0.017,0.023,-1.587,0.019,-0.822,40.94,82.9,40.505898,-3.361455,607.1,4,5,261.2,4.57
41.95,1,-0.029,0.04,0.01,-0.019,0.025,0.014,-1.586,0.012,-0.821,40.94,82.9,40.505898,-3.361455,607.1,4,5,261.2,4.57
42.15,1,-0.007,0.034,-0.016,-0.028,0.035,-0.012,-1.587,0.003,-0.819,40.94,82.9,40.505898,-3.361455,607.1,4,5,261.2,4.57
42.25,1,0.001,0.029,-0.031,-0.008,0.032,-0.018,-1.582,0.001,-0.818,41.96,83.4,40.505859,-3.361729,607.3,6,5,259.8,3.164
42.35,1,0.006,0.051,-0.036,0.001,0.037,-0.03,-1.578,-0.003,-0.817,41.96,83.4,40.505859,-3.361729,607.3,6,5,259.8,3.164
42.45,1,-0.014,0.037,-0.035,-0.008,0.042,-0.034,-1.575,-0.006,-0.816,41.96,83.4,40.505859,-3.361729,607.3,6,5,259.8,3.164
42.55,1,-0.015,0.033,-0.022,-0.014,0.038,-0.027,-1.573,-0.009,-0.816,41.96,83.4,40.505859,-3.361729,607.3,6,5,259.8,3.164
42.65,1,0.016,0.012,-0.025,0.005,0.027,-0.026,-1.569,-0.012,-0.815,41.96,83.4,40.505859,-3.361729,607.3,6,5,259.8,3.164
42.76,1,0.035,0.034,-0.043,0.02,0.022,-0.032,-1.566,-0.017,-0.816,41.96,83.4,40.505859,-3.361729,607.3,6,5,259.8,3.164
42.85,1,-0.016,0.064,-0.045,0.009,0.048,-0.044,-1.562,-0.02,-0.816,41.96,83.4,40.505859,-3.361729,607.3,6,5,259.8,3.164
42.96,1,-0.045,0.056,-0.006,-0.02,0.051,-0.026,-1.562,-0.024,-0.817,41.96,83.4,40.505859,-3.361729,607.3,6,5,259.8,3.164
43.05,1,-0.02,0.018,-0.007,-0.028,0.038,-0.011,-1.561,-0.026,-0.817,41.96,83.4,40.505859,-3.361729,607.3,6,5,259.8,3.164
43.15,1,0.02,0.025,-0.015,-0.007,0.026,-0.014,-1.56,-0.028,-0.816,41.96,83.4,40.505859,-3.361729,607.3,6,5,259.8,3.164
43.25,1,0.005,0.006,-0.019,0.009,0.017,-0.017,-1.558,-0.027,-0.816,43.01,82.7,40.505825,-3.36199,607.9,4,5,258.8,2.461
43.35,1,-0.042,-0.02,-0.014,-0.019,0.004,-0.022,-1.556,-0.027,-0.814,43.01,82.7,40.505825,-3.36199,607.9,4,5,258.8,2.461
43.46,1,-0.039,-0.018,0.03,-0.034,-0.013,0.007,-1.558,-0.024,-0.812,43.01,82.7,40.505825,-3.36199,607.9,4,5,258.8,2.461
43.56,1,0.038,-0.045,0.021,0.003,-0.029,0.019,-1.557,-0.025,-0.81,43.01,82.7,40.505825,-3.36199,607.9,4,5,258.8,2.461
43.66,1,0.043,0.003,-0.019,0.026,-0.017,0.004,-1.557,-0.028,-0.809,43.01,82.7,40.505825,-3.36199,607.9,4,5,258.8,2.461
43.76,1,-0.003,0.001,-0.007,0.017,-0.005,-0.005,-1.557,-0.029,-0.807,43.01,82.7,40.505825,-3.36199,607.9,4,5,258.8,2.461
43.86,1,-0.063,0.012,0.005,-0.025,0.001,-0.007,-1.556,-0.031,-0.806,43.01,82.7,40.505825,-3.36199,607.9,4,5,258.8,2.461
43.96,1,-0.029,-0.019,0.037,-0.035,-0.001,0.018,-1.559,-0.029,-0.804,43.01,82.7,40.505825,-3.36199,607.9,4,5,258.8,2.461
44.06,1,0.023,-0.022,-0.004,-0.009,-0.013,0.013,-1.558,-0.027,-0.803,43.01,82.7,40.505825,-3.36199,607.9,4,5,258.8,2.461
44.16,1,0.043,-0.018,-0.009,0.022,-0.019,-0.002,-1.555,-0.026,-0.802,43.01,82.7,40.505825,-3.36199,607.9,4,5,258.8,2.461
44.26,1,-0.021,0.014,0.013,0.008,-0.002,0.002,-1.554,-0.027,-0.801,43.95,82.2,40.505783,-3.362255,608.5,4,5,258.0,1.758
44.36,1,-0.03,0.028,0.021,-0.011,0.009,0.015,-1.559,-0.028,-0.801,43.95,82.2,40.505783,-3.362255,608.5,4,5,258.0,1.758
44.46,1,-0.015,0.019,0.013,-0.023,0.021,0.019,-1.56,-0.031,-0.8,43.95,82.2,40.505783,-3.362255,608.5,4,5,258.0,1.758
44.56,1,0.023,-0.004,-0.009,-0.005,0.006,0.003,-1.562,-0.031,-0.799,43.95,82.2,40.505783,-3.362255,608.5,4,5,258.0,1.758
44.66,1,0.01,-0.015,-0.003,0.017,-0.003,-0.001,-1.561,-0.027,-0.798,43.95,82.2,40.505783,-3.362255,608.5,4,5,258.0,1.758
44.76,1,-0.01,0.008,0.012,-0.003,0.003,-0.0,-1.561,-0.026,-0.797,43.95,82.2,40.505783,-3.362255,608.5,4,5,258.0,1.758
44.86,1,0.002,-0.002,0.05,-0.008,0.003,0.027,-1.561,-0.027,-0.796,43.95,82.2,40.505783,-3.362255,608.5,4,5,258.0,1.758
44.96,1,0.018,0.003,0.001,0.018,-0.003,0.019,-1.562,-0.028,-0.795,43.95,82.2,40.505783,-3.362255,608.5,4,5,258.0,1.758
45.06,1,-0.033,0.022,0.02,-0.005,0.01,0.018,-1.566,-0.029,-0.795,43.95,82.2,40.505783,-3.362255,608.5,4,5,258.0,1.758
45.16,1,-0.033,0.006,0.029,-0.028,0.013,0.023,-1.571,-0.029,-0.794,43.95,82.2,40.505783,-3.362255,608.5,4,5,258.0,1.758
45.26,1,0.019,0.004,0.034,-0.01,0.006,0.027,-1.575,-0.027,-0.793,44.95,81.7,40.505733,-3.362507,609.2,4,5,257.0,1.758
45.36,1,0.033,-0.004,0.016,0.017,-0.001,0.027,-1.576,-0.024,-0.792,44.95,81.7,40.505733,-3.362507,609.2,4,5,257.0,1.758
45.46,1,0.023,-0.009,-0.006,0.025,-0.004,0.007,-1.576,-0.024,-0.791,44.95,81.7,40.505733,-3.362507,609.2,4,5,257.0,1.758
45.56,1,-0.014,0.016,0.015,0.009,0.005,0.007,-1.576,-0.024,-0.79,44.95,81.7,40.505733,-3.362507,609.2,4,5,257.0,1.758
45.66,1,-0.05,0.006,0.015,-0.023,0.007,0.01,-1.578,-0.023,-0.789,44.95,81.7,40.505733,-3.362507,609.2,4,5,257.0,1.758
45.76,1,-0.003,-0.005,0.026,-0.024,0.005,0.022,-1.581,-0.021,-0.788,44.95,81.7,40.505733,-3.362507,609.2,4,5,257.0,1.758
45.86,1,0.025,-0.01,-0.003,0.004,-0.008,0.015,-1.581,-0.021,-0.787,44.95,81.7,40.505733,-3.362507,609.2,4,5,257.0,1.758
45.96,1,-0.011,-0.023,0.004,0.005,-0.012,0.001,-1.581,-0.022,-0.786,44.95,81.7,40.505733,-3.362507,609.2,4,5,257.0,1.758
46.06,1,0.001,-0.002,0.034,-0.002,-0.01,0.018,-1.585,-0.022,-0.785,44.95,81.7,40.505733,-3.362507,609.2,4,5,257.0,1.758
46.16,1,0.009,-0.006,0.02,0.001,-0.007,0.02,-1.586,-0.019,-0.783,44.95,81.7,40.505733,-3.362507,609.2,4,5,257.0,1.758
46.26,1,-0.024,-0.023,0.002,-0.002,-0.013,0.015,-1.586,-0.016,-0.781,45.96,82.0,40.505684,-3.362758,609.5,4,5,255.6,2.461
46.36,1,-0.028,-0.027,-0.002,-0.023,-0.02,-0.0,-1.585,-0.011,-0.779,45.96,82.0,40.505684,-3.362758,609.5,4,5,255.6,2.461
46.46,1,0.016,-0.027,0.027,-0.006,-0.024,0.013,-1.587,-0.007,-0.778,45.96,82.0,40.505684,-3.362758,609.5,4,5,255.6,2.461
46.57,1,0.007,-0.014,0.012,0.001,-0.023,0.018,-1.589,-0.004,-0.776,45.96,82.0,40.505684,-3.362758,609.5,4,5,255.6,2.461
46.66,1,0.027,-0.008,0.003,0.014,-0.013,0.009,-1.588,-0.002,-0.774,45.96,82.0,40.505684,-3.362758,609.5,4,5,255.6,2.461
46.76,1,-0.0,-0.001,0.006,0.015,-0.003,0.008,-1.587,-0.002,-0.773,45.96,82.0,40.505684,-3.362758,609.5,4,5,255.6,2.461
46.87,1,-0.05,-0.014,-0.01,-0.014,-0.01,-0.001,-1.587,-0.003,-0.771,45.96,82.0,40.505684,-3.362758,609.5,4,5,255.6,2.461
46.97,1,-0.017,0.01,0.007,-0.03,-0.007,0.0,-1.589,-0.002,-0.77,45.96,82.0,40.505684,-3.362758,609.5,4,5,255.6,2.461
47.07,1,-0.008,0.005,0.01,-0.016,0.004,0.007,-1.59,-0.002,-0.768,45.96,82.0,40.505684,-3.362758,609.5,4,5,255.6,2.461
47.17,1,-0.004,0.006,-0.007,-0.005,0.006,0.0,-1.592,-0.001,-0.767,45.96,82.0,40.505684,-3.362758,609.5,4,5,255.6,2.461
47.27,1,-0.02,0.027,0.029,-0.015,0.013,0.008,-1.592,-0.002,-0.765,46.95,82.8,40.50563,-3.363008,609.8,4,5,254.2,2.812
47.37,1,0.014,0.012,0.027,-0.007,0.018,0.023,-1.594,-0.004,-0.764,46.95,82.8,40.50563,-3.363008,609.8,4,5,254.2,2.812
47.47,1,-0.021,-0.013,-0.007,-0.001,0.004,0.012,-1.593,-0.003,-0.762,46.95,82.8,40.50563,-3.363008,609.8,4,5,254.2,2.812
47.57,1,-0.022,-0.004,-0.001,-0.017,-0.005,-0.002,-1.593,-0.003,-0.761,46.95,82.8,40.50563,-3.363008,609.8,4,5,254.2,2.812
47.67,1,-0.001,0.011,0.028,-0.016,0.003,0.016,-1.596,-0.004,-0.76,46.95,82.8,40.50563,-3.363008,609.8,4,5,254.2,2.812
47.78,1,0.023,0.035,0.012,0.006,0.019,0.016,-1.596,-0.006,-0.759,46.95,82.8,40.50563,-3.363008,609.8,4,5,254.2,2.812
47.87,1,-0.015,0.01,0.003,0.005,0.017,0.011,-1.597,-0.004,-0.758,46.95,82.8,40.50563,-3.363008,609.8,4,5,254.2,2.812
47.97,1,0.003,0.009,-0.0,-0.006,0.012,0.003,-1.598,-0.005,-0.757,46.95,82.8,40.50563,-3.363008,609.8,4,5,254.2,2.812
48.07,1,-0.002,0.025,0.012,0.003,0.02,0.008,-1.599,-0.005,-0.756,46.95,82.8,40.50563,-3.363008,609.8,4,5,254.2,2.812
48.17,1,-0.04,0.016,-0.017,-0.017,0.019,-0.003,-1.599,-0.004,-0.755,46.95,82.8,40.50563,-3.363008,609.8,4,5,254.2,2.812
48.28,1,-0.02,0.012,-0.014,-0.026,0.014,-0.008,-1.598,-0.004,-0.754,47.95,83.4,40.505569,-3.363267,610.3,4,5,252.8,2.812
48.37,1,0.009,0.006,-0.017,-0.009,0.01,-0.014,-1.595,-0.004,-0.753,47.95,83.4,40.505569,-3.363267,610.3,4,5,252.8,2.812
48.48,1,0.0,0.017,-0.026,-0.001,0.012,-0.018,-1.592,-0.004,-0.752,47.95,83.4,40.505569,-3.363267,610.3,4,5,252.8,2.812
48.58,1,-0.014,0.022,-0.032,-0.005,0.018,-0.027,-1.589,-0.005,-0.751,47.95,83.4,40.505569,-3.363267,610.3,4,5,252.8,2.812
48.67,1,0.011,0.015,-0.023,-0.003,0.019,-0.03,-1.589,-0.007,-0.75,47.95,83.4,40.505569,-3.363267,610.3,4,5,252.8,2.812
48.77,1,-0.021,0.025,-0.02,-0.004,0.017,-0.019,-1.588,-0.009,-0.749,47.95,83.4,40.505569,-3.363267,610.3,4,5,252.8,2.812
48.87,1,-0.015,0.025,-0.023,-0.012,0.023,-0.025,-1.585,-0.01,-0.748,47.95,83.4,40.505569,-3.363267,610.3,4,5,252.8,2.812
48.97,1,-0.03,0.048,0.001,-0.021,0.033,-0.014,-1.584,-0.013,-0.749,47.95,83.4,40.505569,-3.363267,610.3,4,5,252.8,2.812
49.07,1,-0.006,0.055,-0.002,-0.017,0.047,-0.005,-1.583,-0.018,-0.749,47.95,83.4,40.505569,-3.363267,610.3,4,5,252.8,2.812
49.17,1,-0.048,0.049,0.001,-0.023,0.051,-0.002,-1.585,-0.02,-0.75,47.95,83.4,40.505569,-3.363267,610.3,4,5,252.8,2.812
49.27,1,0.009,0.043,0.013,-0.023,0.047,0.006,-1.588,-0.023,-0.751,49.02,84.2,40.505512,-3.363521,610.7,4,5,251.4,2.812
49.37,1,0.045,0.035,0.034,0.018,0.041,0.017,-1.59,-0.024,-0.752,49.02,84.2,40.505512,-3.363521,610.7,4,5,251.4,2.812
49.48,1,-0.015,0.02,0.018,0.008,0.031,0.022,-1.591,-0.026,-0.752,49.02,84.2,40.505512,-3.363521,610.7,4,5,251.4,2.812
49.58,1,-0.018,0.027,0.024,-0.008,0.027,0.021,-1.593,-0.028,-0.753,49.02,84.2,40.505512,-3.363521,610.7,4,5,251.4,2.812
49.67,1,-0.046,0.035,0.025,-0.027,0.032,0.025,-1.597,-0.03,-0.754,49.02,84.2,40.505512,-3.363521,610.7,4,5,251.4,2.812
49.77,1,-0.0,0.035,0.048,-0.019,0.032,0.031,-1.6,-0.032,-0.755,49.02,84.2,40.505512,-3.363521,610.7,4,5,251.4,2.812
49.87,1,0.016,0.001,0.032,0.001,0.022,0.041,-1.601,-0.035,-0.755,49.02,84.2,40.505512,-3.363521,610.7,4,5,251.4,2.812
49.97,1,-0.016,0.004,0.022,-0.004,0.011,0.028,-1.602,-0.039,-0.756,49.02,84.2,40.505512,-3.363521,610.7,4,5,251.4,2.812
50.07,1,0.025,0.013,0.028,0.006,0.008,0.025,-1.605,-0.04,-0.757,49.02,84.2,40.505512,-3.363521,610.7,4,5,251.4,2.812
50.17,1,-0.019,0.015,0.013,0.004,0.012,0.024,-1.607,-0.041,-0.758,49.02,84.2,40.505512,-3.363521,610.7,4,5,251.4,2.812
50.27,1,-0.027,0.007,0.023,-0.018,0.013,0.019,-1.612,-0.043,-0.758,49.99,85.3,40.50544,-3.363786,610.8,4,5,251.0,1.758
50.38,1,-0.002,0.006,0.051,-0.02,0.008,0.036,-1.615,-0.043,-0.759,49.99,85.3,40.50544,-3.363786,610.8,4,5,251.0,1.758
50.48,1,0.009,0.014,0.007,0.001,0.008,0.027,-1.616,-0.044,-0.76,49.99,85.3,40.50544,-3.363786,610.8,4,5,251.0,1.758
50.58,1,-0.04,-0.012,0.016,-0.013,0.003,0.014,-1.618,-0.044,-0.76,49.99,85.3,40.50544,-3.363786,610.8,4,5,251.0,1.758
50.69,1,-0.003,-0.015,0.04,-0.017,-0.009,0.029,-1.622,-0.042,-0.76,49.99,85.3,40.50544,-3.363786,610.8,4,5,251.0,1.758
50.78,1,-0.017,-0.039,0.002,-0.01,-0.021,0.019,-1.622,-0.039,-0.758,49.99,85.3,40.50544,-3.363786,610.8,4,5,251.0,1.758
50.89,1,-0.02,-0.049,0.036,-0.02,-0.036,0.021,-1.623,-0.037,-0.757,49.99,85.3,40.50544,-3.363786,610.8,4,5,251.0,1.758
50.99,1,0.038,-0.044,0.01,0.009,-0.045,0.023,-1.624,-0.034,-0.755,49.99,85.3,40.50544,-3.363786,610.8,4,5,251.0,1.758
51.08,1,-0.006,-0.034,-0.004,0.011,-0.042,0.008,-1.624,-0.031,-0.754,49.99,85.3,40.50544,-3.363786,610.8,4,5,251.0,1.758
51.18,1,-0.02,-0.032,0.023,-0.012,-0.034,0.007,-1.627,-0.028,-0.753,49.99,85.3,40.50544,-3.363786,610.8,4,5,251.0,1.758
51.28,1,0.011,0.002,0.025,-0.001,-0.022,0.023,-1.63,-0.027,-0.751,51.0,87.4,40.505379,-3.364049,611.1,4,5,250.3,1.055
51.39,1,-0.011,-0.014,-0.004,-0.004,-0.012,0.01,-1.627,-0.026,-0.75,51.0,87.4,40.505379,-3.364049,611.1,4,5,250.3,1.055
51.48,1,-0.023,-0.013,0.003,-0.013,-0.011,0.004,-1.628,-0.024,-0.75,51.0,87.4,40.505379,-3.364049,611.1,4,5,250.3,1.055
51.58,1,0.01,-0.011,-0.001,-0.006,-0.014,0.006,-1.629,-0.025,-0.749,51.0,87.4,40.505379,-3.364049,611.1,4,5,250.3,1.055
51.68,1,-0.012,0.016,-0.008,-0.004,0.001,-0.004,-1.627,-0.027,-0.749,51.0,87.4,40.505379,-3.364049,611.1,4,5,250.3,1.055
51.78,1,-0.008,0.019,-0.011,-0.01,0.009,-0.01,-1.628,-0.028,-0.749,51.0,87.4,40.505379,-3.364049,611.1,4,5,250.3,1.055
51.88,1,-0.015,0.043,-0.007,-0.011,0.028,-0.008,-1.627,-0.032,-0.75,51.0,87.4,40.505379,-3.364049,611.1,4,5,250.3,1.055
52.09,1,-0.018,0.015,0.006,-0.026,0.025,0.0,-1.628,-0.036,-0.751,51.0,87.4,40.505379,-3.364049,611.1,4,5,250.3,1.055
52.18,1,0.014,0.011,-0.005,-0.007,0.019,-0.002,-1.626,-0.037,-0.752,51.0,87.4,40.505379,-3.364049,611.1,4,5,250.3,1.055
52.28,1,0.019,0.021,-0.032,0.009,0.018,-0.013,-1.624,-0.037,-0.753,51.0,87.4,40.505379,-3.364049,611.1,4,5,250.3,1.055
52.38,1,-0.007,0.028,-0.013,0.005,0.016,-0.018,-1.621,-0.041,-0.754,51.96,89.6,40.505306,-3.364311,613.6,4,5,249.3,1.758
52.48,1,-0.004,0.029,-0.02,-0.003,0.029,-0.017,-1.619,-0.044,-0.755,51.96,89.6,40.505306,-3.364311,613.6,4,5,249.3,1.758
52.59,1,-0.01,0.034,-0.029,-0.003,0.032,-0.022,-1.617,-0.047,-0.756,51.96,89.6,40.505306,-3.364311,613.6,4,5,249.3,1.758
52.68,1,-0.017,0.021,-0.02,-0.01,0.028,-0.025,-1.614,-0.047,-0.757,51.96,89.6,40.505306,-3.364311,613.6,4,5,249.3,1.758
52.79,1,-0.029,0.005,-0.025,-0.019,0.017,-0.022,-1.612,-0.047,-0.757,51.96,89.6,40.505306,-3.364311,613.6,4,5,249.3,1.758
52.88,1,-0.02,-0.01,-0.023,-0.025,0.002,-0.025,-1.61,-0.046,-0.758,51.96,89.6,40.505306,-3.364311,613.6,4,5,249.3,1.758
52.98,1,0.019,0.001,-0.053,-0.002,0.002,-0.033,-1.604,-0.046,-0.758,51.96,89.6,40.505306,-3.364311,613.6,4,5,249.3,1.758
53.08,1,0.004,0.003,-0.042,0.004,0.001,-0.043,-1.599,-0.045,-0.758,51.96,89.6,40.505306,-3.364311,613.6,4,5,249.3,1.758
53.18,1,-0.008,-0.0,-0.04,-0.001,0.001,-0.041,-1.595,-0.043,-0.758,51.96,89.6,40.505306,-3.364311,613.6,4,5,249.3,1.758
53.28,1,-0.005,-0.006,-0.033,-0.008,-0.001,-0.037,-1.591,-0.044,-0.758,51.96,89.6,40.505306,-3.364311,613.6,4,5,249.3,1.758
53.39,1,0.006,-0.011,-0.064,0.002,-0.009,-0.047,-1.586,-0.046,-0.758,52.95,90.5,40.50523,-3.364593,612.5,4,5,248.9,1.406
53.48,1,-0.019,-0.014,-0.04,-0.005,-0.01,-0.048,-1.581,-0.046,-0.758,52.95,90.5,40.50523,-3.364593,612.5,4,5,248.9,1.406
53.58,1,-0.047,-0.011,-0.045,-0.029,-0.012,-0.047,-1.579,-0.045,-0.757,52.95,90.5,40.50523,-3.364593,612.5,4,5,248.9,1.406
53.69,1,0.009,-0.012,-0.035,-0.021,-0.011,-0.039,-1.576,-0.042,-0.757,52.95,90.5,40.50523,-3.364593,612.5,4,5,248.9,1.406
53.79,1,0.019,0.008,-0.066,0.007,-0.004,-0.046,-1.572,-0.04,-0.757,52.95,90.5,40.50523,-3.364593,612.5,4,5,248.9,1.406
53.89,1,0.024,-0.0,-0.045,0.015,-0.002,-0.054,-1.568,-0.038,-0.757,52.95,90.5,40.50523,-3.364593,612.5,4,5,248.9,1.406
53.99,1,-0.012,-0.029,-0.072,0.01,-0.005,-0.057,-1.563,-0.036,-0.756,52.95,90.5,40.50523,-3.364593,612.5,4,5,248.9,1.406
54.09,1,-0.019,-0.025,-0.053,-0.008,-0.021,-0.058,-1.56,-0.033,-0.755,52.95,90.5,40.50523,-3.364593,612.5,4,5,248.9,1.406
54.19,1,-0.052,-0.043,-0.051,-0.033,-0.034,-0.058,-1.559,-0.03,-0.753,52.95,90.5,40.50523,-3.364593,612.5,4,5,248.9,1.406
54.29,1,-0.023,-0.042,-0.038,-0.032,-0.037,-0.047,-1.556,-0.025,-0.752,52.95,90.5,40.50523,-3.364593,612.5,4,5,248.9,1.406
54.39,1,0.06,0.006,-0.022,0.005,-0.021,-0.035,-1.552,-0.022,-0.75,53.96,90.7,40.505146,-3.364862,612.7,4,5,248.6,0.703
54.49,1,0.019,-0.004,-0.049,0.03,-0.012,-0.034,-1.548,-0.021,-0.749,53.96,90.7,40.505146,-3.364862,612.7,4,5,248.6,0.703
54.59,1,0.033,-0.021,-0.045,0.026,-0.01,-0.047,-1.543,-0.016,-0.747,53.96,90.7,40.505146,-3.364862,612.7,4,5,248.6,0.703
54.69,1,-0.035,-0.023,-0.032,0.004,-0.017,-0.038,-1.54,-0.011,-0.745,53.96,90.7,40.505146,-3.364862,612.7,4,5,248.6,0.703
54.79,1,-0.044,-0.057,-0.03,-0.027,-0.039,-0.035,-1.538,-0.007,-0.742,53.96,90.7,40.505146,-3.364862,612.7,4,5,248.6,0.703
54.89,1,-0.014,-0.063,-0.013,-0.024,-0.049,-0.025,-1.536,-0.003,-0.739,53.96,90.7,40.505146,-3.364862,612.7,4,5,248.6,0.703
55.0,1,-0.018,-0.065,-0.042,-0.019,-0.06,-0.028,-1.534,0.005,-0.735,53.96,90.7,40.505146,-3.364862,612.7,4,5,248.6,0.703
55.09,1,0.008,-0.095,-0.022,-0.003,-0.07,-0.031,-1.531,0.009,-0.73,53.96,90.7,40.505146,-3.364862,612.7,4,5,248.6,0.703
55.2,1,0.011,-0.063,-0.012,-0.002,-0.077,-0.02,-1.532,0.018,-0.725,53.96,90.7,40.505146,-3.364862,612.7,4,5,248.6,0.703
55.3,1,0.013,-0.075,-0.025,0.01,-0.076,-0.019,-1.529,0.025,-0.72,53.96,90.7,40.505146,-3.364862,612.7,4,5,248.6,0.703
55.39,1,-0.006,-0.064,-0.032,0.003,-0.066,-0.029,-1.526,0.031,-0.716,55.04,89.0,40.505062,-3.365135,612.6,3,5,246.8,2.109
55.49,1,-0.035,-0.054,-0.023,-0.009,-0.059,-0.023,-1.527,0.042,-0.71,55.04,89.0,40.505062,-3.365135,612.6,3,5,246.8,2.109
55.59,1,-0.02,-0.048,-0.02,-0.025,-0.057,-0.024,-1.525,0.048,-0.706,55.04,89.0,40.505062,-3.365135,612.6,3,5,246.8,2.109
55.69,1,-0.002,-0.037,0.005,-0.015,-0.047,-0.012,-1.525,0.051,-0.701,55.04,89.0,40.505062,-3.365135,612.6,3,5,246.8,2.109
55.8,1,-0.006,-0.014,-0.013,-0.004,-0.034,-0.007,-1.524,0.054,-0.697,55.04,89.0,40.505062,-3.365135,612.6,3,5,246.8,2.109
55.89,1,-0.008,0.012,-0.025,-0.011,-0.015,-0.018,-1.52,0.053,-0.693,55.04,89.0,40.505062,-3.365135,612.6,3,5,246.8,2.109
55.99,1,-0.038,0.01,-0.015,-0.015,0.006,-0.017,-1.52,0.051,-0.69,55.04,89.0,40.505062,-3.365135,612.6,3,5,246.8,2.109
56.09,1,-0.018,0.016,-0.003,-0.027,0.013,-0.013,-1.521,0.05,-0.688,55.04,89.0,40.505062,-3.365135,612.6,3,5,246.8,2.109
56.2,1,0.001,0.031,-0.004,-0.012,0.021,-0.004,-1.522,0.048,-0.685,55.04,89.0,40.505062,-3.365135,612.6,3,5,246.8,2.109
56.3,1,-0.01,0.025,-0.005,-0.003,0.022,-0.005,-1.521,0.047,-0.683,55.04,89.0,40.505062,-3.365135,612.6,3,5,246.8,2.109
56.39,1,-0.047,0.044,-0.012,-0.029,0.031,-0.009,-1.519,0.043,-0.681,55.95,87.0,40.504967,-3.365396,612.7,3,5,242.9,5.625
56.5,1,-0.024,0.049,-0.013,-0.028,0.043,-0.013,-1.519,0.04,-0.68,55.95,87.0,40.504967,-3.365396,612.7,3,5,242.9,5.625
56.59,1,0.013,0.038,-0.015,-0.011,0.047,-0.013,-1.519,0.039,-0.678,55.95,87.0,40.504967,-3.365396,612.7,3,5,242.9,5.625
56.69,1,0.011,0.036,-0.002,0.003,0.039,-0.006,-1.517,0.039,-0.676,55.95,87.0,40.504967,-3.365396,612.7,3,5,242.9,5.625
56.79,1,0.007,0.029,-0.025,0.009,0.028,-0.016,-1.514,0.039,-0.675,55.95,87.0,40.504967,-3.365396,612.7,3,5,242.9,5.625
56.9,1,0.016,0.017,0.015,0.005,0.027,-0.005,-1.514,0.039,-0.673,55.95,87.0,40.504967,-3.365396,612.7,3,5,242.9,5.625
57.0,1,0.041,0.024,-0.003,0.029,0.023,0.007,-1.515,0.038,-0.672,55.95,87.0,40.504967,-3.365396,612.7,3,5,242.9,5.625
57.1,1,-0.03,0.039,-0.031,0.007,0.03,-0.017,-1.513,0.035,-0.67,55.95,87.0,40.504967,-3.365396,612.7,3,5,242.9,5.625
57.19,1,-0.029,0.026,0.016,-0.02,0.03,-0.006,-1.513,0.033,-0.669,55.95,87.0,40.504967,-3.365396,612.7,3,5,242.9,5.625
57.3,1,-0.02,0.02,0.003,-0.022,0.03,0.006,-1.514,0.031,-0.667,55.95,87.0,40.504967,-3.365396,612.7,3,5,242.9,5.625
57.4,1,-0.003,0.003,-0.014,-0.018,0.013,-0.005,-1.512,0.031,-0.666,56.96,85.6,40.504871,-3.365645,612.7,3,5,240.8,5.977
57.5,1,-0.03,-0.017,-0.042,-0.018,-0.008,-0.027,-1.51,0.027,-0.665,56.96,85.6,40.504871,-3.365645,612.7,3,5,240.8,5.977
57.61,1,-0.025,0.044,-0.0,-0.019,0.019,-0.018,-1.512,0.022,-0.665,56.96,85.6,40.504871,-3.365645,612.7,3,5,240.8,5.977
57.7,1,-0.013,0.068,0.017,-0.022,0.038,0.004,-1.514,0.017,-0.665,56.96,85.6,40.504871,-3.365645,612.7,3,5,240.8,5.977
57.8,1,-0.006,0.042,-0.001,-0.01,0.052,0.006,-1.514,0.015,-0.665,56.96,85.6,40.504871,-3.365645,612.7,3,5,240.8,5.977
57.9,1,0.001,0.043,-0.003,-0.006,0.047,-0.002,-1.512,0.015,-0.665,56.96,85.6,40.504871,-3.365645,612.7,3,5,240.8,5.977
58.0,1,-0.021,0.023,0.002,-0.015,0.035,-0.001,-1.511,0.013,-0.666,56.96,85.6,40.504871,-3.365645,612.7,3,5,240.8,5.977
58.11,1,-0.04,0.046,0.027,-0.021,0.036,0.012,-1.513,0.012,-0.667,56.96,85.6,40.504871,-3.365645,612.7,3,5,240.8,5.977
58.2,1,-0.023,0.039,0.026,-0.03,0.037,0.021,-1.516,0.01,-0.667,56.96,85.6,40.504871,-3.365645,612.7,3,5,240.8,5.977
58.31,1,0.024,0.043,0.031,-0.006,0.042,0.027,-1.519,0.008,-0.668,56.96,85.6,40.504871,-3.365645,612.7,3,5,240.8,5.977
58.4,1,0.006,0.026,-0.022,0.009,0.033,0.004,-1.521,0.005,-0.669,57.95,83.6,40.504761,-3.365884,612.4,3,5,239.4,3.516
58.5,1,-0.063,0.029,-0.001,-0.02,0.031,-0.004,-1.521,0.001,-0.67,57.95,83.6,40.504761,-3.365884,612.4,3,5,239.4,3.516
58.6,1,-0.014,0.041,0.045,-0.032,0.038,0.018,-1.526,-0.0,-0.672,57.95,83.6,40.504761,-3.365884,612.4,3,5,239.4,3.516
58.7,1,0.009,0.06,0.026,-0.009,0.047,0.032,-1.527,-0.004,-0.674,57.95,83.6,40.504761,-3.365884,612.4,3,5,239.4,3.516
58.8,1,0.005,0.05,0.011,0.008,0.051,0.024,-1.526,-0.004,-0.676,57.95,83.6,40.504761,-3.365884,612.4,3,5,239.4,3.516
58.91,1,-0.004,0.027,0.011,-0.002,0.041,0.008,-1.525,-0.004,-0.677,57.95,83.6,40.504761,-3.365884,612.4,3,5,239.4,3.516
59.0,1,0.002,0.044,0.027,-0.008,0.05,0.022,-1.527,-0.007,-0.678,57.95,83.6,40.504761,-3.365884,612.4,3,5,239.4,3.516
59.1,1,-0.022,0.014,-0.015,-0.002,0.025,0.004,-1.524,-0.006,-0.679,57.95,83.6,40.504761,-3.365884,612.4,3,5,239.4,3.516
59.2,1,-0.037,-0.002,-0.001,-0.027,0.011,-0.003,-1.524,-0.006,-0.68,57.95,83.6,40.504761,-3.365884,612.4,3,5,239.4,3.516
59.31,1,-0.038,0.011,-0.005,-0.032,0.01,-0.003,-1.524,-0.004,-0.681,57.95,83.6,40.504761,-3.365884,612.4,3,5,239.4,3.516
59.4,1,-0.006,0.003,0.003,-0.022,0.008,-0.003,-1.524,-0.002,-0.682,58.96,83.3,40.504654,-3.366116,612.4,3,5,238.7,2.109
59.51,1,0.027,0.012,-0.001,-0.001,0.007,-0.0,-1.524,-0.003,-0.683,58.96,83.3,40.504654,-3.366116,612.4,3,5,238.7,2.109
59.61,1,0.02,0.009,-0.003,0.017,0.009,0.001,-1.522,-0.003,-0.684,58.96,83.3,40.504654,-3.366116,612.4,3,5,238.7,2.109
59.7,1,0.0,0.0,-0.01,0.013,0.007,-0.003,-1.521,-0.002,-0.685,58.96,83.3,40.504654,-3.366116,612.4,3,5,238.7,2.109
59.8,1,-0.031,-0.011,-0.013,-0.01,-0.003,-0.013,-1.521,0.002,-0.685,58.96,83.3,40.504654,-3.366116,612.4,3,5,238.7,2.109
59.91,1,-0.022,0.0,-0.01,-0.022,-0.006,-0.01,-1.521,0.005,-0.686,58.96,83.3,40.504654,-3.366116,612.4,3,5,238.7,2.109
60.0,1,0.012,0.018,-0.006,-0.007,0.007,-0.008,-1.52,0.007,-0.686,58.96,83.3,40.504654,-3.366116,612.4,3,5,238.7,2.109
60.11,1,-0.0,0.009,-0.023,0.003,0.011,-0.012,-1.518,0.011,-0.687,58.96,83.3,40.504654,-3.366116,612.4,3,5,238.7,2.109
60.21,1,-0.022,-0.005,-0.018,-0.01,0.005,-0.019,-1.516,0.014,-0.687,58.96,83.3,40.504654,-3.366116,612.4,3,5,238.7,2.109
60.3,1,-0.038,-0.006,0.008,-0.025,-0.001,-0.008,-1.516,0.017,-0.688,58.96,83.3,40.504654,-3.366116,612.4,3,5,238.7,2.109
60.4,1,-0.002,0.009,0.002,-0.02,-0.002,0.0,-1.516,0.019,-0.688,60.0,82.3,40.504547,-3.366352,611.5,3,5,238.7,0.703
60.51,1,0.049,-0.003,0.005,0.013,0.002,0.003,-1.514,0.02,-0.688,60.0,82.3,40.504547,-3.366352,611.5,3,5,238.7,0.703
60.6,1,0.01,0.013,-0.012,0.019,0.007,-0.003,-1.511,0.021,-0.688,60.0,82.3,40.504547,-3.366352,611.5,3,5,238.7,0.703
60.72,1,-0.034,0.008,-0.002,0.003,0.002,-0.008,-1.512,0.024,-0.689,60.0,82.3,40.504547,-3.366352,611.5,3,5,238.7,0.703
60.82,1,-0.047,-0.005,0.04,-0.035,0.006,0.016,-1.516,0.025,-0.689,60.0,82.3,40.504547,-3.366352,611.5,3,5,238.7,0.703
60.91,1,0.011,0.01,0.021,-0.016,0.006,0.023,-1.517,0.025,-0.689,60.0,82.3,40.504547,-3.366352,611.5,3,5,238.7,0.703
61.01,1,0.036,0.009,0.001,0.016,0.006,0.013,-1.515,0.029,-0.689,60.0,82.3,40.504547,-3.366352,611.5,3,5,238.7,0.703
61.11,1,-0.005,0.016,-0.012,0.007,0.012,0.0,-1.514,0.032,-0.69,60.0,82.3,40.504547,-3.366352,611.5,3,5,238.7,0.703
61.21,1,-0.041,0.01,0.004,-0.009,0.014,-0.0,-1.515,0.032,-0.691,60.0,82.3,40.504547,-3.366352,611.5,3,5,238.7,0.703
61.31,1,-0.049,0.007,0.011,-0.041,0.008,0.003,-1.517,0.032,-0.691,60.0,82.3,40.504547,-3.366352,611.5,3,5,238.7,0.703
61.41,1,0.002,0.003,0.031,-0.023,0.007,0.02,-1.52,0.031,-0.692,60.96,81.2,40.504436,-3.366575,613.4,3,5,238.0,0.703
61.51,1,0.005,0.013,-0.008,-0.003,0.01,0.013,-1.521,0.03,-0.694,60.96,81.2,40.504436,-3.366575,613.4,3,5,238.0,0.703
61.61,1,0.019,0.057,0.012,0.001,0.023,0.002,-1.52,0.027,-0.695,60.96,81.2,40.504436,-3.366575,613.4,3,5,238.0,0.703
61.71,1,0.016,0.052,0.036,0.015,0.044,0.02,-1.522,0.026,-0.697,60.96,81.2,40.504436,-3.366575,613.4,3,5,238.0,0.703
61.81,1,0.015,0.02,0.0,0.015,0.038,0.017,-1.522,0.026,-0.698,60.96,81.2,40.504436,-3.366575,613.4,3,5,238.0,0.703
61.91,1,-0.022,0.009,0.001,0.005,0.025,0.005,-1.522,0.028,-0.7,60.96,81.2,40.504436,-3.366575,613.4,3,5,238.0,0.703
62.11,1,-0.038,0.012,0.057,-0.038,0.027,0.031,-1.528,0.026,-0.704,60.96,81.2,40.504436,-3.366575,613.4,3,5,238.0,0.703
62.21,1,-0.0,0.034,0.018,-0.022,0.023,0.032,-1.531,0.021,-0.706,60.96,81.2,40.504436,-3.366575,613.4,3,5,238.0,0.703
62.31,1,-0.034,0.006,0.025,-0.028,0.017,0.024,-1.533,0.019,-0.708,60.96,81.2,40.504436,-3.366575,613.4,3,5,238.0,0.703
62.42,1,0.011,0.016,0.043,-0.01,0.017,0.033,-1.537,0.018,-0.71,60.96,81.2,40.504436,-3.366575,613.4,3,5,238.0,0.703
62.51,1,0.002,0.026,0.03,0.008,0.018,0.036,-1.539,0.016,-0.713,61.95,80.7,40.504322,-3.366799,612.5,3,5,237.7,1.055
62.61,1,-0.001,0.008,0.034,-0.001,0.017,0.031,-1.541,0.015,-0.715,61.95,80.7,40.504322,-3.366799,612.5,3,5,237.7,1.055
62.71,1,-0.024,0.03,0.045,-0.011,0.02,0.04,-1.545,0.014,-0.718,61.95,80.7,40.504322,-3.366799,612.5,3,5,237.7,1.055
62.81,1,-0.028,0.022,0.033,-0.023,0.022,0.037,-1.548,0.011,-0.721,61.95,80.7,40.504322,-3.366799,612.5,3,5,237.7,1.055
62.92,1,-0.032,0.024,0.036,-0.026,0.027,0.035,-1.551,0.008,-0.724,61.95,80.7,40.504322,-3.366799,612.5,3,5,237.7,1.055
63.01,1,-0.019,0.02,0.029,-0.025,0.019,0.033,-1.555,0.005,-0.727,61.95,80.7,40.504322,-3.366799,612.5,3,5,237.7,1.055
63.11,1,0.013,0.03,0.041,-0.011,0.022,0.038,-1.558,0.003,-0.729,61.95,80.7,40.504322,-3.366799,612.5,3,5,237.7,1.055
63.23,1,0.023,0.019,0.01,0.012,0.026,0.027,-1.558,0.002,-0.732,61.95,80.7,40.504322,-3.366799,612.5,3,5,237.7,1.055
63.31,1,-0.026,0.019,0.016,-0.001,0.022,0.015,-1.56,0.0,-0.735,61.95,80.7,40.504322,-3.366799,612.5,3,5,237.7,1.055
63.41,1,-0.068,-0.005,0.052,-0.038,0.006,0.033,-1.565,-0.0,-0.737,61.95,80.7,40.504322,-3.366799,612.5,3,5,237.7,1.055
63.52,1,-0.017,0.011,0.049,-0.037,0.007,0.044,-1.569,-0.003,-0.74,62.97,80.5,40.504211,-3.367024,610.6,3,5,237.3,0.703
63.61,1,0.006,0.013,0.021,-0.013,0.018,0.039,-1.572,-0.003,-0.742,62.97,80.5,40.504211,-3.367024,610.6,3,5,237.3,0.703
63.71,1,0.016,-0.006,0.046,0.003,-0.002,0.035,-1.574,-0.001,-0.745,62.97,80.5,40.504211,-3.367024,610.6,3,5,237.3,0.703
63.82,1,0.006,-0.02,0.03,0.01,-0.007,0.038,-1.577,-0.001,-0.747,62.97,80.5,40.504211,-3.367024,610.6,3,5,237.3,0.703
63.91,1,-0.005,-0.001,0.026,0.003,-0.007,0.029,-1.579,-0.002,-0.749,62.97,80.5,40.504211,-3.367024,610.6,3,5,237.3,0.703
64.01,1,-0.023,-0.008,0.042,-0.013,-0.009,0.034,-1.583,-0.003,-0.75,62.97,80.5,40.504211,-3.367024,610.6,3,5,237.3,0.703
64.11,1,0.006,-0.002,0.035,-0.007,-0.004,0.037,-1.586,-0.002,-0.752,62.97,80.5,40.504211,-3.367024,610.6,3,5,237.3,0.703
64.22,1,-0.02,-0.019,0.012,-0.007,-0.008,0.023,-1.588,-0.001,-0.753,62.97,80.5,40.504211,-3.367024,610.6,3,5,237.3,0.703
64.32,1,-0.029,-0.027,0.026,-0.026,-0.019,0.022,-1.592,0.002,-0.755,62.97,80.5,40.504211,-3.367024,610.6,3,5,237.3,0.703
64.43,1,-0.012,-0.017,0.041,-0.018,-0.021,0.033,-1.596,0.002,-0.757,62.97,80.5,40.504211,-3.367024,610.6,3,5,237.3,0.703
64.52,1,0.01,-0.009,0.021,-0.002,-0.015,0.03,-1.597,0.001,-0.759,63.97,82.2,40.504108,-3.367249,610.6,3,5,237.7,0.352
64.62,1,0.013,0.001,0.01,0.006,-0.008,0.018,-1.597,0.001,-0.76,63.97,82.2,40.504108,-3.367249,610.6,3,5,237.7,0.352
64.72,1,0.004,-0.028,0.016,-0.001,-0.018,0.017,-1.599,0.004,-0.762,63.97,82.2,40.504108,-3.367249,610.6,3,5,237.7,0.352
64.83,1,-0.019,-0.034,0.033,-0.001,-0.023,0.022,-1.602,0.007,-0.762,63.97,82.2,40.504108,-3.367249,610.6,3,5,237.7,0.352
64.92,1,0.022,-0.026,0.011,0.006,-0.023,0.024,-1.604,0.009,-0.763,63.97,82.2,40.504108,-3.367249,610.6,3,5,237.7,0.352
65.03,1,-0.009,-0.016,-0.019,0.007,-0.021,0.0,-1.604,0.011,-0.764,63.97,82.2,40.504108,-3.367249,610.6,3,5,237.7,0.352
65.13,1,-0.065,-0.015,0.016,-0.03,-0.019,-0.0,-1.605,0.014,-0.765,63.97,82.2,40.504108,-3.367249,610.6,3,5,237.7,0.352
65.22,1,0.013,-0.0,0.028,-0.021,-0.012,0.02,-1.607,0.013,-0.766,63.97,82.2,40.504108,-3.367249,610.6,3,5,237.7,0.352
65.32,1,-0.012,0.013,-0.02,-0.001,-0.004,0.005,-1.605,0.014,-0.767,63.97,82.2,40.504108,-3.367249,610.6,3,5,237.7,0.352
65.42,1,0.002,-0.019,0.01,-0.013,0.0,-0.0,-1.605,0.016,-0.768,63.97,82.2,40.504108,-3.367249,610.6,3,5,237.7,0.352
65.52,1,0.015,-0.026,0.034,0.002,-0.016,0.019,-1.605,0.017,-0.768,64.96,84.8,40.503994,-3.367477,610.9,3,5,237.7,0.352
65.63,1,-0.026,0.005,0.001,-0.004,-0.011,0.012,-1.605,0.016,-0.77,64.96,84.8,40.503994,-3.367477,610.9,3,5,237.7,0.352
65.72,1,0.008,0.006,0.017,-0.005,-0.002,0.012,-1.606,0.014,-0.772,64.96,84.8,40.503994,-3.367477,610.9,3,5,237.7,0.352
65.82,1,0.006,0.013,0.005,0.005,0.009,0.008,-1.606,0.012,-0.773,64.96,84.8,40.503994,-3.367477,610.9,3,5,237.7,0.352
65.92,1,-0.053,-0.002,0.008,-0.026,0.004,0.009,-1.608,0.011,-0.775,64.96,84.8,40.503994,-3.367477,610.9,3,5,237.7,0.352
66.02,1,0.014,0.0,0.021,-0.014,0.002,0.011,-1.609,0.01,-0.776,64.96,84.8,40.503994,-3.367477,610.9,3,5,237.7,0.352
66.12,1,0.049,0.005,0.01,0.023,0.005,0.017,-1.61,0.006,-0.778,64.96,84.8,40.503994,-3.367477,610.9,3,5,237.7,0.352
66.23,1,0.023,0.012,-0.026,0.031,0.007,-0.004,-1.607,0.005,-0.779,64.96,84.8,40.503994,-3.367477,610.9,3,5,237.7,0.352
66.32,1,-0.05,0.016,-0.019,-0.006,0.011,-0.017,-1.607,0.005,-0.781,64.96,84.8,40.503994,-3.367477,610.9,3,5,237.7,0.352
66.42,1,-0.028,-0.028,0.029,-0.027,-0.005,0.001,-1.609,0.004,-0.782,64.96,84.8,40.503994,-3.367477,610.9,3,5,237.7,0.352
66.52,1,0.026,-0.025,-0.021,-0.006,-0.023,0.002,-1.607,0.004,-0.784,65.96,86.4,40.503872,-3.367721,610.8,3,5,237.3,0.352
66.62,1,0.008,0.006,-0.025,0.006,-0.009,-0.016,-1.602,0.003,-0.786,65.96,86.4,40.503872,-3.367721,610.8,3,5,237.3,0.352
66.72,1,-0.006,0.017,-0.022,0.012,0.009,-0.02,-1.601,0.002,-0.788,65.96,86.4,40.503872,-3.367721,610.8,3,5,237.3,0.352
66.82,1,-0.039,-0.005,-0.006,-0.021,0.001,-0.017,-1.603,0.003,-0.789,65.96,86.4,40.503872,-3.367721,610.8,3,5,237.3,0.352
66.93,1,-0.01,-0.007,0.021,-0.017,0.001,0.006,-1.604,0.003,-0.79,65.96,86.4,40.503872,-3.367721,610.8,3,5,237.3,0.352
67.02,1,-0.026,-0.002,-0.055,-0.019,-0.005,-0.018,-1.602,0.003,-0.792,65.96,86.4,40.503872,-3.367721,610.8,3,5,237.3,0.352
67.12,1,0.008,0.038,0.021,-0.013,0.01,-0.013,-1.602,0.002,-0.793,65.96,86.4,40.503872,-3.367721,610.8,3,5,237.3,0.352
67.22,1,0.01,0.05,-0.015,0.006,0.037,-0.005,-1.602,0.002,-0.795,65.96,86.4,40.503872,-3.367721,610.8,3,5,237.3,0.352
67.33,1,-0.029,-0.032,-0.014,-0.01,0.01,-0.013,-1.602,0.004,-0.795,65.96,86.4,40.503872,-3.367721,610.8,3,5,237.3,0.352
67.43,1,-0.032,-0.049,0.009,-0.028,-0.03,-0.003,-1.602,0.005,-0.796,65.96,86.4,40.503872,-3.367721,610.8,3,5,237.3,0.352
67.53,1,-0.029,-0.018,-0.001,-0.023,-0.025,0.002,-1.601,0.008,-0.798,66.96,86.9,40.503754,-3.36796,610.9,3,5,238.0,0.703
67.62,1,-0.065,-0.018,-0.003,-0.044,-0.017,-0.003,-1.601,0.007,-0.799,66.96,86.9,40.503754,-3.36796,610.9,3,5,238.0,0.703
67.72,1,-0.044,-0.007,0.006,-0.052,-0.016,0.003,-1.602,0.005,-0.8,66.96,86.9,40.503754,-3.36796,610.9,3,5,238.0,0.703
67.83,1,0.034,0.005,0.004,-0.011,-0.007,0.006,-1.602,0.006,-0.801,66.96,86.9,40.503754,-3.36796,610.9,3,5,238.0,0.703
67.93,1,0.043,-0.013,0.007,0.022,-0.007,0.007,-1.6,0.005,-0.803,66.96,86.9,40.503754,-3.36796,610.9,3,5,238.0,0.703
68.03,1,0.098,-0.019,0.026,0.045,-0.006,0.014,-1.597,0.007,-0.804,66.96,86.9,40.503754,-3.36796,610.9,3,5,238.0,0.703
68.14,1,0.064,0.011,-0.012,0.075,0.002,0.006,-1.598,0.011,-0.805,66.96,86.9,40.503754,-3.36796,610.9,3,5,238.0,0.703
68.23,1,-0.0,-0.033,-0.035,0.048,-0.018,-0.02,-1.596,0.012,-0.806,66.96,86.9,40.503754,-3.36796,610.9,3,5,238.0,0.703
68.33,1,-0.081,-0.012,0.018,-0.018,-0.024,-0.006,-1.598,0.01,-0.808,66.96,86.9,40.503754,-3.36796,610.9,3,5,238.0,0.703
68.43,1,-0.037,-0.006,0.005,-0.039,-0.014,0.005,-1.6,0.009,-0.809,66.96,86.9,40.503754,-3.36796,610.9,3,5,238.0,0.703
68.53,1,-0.042,-0.012,-0.003,-0.046,-0.006,0.001,-1.6,0.008,-0.81,67.96,86.9,40.503635,-3.368203,610.6,3,5,238.4,1.055
68.63,1,-0.011,-0.036,0.022,-0.027,-0.024,0.006,-1.601,0.007,-0.81,67.96,86.9,40.503635,-3.368203,610.6,3,5,238.4,1.055
68.74,1,-0.008,-0.044,0.005,-0.019,-0.032,0.013,-1.603,0.009,-0.81,67.96,86.9,40.503635,-3.368203,610.6,3,5,238.4,1.055
68.83,1,-0.022,-0.036,0.006,-0.016,-0.034,0.008,-1.604,0.012,-0.809,67.96,86.9,40.503635,-3.368203,610.6,3,5,238.4,1.055
68.98,1,-0.044,-0.033,0.007,-0.026,-0.037,0.007,-1.606,0.015,-0.809,67.96,86.9,40.503635,-3.368203,610.6,3,5,238.4,1.055
69.03,1,-0.058,-0.028,0.006,-0.05,-0.033,0.008,-1.606,0.016,-0.81,67.96,86.9,40.503635,-3.368203,610.6,3,5,238.4,1.055
69.14,1,-0.028,-0.013,-0.004,-0.038,-0.022,0.001,-1.607,0.016,-0.81,67.96,86.9,40.503635,-3.368203,610.6,3,5,238.4,1.055
69.24,1,-0.009,-0.0,0.004,-0.029,-0.013,0.001,-1.608,0.016,-0.811,67.96,86.9,40.503635,-3.368203,610.6,3,5,238.4,1.055
69.33,1,0.007,0.019,0.005,-0.005,0.001,0.005,-1.608,0.018,-0.812,67.96,86.9,40.503635,-3.368203,610.6,3,5,238.4,1.055
69.43,1,0.036,-0.008,-0.009,0.014,0.003,-0.005,-1.607,0.02,-0.812,67.96,86.9,40.503635,-3.368203,610.6,3,5,238.4,1.055
69.53,1,-0.029,0.004,-0.031,0.004,0.005,-0.011,-1.607,0.019,-0.813,68.99,91.2,40.503521,-3.368465,610.1,3,5,238.0,0.352
69.63,1,-0.069,-0.001,0.0,-0.031,-0.0,-0.014,-1.607,0.021,-0.814,68.99,91.2,40.503521,-3.368465,610.1,3,5,238.0,0.352
69.73,1,-0.094,0.004,0.003,-0.071,-0.001,-0.004,-1.608,0.021,-0.815,68.99,91.2,40.503521,-3.368465,610.1,3,5,238.0,0.352
69.83,1,-0.036,0.006,-0.002,-0.06,0.006,-0.003,-1.609,0.018,-0.816,68.99,91.2,40.503521,-3.368465,610.1,3,5,238.0,0.352
69.94,1,-0.016,0.005,0.006,-0.037,0.003,0.003,-1.612,0.017,-0.817,68.99,91.2,40.503521,-3.368465,610.1,3,5,238.0,0.352
70.04,1,-0.012,0.006,0.017,-0.026,0.005,0.008,-1.614,0.015,-0.818,68.99,91.2,40.503521,-3.368465,610.1,3,5,238.0,0.352
70.13,1,-0.005,0.001,0.004,-0.014,0.004,0.009,-1.615,0.014,-0.819,68.99,91.2,40.503521,-3.368465,610.1,3,5,238.0,0.352
70.23,1,-0.043,0.01,-0.007,-0.018,0.007,0.003,-1.617,0.014,-0.82,68.99,91.2,40.503521,-3.368465,610.1,3,5,238.0,0.352
70.33,1,-0.03,0.021,0.01,-0.028,0.012,0.002,-1.617,0.011,-0.823,68.99,91.2,40.503521,-3.368465,610.1,3,5,238.0,0.352
70.43,1,-0.015,0.02,-0.004,-0.028,0.017,0.001,-1.617,0.007,-0.824,68.99,91.2,40.503521,-3.368465,610.1,3,5,238.0,0.352
70.53,1,-0.022,0.017,0.009,-0.02,0.02,0.005,-1.618,0.006,-0.826,69.96,93.4,40.503391,-3.368719,610.0,3,5,237.3,1.055
70.64,1,-0.013,-0.001,-0.001,-0.015,0.011,0.003,-1.619,0.005,-0.827,69.96,93.4,40.503391,-3.368719,610.0,3,5,237.3,1.055
70.73,1,-0.047,-0.014,0.014,-0.029,-0.003,0.006,-1.621,0.007,-0.828,69.96,93.4,40.503391,-3.368719,610.0,3,5,237.3,1.055
70.83,1,-0.015,-0.006,0.007,-0.03,-0.007,0.006,-1.623,0.008,-0.83,69.96,93.4,40.503391,-3.368719,610.0,3,5,237.3,1.055
70.93,1,-0.002,-0.001,0.021,-0.012,-0.002,0.019,-1.625,0.009,-0.831,69.96,93.4,40.503391,-3.368719,610.0,3,5,237.3,1.055
71.04,1,0.007,0.002,-0.016,-0.004,-0.002,-0.002,-1.622,0.007,-0.833,69.96,93.4,40.503391,-3.368719,610.0,3,5,237.3,1.055
71.14,1,-0.023,-0.006,0.016,-0.01,-0.003,0.005,-1.623,0.006,-0.834,69.96,93.4,40.503391,-3.368719,610.0,3,5,237.3,1.055
71.23,1,-0.008,-0.003,0.011,-0.009,-0.005,0.011,-1.625,0.007,-0.836,69.96,93.4,40.503391,-3.368719,610.0,3,5,237.3,1.055
71.34,1,-0.001,-0.013,0.006,-0.009,-0.006,0.007,-1.625,0.005,-0.837,69.96,93.4,40.503391,-3.368719,610.0,3,5,237.3,1.055
71.44,1,-0.045,-0.013,-0.008,-0.02,-0.011,0.001,-1.625,0.006,-0.838,69.96,93.4,40.503391,-3.368719,610.0,3,5,237.3,1.055
71.54,1,-0.012,0.002,-0.015,-0.02,-0.006,-0.01,-1.626,0.007,-0.839,71.03,94.4,40.503258,-3.36898,610.4,3,5,237.0,1.055
71.64,1,-0.032,-0.017,0.006,-0.025,-0.008,-0.003,-1.626,0.007,-0.84,71.03,94.4,40.503258,-3.36898,610.4,3,5,237.0,1.055
71.74,1,-0.008,-0.002,0.01,-0.023,-0.006,0.004,-1.625,0.007,-0.841,71.03,94.4,40.503258,-3.36898,610.4,3,5,237.0,1.055
71.84,1,0.015,-0.005,-0.001,-0.002,-0.004,0.005,-1.622,0.005,-0.842,71.03,94.4,40.503258,-3.36898,610.4,3,5,237.0,1.055
71.94,1,0.022,0.014,-0.022,0.012,0.001,-0.009,-1.621,0.005,-0.843,71.03,94.4,40.503258,-3.36898,610.4,3,5,237.0,1.055
72.14,1,-0.011,-0.019,0.015,-0.012,-0.011,0.004,-1.621,0.007,-0.844,71.03,94.4,40.503258,-3.36898,610.4,3,5,237.0,1.055
72.24,1,-0.013,-0.009,-0.022,-0.013,-0.013,-0.004,-1.62,0.007,-0.845,71.03,94.4,40.503258,-3.36898,610.4,3,5,237.0,1.055
72.34,1,-0.042,-0.006,-0.027,-0.023,-0.007,-0.018,-1.618,0.006,-0.846,71.03,94.4,40.503258,-3.36898,610.4,3,5,237.0,1.055
72.45,1,-0.023,-0.014,-0.027,-0.03,-0.008,-0.024,-1.616,0.005,-0.847,71.03,94.4,40.503258,-3.36898,610.4,3,5,237.0,1.055
72.54,1,0.004,-0.031,-0.021,-0.012,-0.021,-0.021,-1.615,0.005,-0.847,71.03,94.4,40.503258,-3.36898,610.4,3,5,237.0,1.055
72.64,1,-0.006,-0.033,-0.059,-0.006,-0.029,-0.036,-1.611,0.007,-0.847,71.96,97.1,40.503128,-3.369252,610.4,3,5,237.3,0.352
72.74,1,0.002,-0.047,-0.091,-0.002,-0.04,-0.063,-1.603,0.009,-0.847,71.96,97.1,40.503128,-3.369252,610.4,3,5,237.3,0.352
72.85,1,-0.024,-0.041,-0.051,-0.009,-0.045,-0.066,-1.595,0.009,-0.847,71.96,97.1,40.503128,-3.369252,610.4,3,5,237.3,0.352
72.94,1,-0.027,-0.011,-0.048,-0.021,-0.026,-0.052,-1.593,0.008,-0.847,71.96,97.1,40.503128,-3.369252,610.4,3,5,237.3,0.352
73.05,1,-0.01,-0.025,-0.052,-0.017,-0.017,-0.054,-1.588,0.01,-0.847,71.96,97.1,40.503128,-3.369252,610.4,3,5,237.3,0.352
73.14,1,0.03,-0.02,-0.048,-0.0,-0.024,-0.052,-1.584,0.011,-0.846,71.96,97.1,40.503128,-3.369252,610.4,3,5,237.3,0.352
73.24,1,0.034,-0.035,-0.046,0.023,-0.029,-0.048,-1.579,0.016,-0.846,71.96,97.1,40.503128,-3.369252,610.4,3,5,237.3,0.352
73.34,1,0.002,-0.02,-0.054,0.012,-0.025,-0.05,-1.575,0.02,-0.846,71.96,97.1,40.503128,-3.369252,610.4,3,5,237.3,0.352
73.44,1,-0.005,-0.007,-0.039,0.006,-0.018,-0.046,-1.569,0.021,-0.847,71.96,97.1,40.503128,-3.369252,610.4,3,5,237.3,0.352
73.54,1,-0.006,-0.014,-0.027,-0.001,-0.012,-0.037,-1.564,0.02,-0.848,71.96,97.1,40.503128,-3.369252,610.4,3,5,237.3,0.352
73.65,1,-0.021,-0.002,-0.041,-0.007,-0.008,-0.037,-1.561,0.02,-0.848,72.97,100.2,40.502995,-3.369531,610.3,3,5,237.7,0.703
73.75,1,-0.056,0.017,-0.05,-0.036,0.003,-0.044,-1.559,0.019,-0.849,72.97,100.2,40.502995,-3.369531,610.3,3,5,237.7,0.703
73.84,1,-0.037,0.002,-0.056,-0.043,0.005,-0.051,-1.556,0.017,-0.849,72.97,100.2,40.502995,-3.369531,610.3,3,5,237.7,0.703
73.94,1,0.007,-0.002,-0.065,-0.018,0.005,-0.052,-1.55,0.017,-0.85,72.97,100.2,40.502995,-3.369531,610.3,3,5,237.7,0.703
74.04,1,0.0,0.013,-0.042,0.001,0.002,-0.056,-1.543,0.017,-0.851,72.97,100.2,40.502995,-3.369531,610.3,3,5,237.7,0.703
74.14,1,0.004,0.022,0.004,-0.007,0.012,-0.035,-1.544,0.016,-0.851,72.97,100.2,40.502995,-3.369531,610.3,3,5,237.7,0.703
74.25,1,-0.009,0.015,0.018,-0.002,0.016,0.001,-1.547,0.016,-0.852,72.97,100.2,40.502995,-3.369531,610.3,3,5,237.7,0.703
74.34,1,-0.017,-0.001,0.013,-0.011,0.013,0.01,-1.547,0.016,-0.852,72.97,100.2,40.502995,-3.369531,610.3,3,5,237.7,0.703
74.44,1,0.016,-0.006,0.023,0.002,-0.001,0.015,-1.546,0.014,-0.853,72.97,100.2,40.502995,-3.369531,610.3,3,5,237.7,0.703
74.55,1,-0.013,-0.016,-0.002,0.003,-0.006,0.012,-1.545,0.012,-0.853,72.97,100.2,40.502995,-3.369531,610.3,3,5,237.7,0.703
74.64,1,-0.02,0.023,0.058,-0.02,0.005,0.025,-1.545,0.01,-0.854,73.96,100.5,40.502857,-3.369811,610.0,3,5,237.3,0.352
74.75,1,-0.034,0.009,0.037,-0.023,0.006,0.038,-1.549,0.01,-0.854,73.96,100.5,40.502857,-3.369811,610.0,3,5,237.3,0.352
74.85,1,-0.005,0.017,0.04,-0.02,0.014,0.038,-1.551,0.007,-0.855,73.96,100.5,40.502857,-3.369811,610.0,3,5,237.3,0.352
74.95,1,0.013,0.008,0.036,0.003,0.009,0.037,-1.552,0.007,-0.856,73.96,100.5,40.502857,-3.369811,610.0,3,5,237.3,0.352
75.05,1,-0.003,-0.001,0.026,0.002,0.007,0.031,-1.554,0.008,-0.857,73.96,100.5,40.502857,-3.369811,610.0,3,5,237.3,0.352
75.15,1,-0.001,0.005,0.04,-0.006,0.005,0.034,-1.556,0.008,-0.858,73.96,100.5,40.502857,-3.369811,610.0,3,5,237.3,0.352
75.25,1,-0.013,0.007,0.034,-0.005,0.005,0.036,-1.559,0.008,-0.858,73.96,100.5,40.502857,-3.369811,610.0,3,5,237.3,0.352
75.35,1,0.01,-0.002,0.031,-0.003,0.003,0.034,-1.562,0.01,-0.859,73.96,100.5,40.502857,-3.369811,610.0,3,5,237.3,0.352
75.46,1,0.023,0.002,0.028,0.02,0.002,0.031,-1.565,0.01,-0.859,73.96,100.5,40.502857,-3.369811,610.0,3,5,237.3,0.352
75.55,1,-0.051,0.001,0.025,-0.011,-0.001,0.025,-1.569,0.011,-0.86,73.96,100.5,40.502857,-3.369811,610.0,3,5,237.3,0.352
75.65,1,-0.033,0.004,0.021,-0.036,0.003,0.025,-1.572,0.012,-0.86,75.03,99.5,40.502724,-3.370082,609.7,3,5,237.3,0.352
75.75,1,0.009,-0.004,0.046,-0.013,-0.003,0.034,-1.576,0.013,-0.86,75.03,99.5,40.502724,-3.370082,609.7,3,5,237.3,0.352
75.85,1,0.004,0.015,0.023,0.002,0.008,0.032,-1.577,0.016,-0.861,75.03,99.5,40.502724,-3.370082,609.7,3,5,237.3,0.352
75.95,1,-0.035,-0.0,0.02,-0.016,0.005,0.025,-1.579,0.018,-0.861,75.03,99.5,40.502724,-3.370082,609.7,3,5,237.3,0.352
76.05,1,-0.021,-0.012,0.025,-0.018,-0.0,0.024,-1.581,0.02,-0.862,75.03,99.5,40.502724,-3.370082,609.7,3,5,237.3,0.352
76.16,1,-0.044,-0.017,0.011,-0.032,-0.01,0.017,-1.583,0.022,-0.862,75.03,99.5,40.502724,-3.370082,609.7,3,5,237.3,0.352
76.25,1,0.008,-0.018,0.012,-0.021,-0.009,0.015,-1.588,0.023,-0.861,75.03,99.5,40.502724,-3.370082,609.7,3,5,237.3,0.352
76.35,1,0.044,0.006,0.033,0.016,-0.006,0.024,-1.59,0.027,-0.861,75.03,99.5,40.502724,-3.370082,609.7,3,5,237.3,0.352
76.45,1,0.066,0.0,-0.004,0.037,-0.005,0.011,-1.59,0.029,-0.86,75.03,99.5,40.502724,-3.370082,609.7,3,5,237.3,0.352
76.55,1,0.003,-0.01,-0.023,0.037,-0.008,-0.002,-1.589,0.027,-0.86,75.03,99.5,40.502724,-3.370082,609.7,3,5,237.3,0.352
76.65,1,-0.046,-0.012,-0.016,-0.005,-0.009,-0.016,-1.585,0.027,-0.86,75.96,100.4,40.502586,-3.37036,609.6,3,5,237.3,0.0
76.75,1,-0.054,-0.012,0.008,-0.041,-0.013,-0.005,-1.586,0.027,-0.86,75.96,100.4,40.502586,-3.37036,609.6,3,5,237.3,0.0
76.85,1,-0.026,-0.003,0.012,-0.037,-0.008,0.005,-1.586,0.025,-0.861,75.96,100.4,40.502586,-3.37036,609.6,3,5,237.3,0.0
76.95,1,0.007,0.005,-0.021,-0.018,-0.003,-0.003,-1.583,0.025,-0.861,75.96,100.4,40.502586,-3.37036,609.6,3,5,237.3,0.0
77.05,1,0.028,0.015,0.003,0.012,0.006,-0.003,-1.582,0.024,-0.861,75.96,100.4,40.502586,-3.37036,609.6,3,5,237.3,0.0
77.16,1,-0.016,-0.001,-0.014,0.007,0.007,-0.009,-1.582,0.023,-0.862,75.96,100.4,40.502586,-3.37036,609.6,3,5,237.3,0.0
77.25,1,-0.034,0.003,0.003,-0.02,0.002,-0.006,-1.584,0.024,-0.862,75.96,100.4,40.502586,-3.37036,609.6,3,5,237.3,0.0
77.36,1,-0.042,-0.006,-0.034,-0.033,0.0,-0.014,-1.583,0.024,-0.862,75.96,100.4,40.502586,-3.37036,609.6,3,5,237.3,0.0
77.45,1,-0.022,-0.007,-0.036,-0.031,-0.004,-0.027,-1.58,0.023,-0.863,75.96,100.4,40.502586,-3.37036,609.6,3,5,237.3,0.0
77.55,1,-0.013,0.015,-0.034,-0.019,0.0,-0.031,-1.577,0.021,-0.863,75.96,100.4,40.502586,-3.37036,609.6,3,5,237.3,0.0
77.65,1,-0.019,0.01,-0.028,-0.021,0.01,-0.033,-1.575,0.019,-0.864,77.01,101.6,40.502453,-3.370641,609.7,3,5,237.3,0.0
77.76,1,-0.011,-0.012,-0.036,-0.017,0.001,-0.031,-1.571,0.02,-0.864,77.01,101.6,40.502453,-3.370641,609.7,3,5,237.3,0.0
77.86,1,0.013,-0.0,-0.044,-0.002,-0.002,-0.038,-1.567,0.019,-0.864,77.01,101.6,40.502453,-3.370641,609.7,3,5,237.3,0.0
77.95,1,0.017,-0.002,-0.028,0.009,-0.003,-0.036,-1.563,0.017,-0.864,77.01,101.6,40.502453,-3.370641,609.7,3,5,237.3,0.0
78.05,1,0.017,-0.001,-0.032,0.014,-0.002,-0.028,-1.561,0.018,-0.865,77.01,101.6,40.502453,-3.370641,609.7,3,5,237.3,0.0
78.15,1,0.009,0.001,-0.039,0.02,0.0,-0.036,-1.555,0.016,-0.865,77.01,101.6,40.502453,-3.370641,609.7,3,5,237.3,0.0
78.26,1,-0.023,-0.011,-0.02,-0.005,-0.004,-0.033,-1.553,0.017,-0.865,77.01,101.6,40.502453,-3.370641,609.7,3,5,237.3,0.0
78.36,1,-0.05,-0.016,-0.026,-0.034,-0.007,-0.025,-1.553,0.018,-0.865,77.01,101.6,40.502453,-3.370641,609.7,3,5,237.3,0.0
78.46,1,-0.02,-0.019,0.002,-0.028,-0.013,-0.017,-1.552,0.018,-0.865,77.01,101.6,40.502453,-3.370641,609.7,3,5,237.3,0.0
78.56,1,0.038,-0.005,-0.014,0.004,-0.016,-0.006,-1.551,0.017,-0.866,77.01,101.6,40.502453,-3.370641,609.7,3,5,237.3,0.0
78.66,1,0.009,-0.003,-0.031,0.016,-0.007,-0.023,-1.548,0.017,-0.866,77.96,102.6,40.502312,-3.370924,609.4,3,5,237.3,0.0
78.76,1,-0.033,0.019,-0.021,-0.011,0.002,-0.023,-1.546,0.017,-0.866,77.96,102.6,40.502312,-3.370924,609.4,3,5,237.3,0.0
78.86,1,-0.029,0.014,0.007,-0.016,0.01,-0.006,-1.543,0.016,-0.866,77.96,102.6,40.502312,-3.370924,609.4,3,5,237.3,0.0
78.96,1,-0.016,0.014,-0.013,-0.025,0.012,-0.009,-1.54,0.015,-0.867,77.96,102.6,40.502312,-3.370924,609.4,3,5,237.3,0.0
79.06,1,-0.031,0.026,-0.044,-0.017,0.018,-0.02,-1.538,0.014,-0.868,77.96,102.6,40.502312,-3.370924,609.4,3,5,237.3,0.0
79.16,1,-0.054,-0.023,0.008,-0.036,0.001,-0.019,-1.54,0.015,-0.868,77.96,102.6,40.502312,-3.370924,609.4,3,5,237.3,0.0
79.26,1,0.014,-0.028,-0.012,-0.031,-0.016,-0.01,-1.543,0.012,-0.868,77.96,102.6,40.502312,-3.370924,609.4,3,5,237.3,0.0
79.36,1,-0.017,0.001,-0.024,-0.011,-0.004,-0.014,-1.54,0.01,-0.868,77.96,102.6,40.502312,-3.370924,609.4,3,5,237.3,0.0
79.46,1,-0.032,-0.001,-0.023,-0.026,-0.004,-0.024,-1.537,0.01,-0.869,77.96,102.6,40.502312,-3.370924,609.4,3,5,237.3,0.0
79.56,1,-0.044,0.016,0.023,-0.031,0.006,-0.001,-1.541,0.013,-0.869,77.96,102.6,40.502312,-3.370924,609.4,3,5,237.3,0.0
79.66,1,0.094,-0.008,-0.01,0.02,0.004,0.005,-1.538,0.017,-0.869,78.99,102.3,40.502174,-3.371205,609.0,3,5,237.3,0.0
79.76,1,0.053,-0.018,-0.033,0.057,-0.011,-0.022,-1.533,0.018,-0.869,78.99,102.3,40.502174,-3.371205,609.0,3,5,237.3,0.0
79.86,1,-0.024,0.026,-0.026,0.023,0.001,-0.024,-1.532,0.016,-0.87,78.99,102.3,40.502174,-3.371205,609.0,3,5,237.3,0.0
79.96,1,-0.037,0.027,0.018,-0.025,0.019,-0.011,-1.534,0.015,-0.87,78.99,102.3,40.502174,-3.371205,609.0,3,5,237.3,0.0
80.06,1,-0.033,-0.036,-0.005,-0.03,-0.0,0.009,-1.536,0.018,-0.87,78.99,102.3,40.502174,-3.371205,609.0,3,5,237.3,0.0
80.16,1,-0.04,-0.042,-0.022,-0.026,-0.031,-0.015,-1.534,0.021,-0.87,78.99,102.3,40.502174,-3.371205,609.0,3,5,237.3,0.0
80.26,1,-0.006,-0.018,0.005,-0.027,-0.025,-0.008,-1.534,0.019,-0.87,78.99,102.3,40.502174,-3.371205,609.0,3,5,237.3,0.0
80.37,1,0.016,0.01,-0.0,-0.005,-0.009,0.001,-1.535,0.015,-0.871,78.99,102.3,40.502174,-3.371205,609.0,3,5,237.3,0.0
80.47,1,-0.014,0.008,-0.015,0.003,0.002,-0.006,-1.533,0.013,-0.871,78.99,102.3,40.502174,-3.371205,609.0,3,5,237.3,0.0
80.57,1,-0.031,-0.007,-0.008,-0.018,-0.002,-0.012,-1.532,0.013,-0.871,78.99,102.3,40.502174,-3.371205,609.0,3,5,237.3,0.0
80.66,1,-0.016,-0.021,-0.008,-0.021,-0.008,-0.008,-1.532,0.014,-0.871,79.96,101.6,40.502033,-3.371488,608.8,3,5,237.3,0.0
80.76,1,-0.023,-0.026,-0.012,-0.019,-0.023,-0.008,-1.532,0.017,-0.871,79.96,101.6,40.502033,-3.371488,608.8,3,5,237.3,0.0
80.86,1,0.012,0.014,0.005,-0.013,-0.009,-0.005,-1.532,0.016,-0.871,79.96,101.6,40.502033,-3.371488,608.8,3,5,237.3,0.0
80.96,1,0.018,0.01,-0.005,0.006,0.008,-0.001,-1.532,0.014,-0.871,79.96,101.6,40.502033,-3.371488,608.8,3,5,237.3,0.0
81.06,1,0.013,0.006,-0.025,0.018,0.008,-0.013,-1.53,0.014,-0.872,79.96,101.6,40.502033,-3.371488,608.8,3,5,237.3,0.0
81.17,1,-0.016,-0.01,-0.006,0.006,-0.002,-0.015,-1.528,0.015,-0.872,79.96,101.6,40.502033,-3.371488,608.8,3,5,237.3,0.0
81.26,1,-0.05,-0.028,-0.007,-0.032,-0.016,-0.013,-1.527,0.015,-0.872,79.96,101.6,40.502033,-3.371488,608.8,3,5,237.3,0.0
81.36,1,-0.045,-0.008,0.023,-0.041,-0.012,0.008,-1.53,0.014,-0.873,79.96,101.6,40.502033,-3.371488,608.8,3,5,237.3,0.0
81.46,1,-0.015,0.013,0.028,-0.03,-0.002,0.017,-1.533,0.011,-0.873,79.96,101.6,40.502033,-3.371488,608.8,3,5,237.3,0.0
81.56,1,0.021,0.009,0.009,-0.003,0.006,0.015,-1.534,0.009,-0.873,79.96,101.6,40.502033,-3.371488,608.8,3,5,237.3,0.0
81.67,1,-0.018,0.001,-0.013,-0.006,0.005,0.004,-1.534,0.009,-0.873,80.98,100.5,40.5019,-3.371762,609.1,3,5,237.3,0.0
81.76,1,-0.031,-0.02,0.012,-0.019,-0.008,0.004,-1.537,0.011,-0.874,80.98,100.5,40.5019,-3.371762,609.1,3,5,237.3,0.0
81.86,1,-0.006,-0.014,0.032,-0.014,-0.015,0.02,-1.541,0.012,-0.873,80.98,100.5,40.5019,-3.371762,609.1,3,5,237.3,0.0
82.07,1,0.032,-0.004,-0.007,0.024,0.005,0.003,-1.539,0.008,-0.874,80.98,100.5,40.5019,-3.371762,609.1,3,5,237.3,0.0
82.17,1,0.018,-0.016,0.02,0.027,-0.007,0.009,-1.539,0.008,-0.874,80.98,100.5,40.5019,-3.371762,609.1,3,5,237.3,0.0
82.27,1,-0.028,-0.018,0.002,0.001,-0.012,0.008,-1.541,0.011,-0.874,80.98,100.5,40.5019,-3.371762,609.1,3,5,237.3,0.0
82.37,1,-0.061,-0.024,0.004,-0.032,-0.02,0.005,-1.543,0.011,-0.874,80.98,100.5,40.5019,-3.371762,609.1,3,5,237.3,0.0
82.47,1,-0.079,-0.01,0.009,-0.058,-0.017,0.001,-1.546,0.011,-0.874,80.98,100.5,40.5019,-3.371762,609.1,3,5,237.3,0.0
82.57,1,0.002,-0.009,0.026,-0.043,-0.011,0.019,-1.548,0.011,-0.875,80.98,100.5,40.5019,-3.371762,609.1,3,5,237.3,0.0
82.67,1,-0.004,-0.004,0.01,-0.013,-0.009,0.014,-1.549,0.011,-0.875,80.98,100.5,40.5019,-3.371762,609.1,3,5,237.3,0.0
82.77,1,0.018,-0.021,0.009,0.004,-0.013,0.014,-1.549,0.008,-0.875,81.94,99.6,40.501766,-3.372035,608.4,3,5,237.3,0.0
82.88,1,-0.019,0.005,0.003,0.002,-0.007,0.007,-1.551,0.011,-0.876,81.94,99.6,40.501766,-3.372035,608.4,3,5,237.3,0.0
82.97,1,-0.063,0.014,-0.006,-0.033,0.005,-0.001,-1.551,0.009,-0.876,81.94,99.6,40.501766,-3.372035,608.4,3,5,237.3,0.0
83.07,1,-0.006,-0.007,0.03,-0.03,0.001,0.013,-1.552,0.007,-0.876,81.94,99.6,40.501766,-3.372035,608.4,3,5,237.3,0.0
83.18,1,-0.012,-0.04,-0.007,-0.014,-0.018,0.008,-1.551,0.008,-0.876,81.94,99.6,40.501766,-3.372035,608.4,3,5,237.3,0.0
83.27,1,-0.036,-0.013,0.011,-0.024,-0.019,0.005,-1.55,0.011,-0.876,81.94,99.6,40.501766,-3.372035,608.4,3,5,237.3,0.0
83.38,1,-0.016,-0.006,0.031,-0.026,-0.015,0.017,-1.552,0.01,-0.875,81.94,99.6,40.501766,-3.372035,608.4,3,5,237.3,0.0
83.47,1,0.01,-0.017,-0.009,-0.008,-0.011,0.01,-1.549,0.011,-0.875,81.94,99.6,40.501766,-3.372035,608.4,3,5,237.3,0.0
83.57,1,-0.012,-0.014,-0.008,-0.01,-0.015,-0.006,-1.547,0.012,-0.874,81.94,99.6,40.501766,-3.372035,608.4,3,5,237.3,0.0
83.68,1,-0.005,-0.014,0.017,-0.003,-0.016,0.005,-1.547,0.014,-0.874,81.94,99.6,40.501766,-3.372035,608.4,3,5,237.3,0.0
83.77,1,-0.011,-0.015,0.024,-0.005,-0.013,0.014,-1.549,0.014,-0.874,82.97,99.3,40.501633,-3.372309,607.7,3,5,237.3,0.0
83.87,1,-0.016,-0.009,-0.0,-0.015,-0.01,0.013,-1.55,0.013,-0.873,82.97,99.3,40.501633,-3.372309,607.7,3,5,237.3,0.0
83.97,1,0.01,0.018,0.009,-0.001,-0.003,0.006,-1.552,0.014,-0.873,82.97,99.3,40.501633,-3.372309,607.7,3,5,237.3,0.0
84.08,1,-0.04,-0.017,0.0,-0.018,-0.002,0.005,-1.555,0.015,-0.873,82.97,99.3,40.501633,-3.372309,607.7,3,5,237.3,0.0
84.3,1,-0.028,0.026,-0.026,-0.039,0.008,-0.01,-1.555,0.013,-0.873,82.97,99.3,40.501633,-3.372309,607.7,3,5,237.3,0.0
84.3,1,0.079,0.046,-0.039,0.022,0.027,-0.023,-1.554,0.011,-0.873,82.97,99.3,40.501633,-3.372309,607.7,3,5,237.3,0.0
84.37,1,0.023,0.026,-0.018,0.039,0.031,-0.025,-1.552,0.011,-0.873,82.97,99.3,40.501633,-3.372309,607.7,3,5,237.3,0.0
84.47,1,0.004,0.021,-0.017,0.021,0.025,-0.02,-1.548,0.008,-0.874,82.97,99.3,40.501633,-3.372309,607.7,3,5,237.3,0.0
84.58,1,-0.006,0.007,0.017,0.001,0.017,-0.006,-1.549,0.005,-0.874,82.97,99.3,40.501633,-3.372309,607.7,3,5,237.3,0.0
84.68,1,-0.009,0.021,0.004,-0.003,0.017,0.007,-1.55,0.005,-0.875,82.97,99.3,40.501633,-3.372309,607.7,3,5,237.3,0.0
84.78,1,-0.023,-0.001,0.009,-0.007,0.01,0.005,-1.549,0.006,-0.875,83.97,99.4,40.501499,-3.372583,609.2,3,5,237.3,0.0
84.87,1,-0.009,-0.009,0.009,-0.015,-0.002,0.006,-1.549,0.007,-0.875,83.97,99.4,40.501499,-3.372583,609.2,3,5,237.3,0.0
84.98,1,-0.039,-0.005,0.015,-0.024,-0.0,0.014,-1.55,0.007,-0.875,83.97,99.4,40.501499,-3.372583,609.2,3,5,237.3,0.0
85.08,1,-0.03,-0.013,0.014,-0.029,-0.007,0.011,-1.551,0.009,-0.876,83.97,99.4,40.501499,-3.372583,609.2,3,5,237.3,0.0
85.18,1,-0.025,-0.013,0.024,-0.029,-0.01,0.019,-1.552,0.008,-0.877,83.97,99.4,40.501499,-3.372583,609.2,3,5,237.3,0.0
85.29,1,-0.028,-0.012,0.019,-0.025,-0.013,0.019,-1.554,0.007,-0.877,83.97,99.4,40.501499,-3.372583,609.2,3,5,237.3,0.0
85.38,1,-0.012,0.015,0.023,-0.026,-0.004,0.021,-1.557,0.005,-0.877,83.97,99.4,40.501499,-3.372583,609.2,3,5,237.3,0.0
85.48,1,0.003,0.008,0.018,-0.014,0.007,0.02,-1.559,0.004,-0.878,83.97,99.4,40.501499,-3.372583,609.2,3,5,237.3,0.0
85.58,1,0.042,0.04,0.026,0.013,0.018,0.025,-1.562,0.004,-0.879,83.97,99.4,40.501499,-3.372583,609.2,3,5,237.3,0.0
85.68,1,0.029,0.003,-0.005,0.033,0.018,0.011,-1.561,0.004,-0.879,83.97,99.4,40.501499,-3.372583,609.2,3,5,237.3,0.0
85.78,1,-0.025,-0.001,-0.001,0.005,0.009,-0.002,-1.561,0.005,-0.879,84.97,99.4,40.501362,-3.372854,609.6,3,5,237.0,0.352
85.88,1,-0.011,-0.005,0.017,-0.01,0.0,0.011,-1.566,0.005,-0.879,84.97,99.4,40.501362,-3.372854,609.6,3,5,237.0,0.352
85.99,1,-0.002,0.008,0.003,-0.003,0.002,0.009,-1.565,0.004,-0.88,84.97,99.4,40.501362,-3.372854,609.6,3,5,237.0,0.352
86.09,1,-0.016,0.0,0.007,-0.006,0.004,0.006,-1.564,0.004,-0.879,84.97,99.4,40.501362,-3.372854,609.6,3,5,237.0,0.352
86.18,1,-0.01,-0.017,0.021,-0.014,-0.009,0.011,-1.563,0.007,-0.878,84.97,99.4,40.501362,-3.372854,609.6,3,5,237.0,0.352
86.28,1,0.01,-0.032,0.007,-0.002,-0.017,0.013,-1.563,0.011,-0.877,84.97,99.4,40.501362,-3.372854,609.6,3,5,237.0,0.352
86.38,1,-0.002,-0.058,0.003,-0.003,-0.032,0.006,-1.563,0.015,-0.877,84.97,99.4,40.501362,-3.372854,609.6,3,5,237.0,0.352
86.48,1,-0.043,-0.03,-0.003,-0.013,-0.037,0.005,-1.565,0.017,-0.877,84.97,99.4,40.501362,-3.372854,609.6,3,5,237.0,0.352
86.58,1,0.014,0.026,-0.003,-0.012,-0.018,-0.005,-1.566,0.015,-0.878,84.97,99.4,40.501362,-3.372854,609.6,3,5,237.0,0.352
86.68,1,0.012,0.016,-0.007,0.003,0.008,-0.003,-1.565,0.013,-0.878,84.97,99.4,40.501362,-3.372854,609.6,3,5,237.0,0.352
86.78,1,-0.025,0.011,-0.04,-0.004,0.009,-0.018,-1.563,0.014,-0.878,85.95,99.7,40.501225,-3.373129,608.2,3,5,237.3,0.352
86.88,1,0.007,-0.005,-0.049,-0.006,0.006,-0.038,-1.559,0.015,-0.879,85.95,99.7,40.501225,-3.373129,608.2,3,5,237.3,0.352
87.0,1,-0.04,0.013,-0.04,-0.015,0.004,-0.036,-1.556,0.015,-0.879,85.95,99.7,40.501225,-3.373129,608.2,3,5,237.3,0.352
87.08,1,-0.008,0.015,-0.025,-0.024,0.01,-0.038,-1.553,0.014,-0.88,85.95,99.7,40.501225,-3.373129,608.2,3,5,237.3,0.352
87.18,1,0.012,0.002,-0.032,-0.004,0.013,-0.029,-1.552,0.014,-0.881,85.95,99.7,40.501225,-3.373129,608.2,3,5,237.3,0.352
87.28,1,-0.02,-0.005,-0.044,-0.001,0.003,-0.035,-1.549,0.014,-0.881,85.95,99.7,40.501225,-3.373129,608.2,3,5,237.3,0.352
87.38,1,-0.011,-0.01,-0.016,-0.014,-0.006,-0.034,-1.547,0.013,-0.882,85.95,99.7,40.501225,-3.373129,608.2,3,5,237.3,0.352
87.48,1,0.032,0.027,-0.007,0.004,0.005,-0.016,-1.545,0.01,-0.882,85.95,99.7,40.501225,-3.373129,608.2,3,5,237.3,0.352
87.58,1,-0.02,-0.008,-0.052,0.011,0.009,-0.026,-1.54,0.01,-0.882,85.95,99.7,40.501225,-3.373129,608.2,3,5,237.3,0.352
87.68,1,-0.078,-0.012,-0.048,-0.034,-0.009,-0.045,-1.537,0.012,-0.882,85.95,99.7,40.501225,-3.373129,608.2,3,5,237.3,0.352
87.78,1,-0.045,0.027,-0.008,-0.051,0.003,-0.03,-1.538,0.01,-0.882,86.96,100.4,40.501091,-3.373409,607.7,3,5,237.3,0.352
87.89,1,-0.022,0.0,-0.025,-0.047,0.01,-0.023,-1.539,0.01,-0.882,86.96,100.4,40.501091,-3.373409,607.7,3,5,237.3,0.352
87.98,1,0.003,-0.01,-0.017,-0.013,-0.0,-0.018,-1.536,0.012,-0.882,86.96,100.4,40.501091,-3.373409,607.7,3,5,237.3,0.352
88.08,1,0.032,-0.006,-0.016,0.011,-0.006,-0.019,-1.533,0.01,-0.882,86.96,100.4,40.501091,-3.373409,607.7,3,5,237.3,0.352
88.18,1,-0.023,0.017,-0.036,-0.001,0.003,-0.026,-1.532,0.008,-0.882,86.96,100.4,40.501091,-3.373409,607.7,3,5,237.3,0.352
88.28,1,-0.025,0.027,0.007,-0.017,0.016,-0.014,-1.533,0.006,-0.882,86.96,100.4,40.501091,-3.373409,607.7,3,5,237.3,0.352
88.39,1,-0.009,-0.017,-0.043,-0.019,0.003,-0.021,-1.533,0.008,-0.882,86.96,100.4,40.501091,-3.373409,607.7,3,5,237.3,0.352
88.5,1,0.03,-0.016,0.0,0.009,-0.006,-0.015,-1.53,0.008,-0.881,86.96,100.4,40.501091,-3.373409,607.7,3,5,237.3,0.352
88.58,1,0.002,-0.001,-0.036,0.011,-0.008,-0.023,-1.529,0.009,-0.881,86.96,100.4,40.501091,-3.373409,607.7,3,5,237.3,0.352
88.69,1,-0.027,0.023,-0.033,-0.006,0.006,-0.029,-1.528,0.011,-0.881,86.96,100.4,40.501091,-3.373409,607.7,3,5,237.3,0.352
88.79,1,-0.029,-0.006,0.021,-0.02,0.003,-0.012,-1.527,0.013,-0.882,87.96,99.9,40.500954,-3.373682,607.3,3,5,237.3,0.0
88.89,1,-0.029,-0.038,-0.019,-0.027,-0.014,-0.003,-1.525,0.015,-0.881,87.96,99.9,40.500954,-3.373682,607.3,3,5,237.3,0.0
88.99,1,0.015,-0.018,-0.022,-0.01,-0.021,-0.015,-1.524,0.016,-0.882,87.96,99.9,40.500954,-3.373682,607.3,3,5,237.3,0.0
89.09,1,-0.037,0.003,-0.024,-0.018,-0.007,-0.026,-1.523,0.012,-0.882,87.96,99.9,40.500954,-3.373682,607.3,3,5,237.3,0.0
89.19,1,-0.006,0.02,0.033,-0.017,0.003,0.005,-1.524,0.01,-0.881,87.96,99.9,40.500954,-3.373682,607.3,3,5,237.3,0.0
89.29,1,0.011,-0.013,-0.027,-0.003,0.001,-0.004,-1.524,0.013,-0.881,87.96,99.9,40.500954,-3.373682,607.3,3,5,237.3,0.0
89.4,1,-0.014,0.005,-0.017,-0.009,0.003,-0.016,-1.523,0.015,-0.881,87.96,99.9,40.500954,-3.373682,607.3,3,5,237.3,0.0
89.49,1,-0.003,0.022,0.008,0.001,0.008,-0.001,-1.524,0.015,-0.881,87.96,99.9,40.500954,-3.373682,607.3,3,5,237.3,0.0
89.6,1,-0.016,-0.002,-0.007,-0.013,0.007,-0.006,-1.522,0.016,-0.881,87.96,99.9,40.500954,-3.373682,607.3,3,5,237.3,0.0
89.69,1,0.034,-0.005,0.007,0.003,0.003,0.001,-1.523,0.017,-0.881,87.96,99.9,40.500954,-3.373682,607.3,3,5,237.3,0.0
89.79,1,-0.011,-0.006,-0.029,0.006,-0.002,-0.011,-1.523,0.017,-0.881,88.97,98.4,40.50082,-3.373952,607.1,3,5,237.3,0.0
89.89,1,-0.024,0.008,0.004,-0.008,-0.002,-0.009,-1.523,0.016,-0.881,88.97,98.4,40.50082,-3.373952,607.1,3,5,237.3,0.0
89.99,1,-0.047,0.027,-0.017,-0.029,0.011,-0.01,-1.522,0.014,-0.881,88.97,98.4,40.50082,-3.373952,607.1,3,5,237.3,0.0
90.1,1,-0.028,-0.0,-0.0,-0.031,0.014,-0.006,-1.522,0.014,-0.881,88.97,98.4,40.50082,-3.373952,607.1,3,5,237.3,0.0
90.19,1,-0.029,-0.011,0.008,-0.032,0.0,-0.001,-1.521,0.015,-0.881,88.97,98.4,40.50082,-3.373952,607.1,3,5,237.3,0.0
90.3,1,-0.006,0.001,-0.004,-0.016,-0.004,0.003,-1.521,0.015,-0.881,88.97,98.4,40.50082,-3.373952,607.1,3,5,237.3,0.0
90.39,1,0.019,-0.013,0.003,-0.004,-0.008,-0.003,-1.518,0.014,-0.881,88.97,98.4,40.50082,-3.373952,607.1,3,5,237.3,0.0
90.49,1,0.015,-0.006,-0.004,0.007,-0.009,-0.0,-1.517,0.014,-0.882,88.97,98.4,40.50082,-3.373952,607.1,3,5,237.3,0.0
90.59,1,-0.04,-0.021,-0.008,-0.002,-0.01,-0.002,-1.517,0.011,-0.881,88.97,98.4,40.50082,-3.373952,607.1,3,5,237.3,0.0
90.69,1,-0.034,-0.015,0.007,-0.022,-0.013,-0.001,-1.518,0.007,-0.881,88.97,98.4,40.50082,-3.373952,607.1,3,5,237.3,0.0
90.81,1,-0.032,-0.013,-0.006,-0.037,-0.018,-0.003,-1.518,0.01,-0.881,89.95,97.0,40.50069,-3.374216,606.2,3,5,237.3,0.0
90.89,1,0.009,0.003,-0.022,-0.019,-0.007,-0.01,-1.519,0.011,-0.88,89.95,97.0,40.50069,-3.374216,606.2,3,5,237.3,0.0
90.99,1,-0.005,-0.02,-0.026,-0.004,-0.007,-0.02,-1.517,0.011,-0.88,89.95,97.0,40.50069,-3.374216,606.2,3,5,237.3,0.0
91.09,1,-0.046,0.009,-0.002,-0.015,-0.001,-0.015,-1.518,0.014,-0.88,89.95,97.0,40.50069,-3.374216,606.2,3,5,237.3,0.0
91.19,1,-0.016,0.013,-0.017,-0.026,0.001,-0.015,-1.52,0.017,-0.88,89.95,97.0,40.50069,-3.374216,606.2,3,5,237.3,0.0
91.29,1,-0.004,-0.019,-0.005,-0.018,-0.002,-0.012,-1.52,0.018,-0.881,89.95,97.0,40.50069,-3.374216,606.2,3,5,237.3,0.0
91.39,1,-0.015,-0.034,-0.006,-0.01,-0.018,-0.004,-1.518,0.016,-0.88,89.95,97.0,40.50069,-3.374216,606.2,3,5,237.3,0.0
91.5,1,-0.035,-0.033,-0.003,-0.017,-0.027,-0.003,-1.519,0.02,-0.879,89.95,97.0,40.50069,-3.374216,606.2,3,5,237.3,0.0
91.59,1,-0.015,-0.011,-0.011,-0.024,-0.02,-0.009,-1.519,0.022,-0.879,89.95,97.0,40.50069,-3.374216,606.2,3,5,237.3,0.0
91.69,1,-0.006,-0.007,0.015,-0.016,-0.019,0.002,-1.519,0.022,-0.878,89.95,97.0,40.50069,-3.374216,606.2,3,5,237.3,0.0
91.79,1,0.027,0.008,0.026,0.003,-0.006,0.014,-1.52,0.021,-0.877,91.01,95.8,40.500561,-3.37448,606.1,3,5,237.3,0.0
91.89,1,0.047,-0.02,-0.003,0.028,-0.008,0.009,-1.517,0.021,-0.876,91.01,95.8,40.500561,-3.37448,606.1,3,5,237.3,0.0
91.99,1,-0.013,-0.042,0.001,0.018,-0.023,0.005,-1.516,0.027,-0.874,91.01,95.8,40.500561,-3.37448,606.1,3,5,237.3,0.0
92.1,1,-0.025,-0.035,0.005,-0.008,-0.033,0.003,-1.517,0.029,-0.873,91.01,95.8,40.500561,-3.37448,606.1,3,5,237.3,0.0
92.2,1,-0.053,-0.017,0.006,-0.032,-0.023,0.004,-1.518,0.031,-0.872,91.01,95.8,40.500561,-3.37448,606.1,3,5,237.3,0.0
92.3,1,-0.022,-0.006,0.016,-0.04,-0.014,0.011,-1.519,0.032,-0.87,91.01,95.8,40.500561,-3.37448,606.1,3,5,237.3,0.0
92.4,1,0.006,-0.022,0.008,-0.013,-0.02,0.009,-1.518,0.034,-0.869,91.01,95.8,40.500561,-3.37448,606.1,3,5,237.3,0.0
92.5,1,-0.032,-0.032,-0.001,-0.017,-0.028,0.007,-1.519,0.036,-0.867,91.01,95.8,40.500561,-3.37448,606.1,3,5,237.3,0.0
92.6,1,-0.028,-0.019,0.019,-0.025,-0.023,0.006,-1.52,0.035,-0.866,91.01,95.8,40.500561,-3.37448,606.1,3,5,237.3,0.0
92.71,1,0.025,-0.021,0.032,-0.003,-0.018,0.022,-1.523,0.036,-0.864,91.01,95.8,40.500561,-3.37448,606.1,3,5,237.3,0.0
92.81,1,-0.028,-0.045,-0.013,-0.006,-0.028,0.01,-1.522,0.039,-0.862,92.01,94.6,40.500427,-3.37474,607.5,3,5,237.0,0.352
92.9,1,0.008,-0.03,0.009,-0.002,-0.031,0.003,-1.522,0.04,-0.861,92.01,94.6,40.500427,-3.37474,607.5,3,5,237.0,0.352
93.0,1,0.033,-0.032,0.032,0.011,-0.036,0.017,-1.525,0.043,-0.859,92.01,94.6,40.500427,-3.37474,607.5,3,5,237.0,0.352
93.1,1,-0.004,-0.029,0.024,0.007,-0.032,0.023,-1.527,0.046,-0.857,92.01,94.6,40.500427,-3.37474,607.5,3,5,237.0,0.352
93.2,1,0.02,-0.015,0.033,0.014,-0.024,0.026,-1.53,0.046,-0.855,92.01,94.6,40.500427,-3.37474,607.5,3,5,237.0,0.352
93.3,1,-0.034,-0.032,0.023,-0.006,-0.027,0.029,-1.533,0.048,-0.853,92.01,94.6,40.500427,-3.37474,607.5,3,5,237.0,0.352
93.4,1,-0.021,-0.035,0.019,-0.016,-0.028,0.021,-1.537,0.048,-0.851,92.01,94.6,40.500427,-3.37474,607.5,3,5,237.0,0.352
93.5,1,0.002,-0.005,0.023,-0.012,-0.022,0.021,-1.539,0.049,-0.849,92.01,94.6,40.500427,-3.37474,607.5,3,5,237.0,0.352
93.6,1,-0.006,-0.007,0.043,-0.006,-0.011,0.031,-1.542,0.048,-0.847,92.01,94.6,40.500427,-3.37474,607.5,3,5,237.0,0.352
93.71,1,-0.003,-0.012,0.039,-0.005,-0.008,0.036,-1.544,0.048,-0.845,92.01,94.6,40.500427,-3.37474,607.5,3,5,237.0,0.352
93.8,1,0.001,-0.017,0.05,-0.001,-0.011,0.048,-1.548,0.048,-0.842,92.97,94.0,40.500298,-3.374993,606.1,3,5,236.6,0.703
93.91,1,0.019,0.0,0.042,0.007,-0.016,0.043,-1.551,0.047,-0.841,92.97,94.0,40.500298,-3.374993,606.1,3,5,236.6,0.703
94.02,1,-0.039,-0.02,0.044,-0.011,-0.016,0.039,-1.556,0.046,-0.839,92.97,94.0,40.500298,-3.374993,606.1,3,5,236.6,0.703
94.1,1,-0.022,0.019,0.066,-0.019,0.003,0.054,-1.561,0.043,-0.838,92.97,94.0,40.500298,-3.374993,606.1,3,5,236.6,0.703
94.2,1,-0.003,0.02,0.051,-0.011,0.017,0.057,-1.566,0.04,-0.837,92.97,94.0,40.500298,-3.374993,606.1,3,5,236.6,0.703
94.31,1,-0.008,0.02,0.035,-0.009,0.016,0.044,-1.571,0.038,-0.836,92.97,94.0,40.500298,-3.374993,606.1,3,5,236.6,0.703
94.42,1,-0.011,0.018,0.05,-0.01,0.016,0.046,-1.574,0.037,-0.836,92.97,94.0,40.500298,-3.374993,606.1,3,5,236.6,0.703
94.5,1,-0.023,0.015,0.043,-0.015,0.017,0.047,-1.578,0.034,-0.836,92.97,94.0,40.500298,-3.374993,606.1,3,5,236.6,0.703
94.6,1,-0.036,0.021,0.044,-0.025,0.018,0.044,-1.583,0.029,-0.836,92.97,94.0,40.500298,-3.374993,606.1,3,5,236.6,0.703
94.7,1,-0.008,0.019,0.052,-0.022,0.017,0.046,-1.587,0.028,-0.836,92.97,94.0,40.500298,-3.374993,606.1,3,5,236.6,0.703
94.8,1,-0.008,0.014,0.043,-0.011,0.017,0.047,-1.59,0.024,-0.837,93.97,92.5,40.500164,-3.375244,605.7,3,5,235.5,1.406
94.91,1,-0.009,0.014,0.048,-0.012,0.015,0.046,-1.593,0.02,-0.837,93.97,92.5,40.500164,-3.375244,605.7,3,5,235.5,1.406
95.0,1,-0.008,0.028,0.059,-0.005,0.024,0.052,-1.594,0.018,-0.838,93.97,92.5,40.500164,-3.375244,605.7,3,5,235.5,1.406
95.11,1,-0.015,0.032,0.033,-0.012,0.027,0.045,-1.594,0.013,-0.839,93.97,92.5,40.500164,-3.375244,605.7,3,5,235.5,1.406
95.21,1,-0.022,0.033,0.04,-0.019,0.03,0.043,-1.597,0.009,-0.839,93.97,92.5,40.500164,-3.375244,605.7,3,5,235.5,1.406
95.3,1,0.017,0.04,0.049,-0.006,0.033,0.041,-1.6,0.004,-0.841,93.97,92.5,40.500164,-3.375244,605.7,3,5,235.5,1.406
95.4,1,0.008,0.037,0.035,0.01,0.039,0.041,-1.603,-0.001,-0.843,93.97,92.5,40.500164,-3.375244,605.7,3,5,235.5,1.406
95.51,1,-0.027,0.05,0.038,-0.006,0.045,0.039,-1.604,-0.007,-0.845,93.97,92.5,40.500164,-3.375244,605.7,3,5,235.5,1.406
95.61,1,-0.002,0.067,0.03,-0.011,0.048,0.039,-1.608,-0.012,-0.847,93.97,92.5,40.500164,-3.375244,605.7,3,5,235.5,1.406
95.71,1,-0.01,0.041,0.007,-0.006,0.051,0.023,-1.608,-0.017,-0.849,93.97,92.5,40.500164,-3.375244,605.7,3,5,235.5,1.406
95.81,1,-0.032,0.007,0.027,-0.02,0.035,0.019,-1.611,-0.02,-0.85,94.97,93.7,40.500027,-3.375493,605.8,3,5,234.5,2.109
95.91,1,-0.031,0.005,0.017,-0.029,0.015,0.019,-1.617,-0.019,-0.852,94.97,93.7,40.500027,-3.375493,605.8,3,5,234.5,2.109
96.01,1,0.059,0.015,0.04,0.013,0.008,0.029,-1.62,-0.019,-0.854,94.97,93.7,40.500027,-3.375493,605.8,3,5,234.5,2.109
96.11,1,0.005,0.019,-0.011,0.018,0.015,0.016,-1.621,-0.022,-0.856,94.97,93.7,40.500027,-3.375493,605.8,3,5,234.5,2.109
96.21,1,-0.024,0.004,0.031,-0.007,0.015,0.013,-1.622,-0.023,-0.857,94.97,93.7,40.500027,-3.375493,605.8,3,5,234.5,2.109
96.31,1,-0.023,-0.004,0.02,-0.007,0.005,0.021,-1.625,-0.022,-0.858,94.97,93.7,40.500027,-3.375493,605.8,3,5,234.5,2.109
96.41,1,-0.045,0.007,-0.001,-0.036,0.005,0.01,-1.626,-0.021,-0.86,94.97,93.7,40.500027,-3.375493,605.8,3,5,234.5,2.109
96.51,1,-0.006,-0.009,0.022,-0.03,-0.003,0.015,-1.627,-0.02,-0.86,94.97,93.7,40.500027,-3.375493,605.8,3,5,234.5,2.109
96.61,1,0.019,-0.012,-0.002,0.001,-0.009,0.01,-1.629,-0.018,-0.862,94.97,93.7,40.500027,-3.375493,605.8,3,5,234.5,2.109
96.71,1,0.019,-0.001,0.001,0.011,-0.003,0.001,-1.63,-0.019,-0.863,94.97,93.7,40.500027,-3.375493,605.8,3,5,234.5,2.109
96.82,1,0.005,0.003,0.001,0.014,0.001,0.004,-1.632,-0.019,-0.864,95.97,96.6,40.499889,-3.375748,605.9,3,5,235.5,2.109
96.91,1,-0.007,0.008,-0.006,0.0,0.001,-0.002,-1.631,-0.018,-0.865,95.97,96.6,40.499889,-3.375748,605.9,3,5,235.5,2.109
97.01,1,-0.003,-0.01,0.004,-0.001,-0.001,0.001,-1.631,-0.018,-0.866,95.97,96.6,40.499889,-3.375748,605.9,3,5,235.5,2.109
97.12,1,-0.012,-0.001,-0.018,-0.008,-0.004,-0.006,-1.632,-0.016,-0.867,95.97,96.6,40.499889,-3.375748,605.9,3,5,235.5,2.109
97.21,1,-0.011,-0.012,0.008,-0.01,-0.005,-0.004,-1.634,-0.016,-0.868,95.97,96.6,40.499889,-3.375748,605.9,3,5,235.5,2.109
97.31,1,-0.032,-0.005,-0.02,-0.016,-0.008,-0.007,-1.634,-0.016,-0.868,95.97,96.6,40.499889,-3.375748,605.9,3,5,235.5,2.109
97.41,1,-0.051,0.018,-0.022,-0.033,-0.001,-0.012,-1.633,-0.018,-0.869,95.97,96.6,40.499889,-3.375748,605.9,3,5,235.5,2.109
97.51,1,-0.019,0.005,0.019,-0.033,0.01,-0.006,-1.634,-0.02,-0.869,95.97,96.6,40.499889,-3.375748,605.9,3,5,235.5,2.109
97.61,1,0.007,-0.017,-0.022,-0.014,-0.001,-0.004,-1.633,-0.02,-0.87,95.97,96.6,40.499889,-3.375748,605.9,3,5,235.5,2.109
97.71,1,-0.004,0.019,-0.021,-0.002,0.002,-0.017,-1.631,-0.02,-0.872,95.97,96.6,40.499889,-3.375748,605.9,3,5,235.5,2.109
97.81,1,0.011,-0.003,-0.006,0.002,0.004,-0.017,-1.633,-0.018,-0.873,96.95,99.1,40.499756,-3.376016,606.1,3,5,236.2,1.758
97.91,1,-0.054,0.002,-0.032,-0.023,0.002,-0.014,-1.634,-0.018,-0.873,96.95,99.1,40.499756,-3.376016,606.1,3,5,236.2,1.758
98.02,1,-0.034,-0.006,-0.039,-0.035,-0.001,-0.033,-1.632,-0.017,-0.874,96.95,99.1,40.499756,-3.376016,606.1,3,5,236.2,1.758
98.11,1,-0.025,-0.01,-0.01,-0.021,-0.003,-0.022,-1.633,-0.018,-0.875,96.95,99.1,40.499756,-3.376016,606.1,3,5,236.2,1.758
98.22,1,0.003,0.0,-0.002,-0.022,-0.004,-0.012,-1.633,-0.019,-0.876,96.95,99.1,40.499756,-3.376016,606.1,3,5,236.2,1.758
98.32,1,0.035,0.008,-0.015,0.009,0.003,-0.013,-1.631,-0.02,-0.877,96.95,99.1,40.499756,-3.376016,606.1,3,5,236.2,1.758
98.42,1,0.017,0.012,-0.026,0.023,0.01,-0.018,-1.629,-0.021,-0.878,96.95,99.1,40.499756,-3.376016,606.1,3,5,236.2,1.758
98.51,1,0.041,0.01,-0.021,0.02,0.007,-0.021,-1.627,-0.021,-0.878,96.95,99.1,40.499756,-3.376016,606.1,3,5,236.2,1.758
98.62,1,0.008,-0.008,-0.008,0.024,-0.001,-0.016,-1.626,-0.021,-0.879,96.95,99.1,40.499756,-3.376016,606.1,3,5,236.2,1.758
98.72,1,0.018,-0.011,-0.013,0.018,-0.004,-0.015,-1.624,-0.021,-0.88,96.95,99.1,40.499756,-3.376016,606.1,3,5,236.2,1.758
98.82,1,-0.067,-0.027,-0.023,-0.015,-0.014,-0.015,-1.622,-0.02,-0.88,97.97,103.2,40.499611,-3.376295,605.5,3,5,235.5,0.703
98.91,1,-0.037,-0.031,-0.016,-0.041,-0.025,-0.019,-1.622,-0.017,-0.88,97.97,103.2,40.499611,-3.376295,605.5,3,5,235.5,0.703
99.02,1,-0.015,-0.021,0.01,-0.024,-0.023,-0.004,-1.623,-0.015,-0.881,97.97,103.2,40.499611,-3.376295,605.5,3,5,235.5,0.703
99.12,1,-0.04,0.007,-0.005,-0.029,-0.01,-0.002,-1.623,-0.015,-0.882,97.97,103.2,40.499611,-3.376295,605.5,3,5,235.5,0.703
99.23,1,0.004,-0.006,-0.014,-0.022,-0.006,-0.01,-1.622,-0.014,-0.882,97.97,103.2,40.499611,-3.376295,605.5,3,5,235.5,0.703
99.32,1,0.007,-0.009,0.01,-0.005,-0.008,-0.0,-1.622,-0.013,-0.882,97.97,103.2,40.499611,-3.376295,605.5,3,5,235.5,0.703
99.42,1,0.011,-0.005,-0.025,0.007,-0.007,-0.007,-1.621,-0.012,-0.883,97.97,103.2,40.499611,-3.376295,605.5,3,5,235.5,0.703
99.52,1,-0.037,-0.033,0.014,-0.014,-0.023,-0.006,-1.618,-0.012,-0.883,97.97,103.2,40.499611,-3.376295,605.5,3,5,235.5,0.703
99.62,1,-0.0,-0.017,0.008,-0.01,-0.014,0.004,-1.619,-0.013,-0.883,97.97,103.2,40.499611,-3.376295,605.5,3,5,235.5,0.703
99.72,1,-0.041,-0.032,-0.021,-0.019,-0.024,0.001,-1.618,-0.01,-0.883,97.97,103.2,40.499611,-3.376295,605.5,3,5,235.5,0.703
99.82,1,0.001,0.002,-0.031,-0.016,-0.014,-0.021,-1.617,-0.01,-0.883,98.99,104.7,40.499462,-3.376578,607.5,3,5,235.9,0.352
99.92,1,-0.02,-0.019,-0.004,-0.018,-0.012,-0.019,-1.617,-0.005,-0.883,98.99,104.7,40.499462,-3.376578,607.5,3,5,235.9,0.352
100.02,1,-0.03,-0.001,-0.006,-0.022,-0.01,-0.006,-1.616,-0.004,-0.884,98.99,104.7,40.499462,-3.376578,607.5,3,5,235.9,0.352
100.12,1,-0.012,0.018,-0.008,-0.018,0.005,-0.005,-1.615,-0.005,-0.884,98.99,104.7,40.499462,-3.376578,607.5,3,5,235.9,0.352
100.22,1,0.02,0.004,-0.028,-0.001,0.006,-0.017,-1.612,-0.004,-0.884,98.99,104.7,40.499462,-3.376578,607.5,3,5,235.9,0.352
100.32,1,-0.011,0.008,-0.035,0.0,0.005,-0.031,-1.611,-0.002,-0.885,98.99,104.7,40.499462,-3.376578,607.5,3,5,235.9,0.352
100.42,1,0.012,-0.007,-0.015,0.002,0.0,-0.024,-1.61,0.001,-0.885,98.99,104.7,40.499462,-3.376578,607.5,3,5,235.9,0.352
100.52,1,-0.001,-0.011,-0.011,0.002,-0.007,-0.016,-1.607,0.0,-0.885,98.99,104.7,40.499462,-3.376578,607.5,3,5,235.9,0.352
100.63,1,-0.033,-0.008,0.006,-0.013,-0.006,-0.009,-1.605,-0.0,-0.885,98.99,104.7,40.499462,-3.376578,607.5,3,5,235.9,0.352
100.73,1,0.026,-0.012,-0.025,-0.006,-0.01,-0.004,-1.604,0.001,-0.885,98.99,104.7,40.499462,-3.376578,607.5,3,5,235.9,0.352
100.82,1,-0.051,0.004,-0.047,-0.011,-0.007,-0.029,-1.602,0.0,-0.885,99.95,108.1,40.499306,-3.376867,609.9,3,5,235.9,0.352
100.93,1,-0.06,0.002,-0.01,-0.039,0.005,-0.028,-1.6,-0.002,-0.885,99.95,108.1,40.499306,-3.376867,609.9,3,5,235.9,0.352
101.02,1,-0.047,-0.022,0.006,-0.054,-0.005,-0.014,-1.6,-0.002,-0.885,99.95,108.1,40.499306,-3.376867,609.9,3,5,235.9,0.352
101.12,1,-0.006,-0.018,-0.023,-0.027,-0.018,-0.002,-1.598,0.003,-0.885,99.95,108.1,40.499306,-3.376867,609.9,3,5,235.9,0.352
101.22,1,0.005,0.0,-0.027,-0.004,-0.013,-0.021,-1.597,0.007,-0.884,99.95,108.1,40.499306,-3.376867,609.9,3,5,235.9,0.352
101.33,1,0.001,0.018,-0.021,-0.004,0.004,-0.026,-1.596,0.008,-0.885,99.95,108.1,40.499306,-3.376867,609.9,3,5,235.9,0.352
101.42,1,-0.038,0.006,-0.022,-0.017,0.008,-0.023,-1.595,0.012,-0.885,99.95,108.1,40.499306,-3.376867,609.9,3,5,235.9,0.352
101.52,1,-0.071,0.022,0.004,-0.046,0.009,-0.009,-1.594,0.011,-0.885,99.95,108.1,40.499306,-3.376867,609.9,3,5,235.9,0.352
101.62,1,0.001,0.01,0.014,-0.03,0.015,0.004,-1.595,0.012,-0.885,99.95,108.1,40.499306,-3.376867,609.9,3,5,235.9,0.352
101.72,1,0.011,0.014,-0.045,-0.011,0.015,-0.014,-1.594,0.014,-0.886,99.95,108.1,40.499306,-3.376867,609.9,3,5,235.9,0.352
101.82,1,-0.01,0.013,0.006,-0.003,0.015,-0.015,-1.594,0.014,-0.886,100.95,107.6,40.499161,-3.377158,609.5,3,5,236.2,0.352
101.92,1,-0.016,0.027,-0.023,-0.009,0.019,-0.011,-1.594,0.013,-0.887,100.95,107.6,40.499161,-3.377158,609.5,3,5,236.2,0.352
102.03,1,0.022,0.015,-0.024,0.001,0.019,-0.02,-1.592,0.011,-0.887,100.95,107.6,40.499161,-3.377158,609.5,3,5,236.2,0.352
102.13,1,-0.031,0.021,-0.026,-0.011,0.018,-0.025,-1.592,0.01,-0.888,100.95,107.6,40.499161,-3.377158,609.5,3,5,236.2,0.352
102.22,1,0.004,-0.003,-0.025,-0.008,0.009,-0.025,-1.589,0.009,-0.888,100.95,107.6,40.499161,-3.377158,609.5,3,5,236.2,0.352
102.33,1,0.025,0.002,-0.04,0.009,0.006,-0.032,-1.585,0.006,-0.889,100.95,107.6,40.499161,-3.377158,609.5,3,5,236.2,0.352
102.43,1,0.027,-0.002,-0.02,0.024,0.003,-0.028,-1.579,0.004,-0.89,100.95,107.6,40.499161,-3.377158,609.5,3,5,236.2,0.352
102.53,1,-0.017,0.02,-0.03,0.011,0.006,-0.027,-1.574,0.001,-0.89,100.95,107.6,40.499161,-3.377158,609.5,3,5,236.2,0.352
102.63,1,-0.087,0.025,-0.045,-0.04,0.019,-0.038,-1.575,0.0,-0.891,100.95,107.6,40.499161,-3.377158,609.5,3,5,236.2,0.352
102.73,1,-0.038,-0.02,0.026,-0.049,0.002,-0.008,-1.579,-0.001,-0.89,100.95,107.6,40.499161,-3.377158,609.5,3,5,236.2,0.352
102.83,1,-0.051,-0.014,-0.065,-0.055,-0.01,-0.022,-1.576,-0.001,-0.891,101.96,109.7,40.499008,-3.377455,608.4,3,5,235.9,0.352
102.93,1,-0.032,0.014,-0.056,-0.047,-0.002,-0.052,-1.576,0.0,-0.891,101.96,109.7,40.499008,-3.377455,608.4,3,5,235.9,0.352
103.03,1,0.009,0.016,0.014,-0.009,0.012,-0.023,-1.578,-0.0,-0.891,101.96,109.7,40.499008,-3.377455,608.4,3,5,235.9,0.352
103.13,1,0.02,-0.022,-0.022,0.002,0.001,-0.015,-1.573,-0.0,-0.891,101.96,109.7,40.499008,-3.377455,608.4,3,5,235.9,0.352
103.23,1,0.004,-0.051,-0.027,0.004,-0.027,-0.016,-1.571,0.003,-0.891,101.96,109.7,40.499008,-3.377455,608.4,3,5,235.9,0.352
103.33,1,0.053,-0.026,-0.027,0.037,-0.038,-0.027,-1.569,0.005,-0.891,101.96,109.7,40.499008,-3.377455,608.4,3,5,235.9,0.352
103.44,1,-0.053,-0.01,-0.03,0.002,-0.02,-0.03,-1.568,0.006,-0.892,101.96,109.7,40.499008,-3.377455,608.4,3,5,235.9,0.352
103.53,1,-0.069,-0.012,-0.034,-0.054,-0.017,-0.033,-1.569,0.002,-0.892,101.96,109.7,40.499008,-3.377455,608.4,3,5,235.9,0.352
103.63,1,-0.047,0.037,-0.004,-0.047,0.005,-0.02,-1.568,-0.001,-0.893,101.96,109.7,40.499008,-3.377455,608.4,3,5,235.9,0.352
103.73,1,-0.021,0.011,-0.008,-0.039,0.018,-0.012,-1.568,-0.001,-0.893,101.96,109.7,40.499008,-3.377455,608.4,3,5,235.9,0.352
103.83,1,0.027,0.021,0.025,-0.013,0.02,0.004,-1.569,-0.003,-0.894,102.95,109.6,40.498859,-3.377762,605.6,3,5,236.2,0.352
103.93,1,0.028,0.011,0.014,0.015,0.016,0.013,-1.567,-0.005,-0.895,102.95,109.6,40.498859,-3.377762,605.6,3,5,236.2,0.352
104.03,1,0.014,-0.014,0.012,0.021,0.004,0.013,-1.567,-0.004,-0.896,102.95,109.6,40.498859,-3.377762,605.6,3,5,236.2,0.352
104.13,1,-0.024,0.011,0.002,0.003,0.002,0.01,-1.569,-0.005,-0.897,102.95,109.6,40.498859,-3.377762,605.6,3,5,236.2,0.352
104.23,1,-0.047,0.021,-0.002,-0.024,0.013,0.001,-1.57,-0.007,-0.898,102.95,109.6,40.498859,-3.377762,605.6,3,5,236.2,0.352
104.33,1,-0.074,-0.002,0.015,-0.051,0.01,0.007,-1.572,-0.007,-0.899,102.95,109.6,40.498859,-3.377762,605.6,3,5,236.2,0.352
104.43,1,-0.042,0.016,-0.004,-0.053,0.005,0.003,-1.573,-0.007,-0.899,102.95,109.6,40.498859,-3.377762,605.6,3,5,236.2,0.352
104.53,1,-0.01,0.01,0.02,-0.032,0.01,0.007,-1.573,-0.01,-0.9,102.95,109.6,40.498859,-3.377762,605.6,3,5,236.2,0.352
104.63,1,0.009,0.009,0.034,-0.013,0.016,0.026,-1.575,-0.011,-0.9,102.95,109.6,40.498859,-3.377762,605.6,3,5,236.2,0.352
104.74,1,0.021,-0.02,-0.017,0.008,-0.004,0.006,-1.573,-0.009,-0.901,102.95,109.6,40.498859,-3.377762,605.6,3,5,236.2,0.352
104.84,1,0.03,-0.004,0.016,0.02,-0.008,0.007,-1.571,-0.007,-0.901,103.95,109.4,40.498703,-3.37806,606.3,3,5,236.2,0.352
104.94,1,0.005,0.006,-0.014,0.018,-0.002,0.001,-1.57,-0.005,-0.902,103.95,109.4,40.498703,-3.37806,606.3,3,5,236.2,0.352
105.03,1,-0.02,0.001,0.006,-0.003,0.002,-0.004,-1.571,-0.003,-0.902,103.95,109.4,40.498703,-3.37806,606.3,3,5,236.2,0.352
105.13,1,-0.032,-0.013,0.001,-0.018,-0.007,0.002,-1.571,-0.001,-0.903,103.95,109.4,40.498703,-3.37806,606.3,3,5,236.2,0.352
105.23,1,-0.007,-0.008,0.005,-0.019,-0.009,0.003,-1.572,0.001,-0.903,103.95,109.4,40.498703,-3.37806,606.3,3,5,236.2,0.352
105.33,1,0.026,0.01,0.021,0.001,0.002,0.012,-1.573,0.002,-0.903,103.95,109.4,40.498703,-3.37806,606.3,3,5,236.2,0.352
105.44,1,0.002,-0.006,-0.002,0.011,0.002,0.007,-1.573,0.005,-0.903,103.95,109.4,40.498703,-3.37806,606.3,3,5,236.2,0.352
105.53,1,-0.027,-0.038,0.007,-0.008,-0.019,0.004,-1.573,0.007,-0.901,103.95,109.4,40.498703,-3.37806,606.3,3,5,236.2,0.352
105.64,1,-0.035,-0.057,0.013,-0.026,-0.041,0.01,-1.575,0.014,-0.899,103.95,109.4,40.498703,-3.37806,606.3,3,5,236.2,0.352
105.73,1,0.006,-0.047,0.002,-0.015,-0.046,0.009,-1.576,0.018,-0.898,103.95,109.4,40.498703,-3.37806,606.3,3,5,236.2,0.352
105.84,1,0.004,-0.027,0.012,-0.0,-0.038,0.007,-1.575,0.021,-0.897,104.95,110.7,40.49855,-3.378357,606.2,3,5,236.6,0.352
105.94,1,-0.03,-0.013,0.005,-0.008,-0.028,0.005,-1.575,0.022,-0.897,104.95,110.7,40.49855,-3.378357,606.2,3,5,236.6,0.352
106.04,1,-0.043,-0.008,0.006,-0.025,-0.013,0.006,-1.577,0.021,-0.896,104.95,110.7,40.49855,-3.378357,606.2,3,5,236.6,0.352
106.14,1,-0.019,-0.008,0.006,-0.033,-0.012,0.006,-1.576,0.019,-0.896,104.95,110.7,40.49855,-3.378357,606.2,3,5,236.6,0.352
106.24,1,-0.016,0.024,-0.001,-0.021,0.002,0.006,-1.577,0.018,-0.897,104.95,110.7,40.49855,-3.378357,606.2,3,5,236.6,0.352
106.34,1,-0.007,0.019,0.009,-0.015,0.014,0.007,-1.578,0.016,-0.897,104.95,110.7,40.49855,-3.378357,606.2,3,5,236.6,0.352
106.44,1,0.01,0.009,-0.022,-0.002,0.016,-0.005,-1.575,0.011,-0.897,104.95,110.7,40.49855,-3.378357,606.2,3,5,236.6,0.352
106.54,1,-0.025,-0.003,-0.043,-0.007,0.011,-0.024,-1.573,0.009,-0.897,104.95,110.7,40.49855,-3.378357,606.2,3,5,236.6,0.352
106.64,1,-0.006,0.005,-0.038,-0.01,0.002,-0.036,-1.569,0.007,-0.897,104.95,110.7,40.49855,-3.378357,606.2,3,5,236.6,0.352
106.74,1,-0.043,0.018,-0.02,-0.027,0.014,-0.029,-1.565,0.008,-0.898,104.95,110.7,40.49855,-3.378357,606.2,3,5,236.6,0.352
106.84,1,-0.009,0.017,-0.04,-0.024,0.01,-0.035,-1.56,0.006,-0.898,105.95,111.1,40.498398,-3.378659,605.6,3,5,236.2,0.352
106.94,1,-0.047,0.019,-0.04,-0.026,0.015,-0.033,-1.556,0.007,-0.898,105.95,111.1,40.498398,-3.378659,605.6,3,5,236.2,0.352
107.04,1,0.007,0.022,-0.029,-0.015,0.021,-0.035,-1.554,0.007,-0.899,105.95,111.1,40.498398,-3.378659,605.6,3,5,236.2,0.352
107.14,1,0.014,0.02,-0.028,0.005,0.021,-0.031,-1.553,0.008,-0.899,105.95,111.1,40.498398,-3.378659,605.6,3,5,236.2,0.352
107.24,1,0.001,-0.009,-0.041,-0.002,0.006,-0.035,-1.551,0.008,-0.899,105.95,111.1,40.498398,-3.378659,605.6,3,5,236.2,0.352
107.34,1,0.034,-0.0,-0.037,0.014,0.003,-0.037,-1.547,0.009,-0.9,105.95,111.1,40.498398,-3.378659,605.6,3,5,236.2,0.352
107.44,1,-0.063,0.026,-0.036,-0.007,0.011,-0.037,-1.547,0.007,-0.901,105.95,111.1,40.498398,-3.378659,605.6,3,5,236.2,0.352
107.54,1,-0.007,0.02,-0.012,-0.024,0.02,-0.029,-1.544,0.007,-0.901,105.95,111.1,40.498398,-3.378659,605.6,3,5,236.2,0.352
107.64,1,0.038,-0.002,-0.005,0.005,0.007,-0.011,-1.541,0.007,-0.901,105.95,111.1,40.498398,-3.378659,605.6,3,5,236.2,0.352
107.74,1,0.038,-0.004,-0.059,0.028,0.001,-0.032,-1.538,0.007,-0.902,105.95,111.1,40.498398,-3.378659,605.6,3,5,236.2,0.352
107.84,1,-0.039,-0.014,-0.031,-0.002,-0.003,-0.037,-1.54,0.008,-0.902,106.99,111.6,40.498249,-3.378967,605.3,3,5,236.2,0.352
107.94,1,-0.022,0.018,-0.009,-0.016,0.001,-0.025,-1.541,0.006,-0.902,106.99,111.6,40.498249,-3.378967,605.3,3,5,236.2,0.352
108.04,1,-0.008,-0.003,-0.0,-0.017,0.002,-0.011,-1.539,0.005,-0.903,106.99,111.6,40.498249,-3.378967,605.3,3,5,236.2,0.352
108.14,1,0.022,0.004,-0.007,0.002,0.001,-0.007,-1.537,0.004,-0.902,106.99,111.6,40.498249,-3.378967,605.3,3,5,236.2,0.352
108.24,1,0.028,-0.029,-0.046,0.019,-0.008,-0.021,-1.534,0.006,-0.902,106.99,111.6,40.498249,-3.378967,605.3,3,5,236.2,0.352
108.34,1,-0.019,-0.024,-0.023,0.007,-0.021,-0.029,-1.532,0.011,-0.901,106.99,111.6,40.498249,-3.378967,605.3,3,5,236.2,0.352
108.44,1,-0.025,-0.005,0.003,-0.013,-0.015,-0.018,-1.531,0.013,-0.901,106.99,111.6,40.498249,-3.378967,605.3,3,5,236.2,0.352
108.54,1,-0.017,-0.018,0.0,-0.016,-0.011,-0.003,-1.531,0.012,-0.901,106.99,111.6,40.498249,-3.378967,605.3,3,5,236.2,0.352
108.64,1,-0.003,-0.028,-0.019,-0.013,-0.024,-0.009,-1.529,0.012,-0.9,106.99,111.6,40.498249,-3.378967,605.3,3,5,236.2,0.352
108.75,1,-0.012,-0.008,-0.015,-0.011,-0.017,-0.013,-1.528,0.013,-0.9,106.99,111.6,40.498249,-3.378967,605.3,3,5,236.2,0.352
108.84,1,-0.007,-0.0,-0.007,-0.012,-0.005,-0.01,-1.527,0.015,-0.9,107.95,110.2,40.498096,-3.379268,605.3,3,5,236.6,0.352
108.94,1,0.007,0.001,-0.019,-0.001,-0.007,-0.014,-1.527,0.016,-0.899,107.95,110.2,40.498096,-3.379268,605.3,3,5,236.6,0.352
109.04,1,0.019,0.012,0.016,0.014,0.006,-0.005,-1.525,0.016,-0.899,107.95,110.2,40.498096,-3.379268,605.3,3,5,236.6,0.352
109.15,1,0.007,0.001,-0.019,0.004,0.005,-0.005,-1.525,0.017,-0.899,107.95,110.2,40.498096,-3.379268,605.3,3,5,236.6,0.352
109.25,1,-0.02,-0.008,-0.017,-0.001,-0.002,-0.013,-1.523,0.017,-0.899,107.95,110.2,40.498096,-3.379268,605.3,3,5,236.6,0.352
109.35,1,-0.018,0.005,-0.009,-0.016,-0.002,-0.013,-1.52,0.016,-0.899,107.95,110.2,40.498096,-3.379268,605.3,3,5,236.6,0.352
109.45,1,0.01,0.03,-0.006,-0.002,0.012,-0.005,-1.52,0.014,-0.9,107.95,110.2,40.498096,-3.379268,605.3,3,5,236.6,0.352
109.55,1,-0.025,0.006,-0.023,-0.009,0.015,-0.015,-1.519,0.011,-0.9,107.95,110.2,40.498096,-3.379268,605.3,3,5,236.6,0.352
109.65,1,-0.046,0.018,0.008,-0.022,0.012,-0.012,-1.519,0.008,-0.9,107.95,110.2,40.498096,-3.379268,605.3,3,5,236.6,0.352
109.75,1,-0.048,0.019,-0.01,-0.048,0.02,-0.001,-1.52,0.006,-0.9,107.95,110.2,40.498096,-3.379268,605.3,3,5,236.6,0.352
109.85,1,-0.012,0.006,-0.014,-0.028,0.014,-0.007,-1.519,0.005,-0.901,108.99,109.1,40.497944,-3.379567,604.4,3,5,236.2,0.352
109.95,1,-0.003,-0.008,0.003,-0.016,0.004,-0.008,-1.517,0.006,-0.901,108.99,109.1,40.497944,-3.379567,604.4,3,5,236.2,0.352
110.05,1,-0.004,-0.021,-0.021,-0.01,-0.009,-0.009,-1.514,0.01,-0.901,108.99,109.1,40.497944,-3.379567,604.4,3,5,236.2,0.352
110.15,1,-0.018,-0.007,0.004,-0.008,-0.014,-0.009,-1.514,0.012,-0.901,108.99,109.1,40.497944,-3.379567,604.4,3,5,236.2,0.352
110.26,1,-0.003,-0.004,-0.01,-0.013,-0.006,-0.009,-1.514,0.013,-0.901,108.99,109.1,40.497944,-3.379567,604.4,3,5,236.2,0.352
110.35,1,0.029,0.003,-0.005,0.008,-0.004,-0.006,-1.513,0.012,-0.901,108.99,109.1,40.497944,-3.379567,604.4,3,5,236.2,0.352
110.46,1,-0.009,0.007,-0.004,0.01,0.004,-0.005,-1.511,0.011,-0.901,108.99,109.1,40.497944,-3.379567,604.4,3,5,236.2,0.352
110.56,1,-0.013,-0.006,0.007,-0.004,-0.001,0.002,-1.512,0.012,-0.901,108.99,109.1,40.497944,-3.379567,604.4,3,5,236.2,0.352
110.65,1,-0.034,0.016,0.018,-0.019,0.006,0.008,-1.513,0.013,-0.901,108.99,109.1,40.497944,-3.379567,604.4,3,5,236.2,0.352
110.75,1,-0.032,0.002,0.022,-0.032,0.009,0.017,-1.516,0.016,-0.901,108.99,109.1,40.497944,-3.379567,604.4,3,5,236.2,0.352
110.85,1,-0.033,-0.005,-0.004,-0.022,-0.007,0.01,-1.518,0.018,-0.901,109.95,107.6,40.497795,-3.379859,604.0,3,5,236.2,0.352
110.96,1,-0.013,0.006,0.043,-0.025,0.004,0.016,-1.52,0.019,-0.901,109.95,107.6,40.497795,-3.379859,604.0,3,5,236.2,0.352
111.06,1,0.014,0.018,0.022,-0.008,0.013,0.028,-1.522,0.017,-0.901,109.95,107.6,40.497795,-3.379859,604.0,3,5,236.2,0.352
111.16,1,-0.01,-0.006,0.016,-0.003,0.005,0.02,-1.521,0.016,-0.901,109.95,107.6,40.497795,-3.379859,604.0,3,5,236.2,0.352
111.25,1,-0.019,-0.012,0.04,-0.013,-0.007,0.028,-1.524,0.015,-0.9,109.95,107.6,40.497795,-3.379859,604.0,3,5,236.2,0.352
111.35,1,-0.008,-0.001,0.028,-0.013,-0.007,0.031,-1.527,0.015,-0.9,109.95,107.6,40.497795,-3.379859,604.0,3,5,236.2,0.352
111.45,1,-0.015,-0.002,0.036,-0.011,-0.003,0.03,-1.532,0.013,-0.899,109.95,107.6,40.497795,-3.379859,604.0,3,5,236.2,0.352
111.55,1,-0.004,-0.033,0.042,-0.014,-0.012,0.037,-1.537,0.013,-0.899,109.95,107.6,40.497795,-3.379859,604.0,3,5,236.2,0.352
111.66,1,0.013,-0.025,0.04,0.004,-0.025,0.041,-1.54,0.012,-0.898,109.95,107.6,40.497795,-3.379859,604.0,3,5,236.2,0.352
111.75,1,-0.001,-0.011,0.02,-0.001,-0.019,0.031,-1.542,0.013,-0.898,109.95,107.6,40.497795,-3.379859,604.0,3,5,236.2,0.352
111.85,1,0.011,0.012,0.043,0.005,-0.004,0.033,-1.546,0.014,-0.898,111.01,106.8,40.497646,-3.380155,606.2,3,5,236.2,0.0
111.95,1,-0.034,0.006,0.04,-0.007,0.008,0.038,-1.549,0.013,-0.898,111.01,106.8,40.497646,-3.380155,606.2,3,5,236.2,0.0
112.06,1,-0.028,-0.01,0.025,-0.026,-0.003,0.034,-1.551,0.01,-0.898,111.01,106.8,40.497646,-3.380155,606.2,3,5,236.2,0.0
112.16,1,0.014,0.0,0.041,-0.005,-0.003,0.037,-1.554,0.013,-0.898,111.01,106.8,40.497646,-3.380155,606.2,3,5,236.2,0.0
112.26,1,0.012,0.008,0.023,0.007,0.002,0.031,-1.558,0.015,-0.898,111.01,106.8,40.497646,-3.380155,606.2,3,5,236.2,0.0
112.36,1,-0.03,-0.001,0.028,-0.007,0.001,0.028,-1.562,0.015,-0.898,111.01,106.8,40.497646,-3.380155,606.2,3,5,236.2,0.0
112.46,1,-0.015,-0.013,0.049,-0.022,-0.005,0.033,-1.565,0.013,-0.899,111.01,106.8,40.497646,-3.380155,606.2,3,5,236.2,0.0
112.56,1,-0.005,0.003,0.015,-0.01,0.001,0.032,-1.566,0.01,-0.899,111.01,106.8,40.497646,-3.380155,606.2,3,5,236.2,0.0
112.66,1,-0.002,-0.006,0.024,0.002,0.001,0.03,-1.565,0.013,-0.899,111.01,106.8,40.497646,-3.380155,606.2,3,5,236.2,0.0
112.76,1,0.039,-0.013,0.035,0.012,-0.007,0.024,-1.566,0.013,-0.899,111.01,106.8,40.497646,-3.380155,606.2,3,5,236.2,0.0
112.86,1,0.008,-0.031,0.004,0.02,-0.024,0.02,-1.568,0.011,-0.899,111.95,106.1,40.497501,-3.380442,608.4,3,5,235.9,0.352
112.97,1,-0.033,0.007,0.011,-0.009,-0.015,0.011,-1.568,0.009,-0.9,111.95,106.1,40.497501,-3.380442,608.4,3,5,235.9,0.352
113.06,1,-0.005,0.012,0.012,-0.016,0.002,0.014,-1.57,0.01,-0.9,111.95,106.1,40.497501,-3.380442,608.4,3,5,235.9,0.352
113.16,1,-0.03,0.024,0.017,-0.016,0.014,0.015,-1.573,0.009,-0.9,111.95,106.1,40.497501,-3.380442,608.4,3,5,235.9,0.352
113.26,1,0.005,-0.015,0.02,-0.015,0.005,0.016,-1.574,0.008,-0.901,111.95,106.1,40.497501,-3.380442,608.4,3,5,235.9,0.352
113.36,1,0.013,0.0,0.005,0.006,-0.002,0.014,-1.574,0.006,-0.901,111.95,106.1,40.497501,-3.380442,608.4,3,5,235.9,0.352
113.46,1,-0.02,0.015,0.008,-0.002,0.006,0.007,-1.575,0.004,-0.902,111.95,106.1,40.497501,-3.380442,608.4,3,5,235.9,0.352
113.57,1,-0.045,0.001,0.012,-0.028,0.009,0.01,-1.577,0.002,-0.902,111.95,106.1,40.497501,-3.380442,608.4,3,5,235.9,0.352
113.67,1,0.001,0.001,0.013,-0.018,0.0,0.014,-1.577,0.0,-0.903,111.95,106.1,40.497501,-3.380442,608.4,3,5,235.9,0.352
113.76,1,-0.022,-0.022,-0.002,-0.011,-0.007,0.007,-1.578,-0.002,-0.903,111.95,106.1,40.497501,-3.380442,608.4,3,5,235.9,0.352
113.86,1,-0.015,-0.001,-0.006,-0.018,-0.008,-0.002,-1.579,-0.002,-0.904,112.95,107.2,40.497353,-3.380728,605.5,3,5,235.9,0.0
113.96,1,0.021,0.016,0.017,-0.005,0.002,0.006,-1.579,-0.003,-0.905,112.95,107.2,40.497353,-3.380728,605.5,3,5,235.9,0.0
114.06,1,-0.01,0.008,-0.005,0.006,0.009,0.005,-1.578,-0.004,-0.905,112.95,107.2,40.497353,-3.380728,605.5,3,5,235.9,0.0
114.17,1,-0.037,-0.008,0.015,-0.02,-0.0,0.004,-1.579,-0.007,-0.906,112.95,107.2,40.497353,-3.380728,605.5,3,5,235.9,0.0
114.26,1,-0.004,-0.012,0.015,-0.023,-0.008,0.014,-1.581,-0.008,-0.906,112.95,107.2,40.497353,-3.380728,605.5,3,5,235.9,0.0
114.36,1,0.004,0.004,0.009,-0.002,-0.002,0.01,-1.581,-0.007,-0.907,112.95,107.2,40.497353,-3.380728,605.5,3,5,235.9,0.0
114.46,1,-0.051,0.015,-0.016,-0.014,0.004,-0.003,-1.58,-0.007,-0.907,112.95,107.2,40.497353,-3.380728,605.5,3,5,235.9,0.0
114.57,1,0.01,0.022,-0.007,-0.021,0.017,-0.004,-1.578,-0.009,-0.908,112.95,107.2,40.497353,-3.380728,605.5,3,5,235.9,0.0
114.67,1,0.006,-0.014,-0.039,0.003,0.005,-0.019,-1.577,-0.011,-0.908,112.95,107.2,40.497353,-3.380728,605.5,3,5,235.9,0.0
114.76,1,-0.019,-0.039,-0.028,-0.01,-0.016,-0.029,-1.574,-0.006,-0.908,112.95,107.2,40.497353,-3.380728,605.5,3,5,235.9,0.0
114.87,1,-0.037,-0.014,-0.041,-0.022,-0.021,-0.032,-1.571,-0.005,-0.908,113.95,108.3,40.497208,-3.381028,604.4,3,5,236.2,0.352
114.96,1,-0.074,0.007,-0.048,-0.046,-0.01,-0.04,-1.567,-0.005,-0.909,113.95,108.3,40.497208,-3.381028,604.4,3,5,236.2,0.352
115.06,1,-0.002,-0.02,-0.022,-0.036,-0.01,-0.039,-1.565,-0.002,-0.909,113.95,108.3,40.497208,-3.381028,604.4,3,5,236.2,0.352
115.16,1,0.02,0.008,-0.024,-0.009,-0.006,-0.029,-1.564,-0.001,-0.909,113.95,108.3,40.497208,-3.381028,604.4,3,5,236.2,0.352
115.26,1,0.01,-0.004,-0.029,0.01,0.001,-0.024,-1.56,-0.001,-0.91,113.95,108.3,40.497208,-3.381028,604.4,3,5,236.2,0.352
115.38,1,-0.015,0.004,-0.045,0.001,-0.001,-0.034,-1.556,-0.001,-0.91,113.95,108.3,40.497208,-3.381028,604.4,3,5,236.2,0.352
115.46,1,-0.074,0.002,-0.022,-0.035,0.002,-0.033,-1.556,0.0,-0.91,113.95,108.3,40.497208,-3.381028,604.4,3,5,236.2,0.352
115.56,1,-0.041,-0.008,-0.007,-0.05,0.002,-0.021,-1.557,0.002,-0.91,113.95,108.3,40.497208,-3.381028,604.4,3,5,236.2,0.352
115.66,1,0.012,0.002,-0.012,-0.024,-0.005,-0.012,-1.557,0.005,-0.911,113.95,108.3,40.497208,-3.381028,604.4,3,5,236.2,0.352
115.77,1,0.008,-0.012,-0.015,-0.008,-0.003,-0.011,-1.554,0.003,-0.911,113.95,108.3,40.497208,-3.381028,604.4,3,5,236.2,0.352
115.87,1,0.027,-0.027,-0.03,0.024,-0.013,-0.024,-1.551,0.003,-0.911,114.95,108.9,40.497055,-3.38132,604.3,3,5,236.6,0.703
115.97,1,-0.057,-0.005,-0.013,-0.009,-0.017,-0.022,-1.55,0.002,-0.912,114.95,108.9,40.497055,-3.38132,604.3,3,5,236.6,0.703
116.08,1,-0.054,0.007,0.004,-0.044,-0.003,-0.005,-1.55,0.001,-0.912,114.95,108.9,40.497055,-3.38132,604.3,3,5,236.6,0.703
116.16,1,0.007,-0.016,-0.018,-0.025,-0.004,-0.012,-1.549,0.001,-0.912,114.95,108.9,40.497055,-3.38132,604.3,3,5,236.6,0.703
116.27,1,-0.016,0.013,-0.021,-0.003,-0.006,-0.017,-1.546,0.002,-0.912,114.95,108.9,40.497055,-3.38132,604.3,3,5,236.6,0.703
116.37,1,-0.022,-0.021,-0.033,-0.023,-0.011,-0.028,-1.544,0.003,-0.912,114.95,108.9,40.497055,-3.38132,604.3,3,5,236.6,0.703
116.48,1,-0.047,-0.021,-0.005,-0.028,-0.011,-0.015,-1.543,0.002,-0.912,114.95,108.9,40.497055,-3.38132,604.3,3,5,236.6,0.703
116.57,1,-0.029,-0.014,-0.012,-0.043,-0.008,-0.013,-1.542,0.002,-0.911,114.95,108.9,40.497055,-3.38132,604.3,3,5,236.6,0.703
116.67,1,0.03,-0.044,0.006,-0.009,-0.028,-0.002,-1.54,0.006,-0.91,114.95,108.9,40.497055,-3.38132,604.3,3,5,236.6,0.703
116.77,1,0.005,-0.049,-0.027,0.012,-0.042,-0.012,-1.537,0.01,-0.91,114.95,108.9,40.497055,-3.38132,604.3,3,5,236.6,0.703
116.87,1,-0.022,-0.026,-0.003,-0.006,-0.036,-0.015,-1.537,0.012,-0.909,116.08,107.7,40.496902,-3.381613,604.3,3,5,236.2,0.352
116.97,1,-0.003,-0.009,0.012,-0.008,-0.023,0.0,-1.537,0.013,-0.909,116.08,107.7,40.496902,-3.381613,604.3,3,5,236.2,0.352
117.07,1,0.003,-0.023,-0.014,-0.006,-0.019,-0.001,-1.536,0.015,-0.909,116.08,107.7,40.496902,-3.381613,604.3,3,5,236.2,0.352
117.17,1,-0.017,0.002,-0.005,-0.004,-0.011,-0.006,-1.534,0.015,-0.909,116.08,107.7,40.496902,-3.381613,604.3,3,5,236.2,0.352
117.27,1,-0.043,-0.009,-0.024,-0.023,-0.007,-0.015,-1.534,0.016,-0.908,116.08,107.7,40.496902,-3.381613,604.3,3,5,236.2,0.352
117.37,1,-0.028,-0.001,0.006,-0.027,-0.008,-0.007,-1.536,0.018,-0.907,116.08,107.7,40.496902,-3.381613,604.3,3,5,236.2,0.352
117.47,1,-0.046,-0.019,0.004,-0.038,-0.007,-0.0,-1.538,0.019,-0.907,116.08,107.7,40.496902,-3.381613,604.3,3,5,236.2,0.352
117.57,1,0.021,-0.005,-0.011,-0.021,-0.015,-0.001,-1.538,0.017,-0.906,116.08,107.7,40.496902,-3.381613,604.3,3,5,236.2,0.352
117.68,1,-0.004,0.001,-0.003,0.0,-0.006,-0.005,-1.538,0.015,-0.906,116.08,107.7,40.496902,-3.381613,604.3,3,5,236.2,0.352
117.77,1,0.007,-0.004,0.017,-0.001,-0.001,0.005,-1.539,0.015,-0.906,116.08,107.7,40.496902,-3.381613,604.3,3,5,236.2,0.352
117.88,1,-0.002,0.004,-0.006,0.005,-0.001,0.005,-1.54,0.014,-0.906,116.95,107.6,40.49675,-3.381907,604.0,3,5,236.6,0.352
117.97,1,-0.026,-0.007,-0.005,-0.008,-0.001,-0.004,-1.54,0.015,-0.905,116.95,107.6,40.49675,-3.381907,604.0,3,5,236.6,0.352
118.07,1,-0.036,-0.017,0.002,-0.024,-0.008,-0.002,-1.541,0.015,-0.905,116.95,107.6,40.49675,-3.381907,604.0,3,5,236.6,0.352
118.17,1,-0.05,0.019,0.002,-0.039,-0.0,-0.002,-1.542,0.014,-0.905,116.95,107.6,40.49675,-3.381907,604.0,3,5,236.6,0.352
118.28,1,-0.014,-0.005,0.018,-0.033,0.002,0.009,-1.543,0.013,-0.905,116.95,107.6,40.49675,-3.381907,604.0,3,5,236.6,0.352
118.37,1,0.01,-0.007,0.016,-0.009,-0.004,0.014,-1.544,0.014,-0.904,116.95,107.6,40.49675,-3.381907,604.0,3,5,236.6,0.352
118.48,1,-0.041,-0.001,-0.018,-0.016,-0.001,0.003,-1.543,0.016,-0.904,116.95,107.6,40.49675,-3.381907,604.0,3,5,236.6,0.352
118.58,1,-0.001,-0.013,-0.011,-0.019,-0.009,-0.01,-1.543,0.018,-0.904,116.95,107.6,40.49675,-3.381907,604.0,3,5,236.6,0.352
118.67,1,-0.046,-0.004,-0.001,-0.027,-0.005,-0.003,-1.546,0.018,-0.903,116.95,107.6,40.49675,-3.381907,604.0,3,5,236.6,0.352
118.77,1,-0.02,-0.018,-0.005,-0.029,-0.009,-0.004,-1.547,0.021,-0.902,116.95,107.6,40.49675,-3.381907,604.0,3,5,236.6,0.352
118.87,1,-0.009,0.003,-0.017,-0.012,-0.018,-0.005,-1.545,0.024,-0.901,117.95,104.8,40.496601,-3.382191,604.2,3,5,236.2,0.352
118.98,1,0.015,-0.027,0.008,-0.002,-0.017,-0.009,-1.545,0.026,-0.9,117.95,104.8,40.496601,-3.382191,604.2,3,5,236.2,0.352
119.08,1,0.026,-0.03,-0.007,0.009,-0.023,-0.002,-1.544,0.025,-0.899,117.95,104.8,40.496601,-3.382191,604.2,3,5,236.2,0.352
119.19,1,0.011,-0.016,-0.016,0.018,-0.02,-0.01,-1.542,0.023,-0.899,117.95,104.8,40.496601,-3.382191,604.2,3,5,236.2,0.352
119.27,1,0.004,-0.01,-0.015,0.007,-0.008,-0.015,-1.54,0.021,-0.898,117.95,104.8,40.496601,-3.382191,604.2,3,5,236.2,0.352
119.37,1,-0.025,-0.022,0.009,-0.005,-0.014,0.002,-1.542,0.023,-0.897,117.95,104.8,40.496601,-3.382191,604.2,3,5,236.2,0.352
119.47,1,-0.03,-0.018,-0.004,-0.018,-0.021,-0.003,-1.54,0.023,-0.896,117.95,104.8,40.496601,-3.382191,604.2,3,5,236.2,0.352
119.58,1,-0.047,-0.01,0.002,-0.034,-0.017,-0.001,-1.542,0.024,-0.895,117.95,104.8,40.496601,-3.382191,604.2,3,5,236.2,0.352
119.68,1,-0.031,-0.018,-0.001,-0.04,-0.012,-0.001,-1.543,0.025,-0.893,117.95,104.8,40.496601,-3.382191,604.2,3,5,236.2,0.352
119.78,1,0.031,-0.016,0.014,-0.008,-0.012,0.007,-1.545,0.026,-0.892,117.95,104.8,40.496601,-3.382191,604.2,3,5,236.2,0.352
119.88,1,0.005,-0.002,-0.011,0.014,-0.013,0.001,-1.543,0.026,-0.891,118.96,106.2,40.496456,-3.382482,604.2,3,5,235.9,0.703
119.98,1,-0.026,-0.014,0.0,-0.009,-0.01,-0.004,-1.542,0.027,-0.891,118.96,106.2,40.496456,-3.382482,604.2,3,5,235.9,0.703
120.08,1,-0.019,-0.021,0.013,-0.018,-0.017,0.006,-1.544,0.032,-0.889,118.96,106.2,40.496456,-3.382482,604.2,3,5,235.9,0.703
120.18,1,-0.028,-0.025,0.011,-0.015,-0.021,0.011,-1.545,0.035,-0.888,118.96,106.2,40.496456,-3.382482,604.2,3,5,235.9,0.703
120.28,1,-0.01,-0.03,0.011,-0.024,-0.026,0.008,-1.545,0.036,-0.887,118.96,106.2,40.496456,-3.382482,604.2,3,5,235.9,0.703
120.38,1,-0.023,-0.01,-0.001,-0.013,-0.02,0.005,-1.547,0.035,-0.886,118.96,106.2,40.496456,-3.382482,604.2,3,5,235.9,0.703
120.48,1,-0.043,-0.004,-0.003,-0.028,-0.006,0.003,-1.549,0.036,-0.885,118.96,106.2,40.496456,-3.382482,604.2,3,5,235.9,0.703
120.58,1,0.042,-0.022,0.013,-0.004,-0.019,0.003,-1.548,0.037,-0.884,118.96,106.2,40.496456,-3.382482,604.2,3,5,235.9,0.703
120.68,1,0.003,-0.002,-0.014,0.008,-0.016,-0.001,-1.547,0.037,-0.883,118.96,106.2,40.496456,-3.382482,604.2,3,5,235.9,0.703
120.78,1,-0.078,0.027,-0.019,-0.026,0.006,-0.013,-1.547,0.035,-0.883,118.96,106.2,40.496456,-3.382482,604.2,3,5,235.9,0.703
120.89,1,-0.059,0.021,0.008,-0.057,0.02,-0.005,-1.551,0.032,-0.882,120.0,105.7,40.496307,-3.382761,604.7,3,5,235.2,1.055
120.98,1,0.008,0.005,0.017,-0.031,0.014,0.009,-1.552,0.033,-0.882,120.0,105.7,40.496307,-3.382761,604.7,3,5,235.2,1.055
121.08,1,0.034,0.005,-0.013,0.006,0.009,0.001,-1.551,0.032,-0.882,120.0,105.7,40.496307,-3.382761,604.7,3,5,235.2,1.055
121.18,1,0.007,0.026,-0.014,0.014,0.015,-0.008,-1.55,0.031,-0.882,120.0,105.7,40.496307,-3.382761,604.7,3,5,235.2,1.055
121.28,1,-0.022,0.02,0.009,-0.002,0.019,-0.003,-1.551,0.03,-0.881,120.0,105.7,40.496307,-3.382761,604.7,3,5,235.2,1.055
121.38,1,-0.046,0.004,-0.002,-0.025,0.014,0.001,-1.552,0.029,-0.881,120.0,105.7,40.496307,-3.382761,604.7,3,5,235.2,1.055
121.49,1,-0.038,0.02,-0.01,-0.036,0.011,-0.004,-1.553,0.028,-0.881,120.0,105.7,40.496307,-3.382761,604.7,3,5,235.2,1.055
121.58,1,-0.004,0.029,0.011,-0.022,0.021,0.002,-1.554,0.025,-0.881,120.0,105.7,40.496307,-3.382761,604.7,3,5,235.2,1.055
121.68,1,-0.004,0.016,0.01,-0.01,0.021,0.007,-1.555,0.022,-0.881,120.0,105.7,40.496307,-3.382761,604.7,3,5,235.2,1.055
121.78,1,0.0,0.009,-0.003,-0.006,0.015,0.003,-1.555,0.02,-0.88,120.0,105.7,40.496307,-3.382761,604.7,3,5,235.2,1.055
121.88,1,-0.016,0.022,-0.004,-0.007,0.017,0.002,-1.555,0.018,-0.88,120.96,105.0,40.496159,-3.383042,604.6,3,5,234.8,1.055
122.08,1,-0.016,0.008,-0.002,-0.022,0.014,0.0,-1.558,0.017,-0.88,120.96,105.0,40.496159,-3.383042,604.6,3,5,234.8,1.055
122.18,1,-0.026,0.001,0.003,-0.021,0.011,-0.0,-1.56,0.019,-0.879,120.96,105.0,40.496159,-3.383042,604.6,3,5,234.8,1.055
122.28,1,0.001,-0.012,0.001,-0.016,-0.002,0.0,-1.561,0.017,-0.879,120.96,105.0,40.496159,-3.383042,604.6,3,5,234.8,1.055
122.38,1,0.036,0.007,-0.005,0.014,-0.003,0.002,-1.561,0.016,-0.879,120.96,105.0,40.496159,-3.383042,604.6,3,5,234.8,1.055
122.48,1,-0.014,0.002,-0.022,0.007,0.002,-0.012,-1.56,0.014,-0.879,120.96,105.0,40.496159,-3.383042,604.6,3,5,234.8,1.055
122.59,1,0.003,0.011,0.008,-0.001,0.008,-0.007,-1.56,0.011,-0.879,120.96,105.0,40.496159,-3.383042,604.6,3,5,234.8,1.055
122.69,1,0.003,-0.017,0.008,0.004,0.0,0.006,-1.56,0.009,-0.879,120.96,105.0,40.496159,-3.383042,604.6,3,5,234.8,1.055
122.79,1,0.003,-0.014,-0.002,0.004,-0.014,0.0,-1.556,0.01,-0.879,120.96,105.0,40.496159,-3.383042,604.6,3,5,234.8,1.055
122.89,1,0.02,0.0,-0.004,0.008,-0.008,-0.003,-1.557,0.011,-0.878,120.96,105.0,40.496159,-3.383042,604.6,3,5,234.8,1.055
122.98,1,-0.024,0.011,-0.007,-0.0,0.003,-0.005,-1.558,0.011,-0.878,121.97,104.4,40.496006,-3.383324,604.0,3,5,234.5,0.703
123.09,1,-0.03,-0.002,0.024,-0.021,0.003,0.005,-1.56,0.013,-0.878,121.97,104.4,40.496006,-3.383324,604.0,3,5,234.5,0.703
123.19,1,0.008,-0.014,-0.011,-0.012,-0.003,0.008,-1.558,0.016,-0.877,121.97,104.4,40.496006,-3.383324,604.0,3,5,234.5,0.703
123.29,1,-0.021,0.013,-0.012,-0.005,-0.0,-0.008,-1.557,0.018,-0.877,121.97,104.4,40.496006,-3.383324,604.0,3,5,234.5,0.703
123.4,1,-0.024,0.004,0.003,-0.021,0.002,-0.003,-1.557,0.017,-0.877,121.97,104.4,40.496006,-3.383324,604.0,3,5,234.5,0.703
123.5,1,-0.013,0.003,0.018,-0.021,0.005,0.006,-1.556,0.017,-0.876,121.97,104.4,40.496006,-3.383324,604.0,3,5,234.5,0.703
123.59,1,0.018,-0.018,0.003,-0.001,-0.003,0.006,-1.555,0.017,-0.876,121.97,104.4,40.496006,-3.383324,604.0,3,5,234.5,0.703
123.69,1,0.014,-0.011,0.016,0.012,-0.011,0.009,-1.555,0.019,-0.875,121.97,104.4,40.496006,-3.383324,604.0,3,5,234.5,0.703
123.79,1,-0.028,0.002,-0.017,-0.004,-0.006,0.003,-1.557,0.021,-0.875,121.97,104.4,40.496006,-3.383324,604.0,3,5,234.5,0.703
