Timestamp_Accel,SystemActivated,accelerometerXAxis,accelerometerYAxis,accelerometerZAxis,AccelX_KF,AccelY_KF,AccelZ_KF,gyroscopeXAxis,gyroscopeYAxis,gyroscopeZAxis,Timestamp_GPS,Speed,latitude,longitude,Altitude,VerticalAccuracy,HorizontalAccuracy,Course,Difcourse
14.86,1,0.004,0.07,0.056,-0.017,0.027,0.054,-1.596,-0.008,0.15,14.9,69.4,40.584476,-3.555156,613.7,3,5,88.9,1.055
14.96,1,0.0,0.029,0.076,0.004,0.047,0.065,-1.598,-0.007,0.148,14.9,69.4,40.584476,-3.555156,613.7,3,5,88.9,1.055
15.06,1,0.017,0.024,-0.006,0.001,0.041,0.038,-1.597,-0.007,0.144,14.9,69.4,40.584476,-3.555156,613.7,3,5,88.9,1.055
15.17,1,0.053,0.05,0.113,0.026,0.031,0.055,-1.598,-0.009,0.14,14.9,69.4,40.584476,-3.555156,613.7,3,5,88.9,1.055
15.26,1,-0.003,-0.005,0.066,0.016,0.013,0.08,-1.596,-0.011,0.136,14.9,69.4,40.584476,-3.555156,613.7,3,5,88.9,1.055
15.36,1,0.037,0.048,0.066,0.029,0.037,0.069,-1.595,-0.015,0.132,14.9,69.4,40.584476,-3.555156,613.7,3,5,88.9,1.055
15.46,1,-0.029,0.08,0.044,0.005,0.055,0.064,-1.595,-0.019,0.128,14.9,69.4,40.584476,-3.555156,613.7,3,5,88.9,1.055
15.56,1,-0.094,0.109,-0.007,-0.034,0.079,0.023,-1.598,-0.028,0.123,14.9,69.4,40.584476,-3.555156,613.7,3,5,88.9,1.055
15.66,1,-0.175,0.106,0.076,-0.104,0.092,0.037,-1.609,-0.031,0.118,14.9,69.4,40.584476,-3.555156,613.7,3,5,88.9,1.055
15.77,1,-0.081,0.049,0.1,-0.129,0.099,0.071,-1.614,-0.029,0.114,14.9,69.4,40.584476,-3.555156,613.7,3,5,88.9,1.055
15.87,1,0.065,0.021,0.094,-0.038,0.049,0.091,-1.613,-0.023,0.111,15.86,72.8,40.584476,-3.554925,614.2,3,5,90.4,2.461
15.96,1,0.135,0.001,0.037,0.056,0.013,0.067,-1.61,-0.018,0.109,15.86,72.8,40.584476,-3.554925,614.2,3,5,90.4,2.461
16.06,1,0.071,0.016,0.032,0.094,0.006,0.047,-1.607,-0.016,0.106,15.86,72.8,40.584476,-3.554925,614.2,3,5,90.4,2.461
16.17,1,-0.018,0.028,0.008,0.037,0.019,0.026,-1.605,-0.017,0.101,15.86,72.8,40.584476,-3.554925,614.2,3,5,90.4,2.461
16.26,1,-0.091,0.034,0.075,-0.025,0.034,0.039,-1.608,-0.025,0.098,15.86,72.8,40.584476,-3.554925,614.2,3,5,90.4,2.461
16.38,1,-0.062,0.022,0.078,-0.061,0.031,0.069,-1.615,-0.03,0.094,15.86,72.8,40.584476,-3.554925,614.2,3,5,90.4,2.461
16.46,1,-0.004,0.031,0.023,-0.042,0.022,0.053,-1.617,-0.031,0.09,15.86,72.8,40.584476,-3.554925,614.2,3,5,90.4,2.461
16.56,1,0.024,0.017,0.053,-0.002,0.021,0.042,-1.618,-0.033,0.087,15.86,72.8,40.584476,-3.554925,614.2,3,5,90.4,2.461
16.66,1,-0.018,0.016,0.035,-0.004,0.016,0.049,-1.622,-0.037,0.084,15.86,72.8,40.584476,-3.554925,614.2,3,5,90.4,2.461
16.76,1,-0.017,0.004,0.046,-0.008,0.019,0.04,-1.622,-0.037,0.082,15.86,72.8,40.584476,-3.554925,614.2,3,5,90.4,2.461
16.87,1,-0.014,-0.002,0.051,-0.015,0.003,0.05,-1.623,-0.037,0.08,16.86,76.4,40.584476,-3.55468,615.0,3,5,92.8,3.867
16.97,1,-0.005,-0.025,0.033,-0.008,-0.006,0.04,-1.628,-0.033,0.077,16.86,76.4,40.584476,-3.55468,615.0,3,5,92.8,3.867
17.07,1,-0.004,0.01,0.016,-0.011,-0.011,0.031,-1.63,-0.029,0.075,16.86,76.4,40.584476,-3.55468,615.0,3,5,92.8,3.867
17.16,1,-0.004,0.004,0.036,-0.003,0.005,0.028,-1.633,-0.029,0.072,16.86,76.4,40.584476,-3.55468,615.0,3,5,92.8,3.867
17.26,1,-0.001,0.016,0.009,-0.001,0.015,0.019,-1.633,-0.031,0.07,16.86,76.4,40.584476,-3.55468,615.0,3,5,92.8,3.867
17.37,1,0.015,0.012,0.025,0.006,0.006,0.022,-1.633,-0.032,0.068,16.86,76.4,40.584476,-3.55468,615.0,3,5,92.8,3.867
17.47,1,-0.027,0.002,0.01,-0.005,-0.002,0.021,-1.633,-0.032,0.065,16.86,76.4,40.584476,-3.55468,615.0,3,5,92.8,3.867
17.58,1,-0.018,0.024,-0.018,-0.016,0.016,0.001,-1.633,-0.032,0.063,16.86,76.4,40.584476,-3.55468,615.0,3,5,92.8,3.867
17.67,1,-0.022,-0.001,-0.11,-0.016,0.014,-0.049,-1.632,-0.032,0.06,16.86,76.4,40.584476,-3.55468,615.0,3,5,92.8,3.867
17.77,1,0.015,0.008,-0.103,-0.017,0.007,-0.088,-1.63,-0.032,0.058,16.86,76.4,40.584476,-3.55468,615.0,3,5,92.8,3.867
17.87,1,0.013,0.008,-0.105,0.012,0.01,-0.095,-1.618,-0.034,0.056,17.88,78.9,40.584484,-3.554451,616.1,3,5,93.9,3.516
17.97,1,-0.022,0.019,-0.084,0.0,0.012,-0.096,-1.608,-0.033,0.054,17.88,78.9,40.584484,-3.554451,616.1,3,5,93.9,3.516
18.07,1,-0.005,-0.017,-0.076,-0.014,0.005,-0.089,-1.598,-0.036,0.053,17.88,78.9,40.584484,-3.554451,616.1,3,5,93.9,3.516
18.17,1,-0.007,-0.028,-0.095,-0.007,-0.006,-0.085,-1.595,-0.035,0.051,17.88,78.9,40.584484,-3.554451,616.1,3,5,93.9,3.516
18.28,1,-0.004,-0.025,-0.066,-0.005,-0.028,-0.08,-1.596,-0.034,0.049,17.88,78.9,40.584484,-3.554451,616.1,3,5,93.9,3.516
18.37,1,-0.0,-0.009,-0.067,-0.007,-0.026,-0.074,-1.589,-0.033,0.047,17.88,78.9,40.584484,-3.554451,616.1,3,5,93.9,3.516
18.47,1,-0.006,0.001,-0.045,0.006,-0.0,-0.055,-1.583,-0.031,0.045,17.88,78.9,40.584484,-3.554451,616.1,3,5,93.9,3.516
18.57,1,0.04,0.018,-0.115,0.012,0.009,-0.079,-1.575,-0.028,0.044,17.88,78.9,40.584484,-3.554451,616.1,3,5,93.9,3.516
18.68,1,0.013,-0.007,-0.097,0.019,0.004,-0.093,-1.572,-0.024,0.042,17.88,78.9,40.584484,-3.554451,616.1,3,5,93.9,3.516
18.77,1,-0.013,-0.063,-0.047,-0.001,-0.032,-0.082,-1.567,-0.02,0.042,17.88,78.9,40.584484,-3.554451,616.1,3,5,93.9,3.516
18.87,1,-0.074,-0.077,-0.032,-0.027,-0.06,-0.051,-1.566,-0.015,0.041,18.89,81.9,40.584465,-3.554186,616.4,3,5,96.7,3.867
18.97,1,0.043,-0.03,-0.03,-0.011,-0.048,-0.036,-1.564,-0.009,0.039,18.89,81.9,40.584465,-3.554186,616.4,3,5,96.7,3.867
19.07,1,0.031,0.015,-0.018,0.016,-0.017,-0.021,-1.562,-0.01,0.038,18.89,81.9,40.584465,-3.554186,616.4,3,5,96.7,3.867
19.17,1,0.02,0.014,-0.033,0.033,-0.003,-0.031,-1.557,-0.011,0.037,18.89,81.9,40.584465,-3.554186,616.4,3,5,96.7,3.867
19.27,1,-0.048,0.007,-0.025,-0.011,0.008,-0.032,-1.556,-0.014,0.036,18.89,81.9,40.584465,-3.554186,616.4,3,5,96.7,3.867
19.37,1,-0.035,0.012,0.033,-0.033,0.016,-0.003,-1.559,-0.014,0.034,18.89,81.9,40.584465,-3.554186,616.4,3,5,96.7,3.867
19.48,1,0.017,0.007,-0.026,-0.011,0.003,0.0,-1.558,-0.014,0.032,18.89,81.9,40.584465,-3.554186,616.4,3,5,96.7,3.867
19.57,1,0.023,-0.01,0.031,0.012,-0.002,0.005,-1.559,-0.017,0.031,18.89,81.9,40.584465,-3.554186,616.4,3,5,96.7,3.867
19.68,1,-0.017,0.008,0.012,-0.002,0.005,0.011,-1.56,-0.017,0.029,18.89,81.9,40.584465,-3.554186,616.4,3,5,96.7,3.867
19.77,1,-0.007,0.012,0.026,-0.003,0.007,0.016,-1.561,-0.018,0.027,18.89,81.9,40.584465,-3.554186,616.4,3,5,96.7,3.867
19.88,1,-0.05,-0.022,-0.019,-0.028,-0.005,0.008,-1.563,-0.017,0.026,19.88,78.6,40.584438,-3.553921,616.1,3,5,96.7,2.812
19.98,1,-0.021,0.001,0.025,-0.026,0.0,-0.0,-1.563,-0.019,0.025,19.88,78.6,40.584438,-3.553921,616.1,3,5,96.7,2.812
20.07,1,-0.014,0.001,0.023,-0.02,-0.009,0.028,-1.562,-0.021,0.023,19.88,78.6,40.584438,-3.553921,616.1,3,5,96.7,2.812
20.17,1,0.02,-0.011,-0.0,-0.005,-0.001,0.011,-1.562,-0.022,0.022,19.88,78.6,40.584438,-3.553921,616.1,3,5,96.7,2.812
20.27,1,-0.009,-0.009,-0.0,0.007,-0.011,0.004,-1.562,-0.022,0.021,19.88,78.6,40.584438,-3.553921,616.1,3,5,96.7,2.812
20.37,1,-0.012,-0.011,0.035,-0.009,-0.005,0.015,-1.566,-0.022,0.021,19.88,78.6,40.584438,-3.553921,616.1,3,5,96.7,2.812
20.47,1,-0.003,-0.03,0.016,-0.005,-0.023,0.022,-1.568,-0.019,0.02,19.88,78.6,40.584438,-3.553921,616.1,3,5,96.7,2.812
20.57,1,-0.02,-0.024,0.015,-0.01,-0.025,0.018,-1.568,-0.015,0.019,19.88,78.6,40.584438,-3.553921,616.1,3,5,96.7,2.812
20.68,1,-0.018,-0.026,0.015,-0.017,-0.021,0.016,-1.571,-0.011,0.018,19.88,78.6,40.584438,-3.553921,616.1,3,5,96.7,2.812
20.78,1,0.022,0.015,-0.001,-0.004,-0.007,0.005,-1.571,-0.008,0.017,19.88,78.6,40.584438,-3.553921,616.1,3,5,96.7,2.812
20.88,1,-0.005,-0.012,-0.005,0.004,-0.01,0.003,-1.572,-0.006,0.017,20.96,79.7,40.584412,-3.553666,616.4,3,5,97.7,1.055
20.98,1,-0.023,0.011,-0.04,-0.01,0.002,-0.02,-1.571,-0.005,0.016,20.96,79.7,40.584412,-3.553666,616.4,3,5,97.7,1.055
21.08,1,-0.05,-0.005,-0.037,-0.028,0.001,-0.028,-1.567,-0.007,0.015,20.96,79.7,40.584412,-3.553666,616.4,3,5,97.7,1.055
21.18,1,-0.04,0.028,-0.034,-0.039,0.008,-0.036,-1.566,-0.006,0.014,20.96,79.7,40.584412,-3.553666,616.4,3,5,97.7,1.055
21.29,1,-0.001,0.002,-0.02,-0.025,0.006,-0.025,-1.564,-0.005,0.014,20.96,79.7,40.584412,-3.553666,616.4,3,5,97.7,1.055
21.39,1,0.002,-0.013,-0.039,-0.012,0.007,-0.032,-1.562,-0.002,0.013,20.96,79.7,40.584412,-3.553666,616.4,3,5,97.7,1.055
21.48,1,-0.005,-0.027,-0.002,0.002,-0.009,-0.02,-1.563,0.001,0.013,20.96,79.7,40.584412,-3.553666,616.4,3,5,97.7,1.055
21.58,1,0.031,-0.011,-0.015,0.01,-0.026,-0.014,-1.559,0.005,0.012,20.96,79.7,40.584412,-3.553666,616.4,3,5,97.7,1.055
21.68,1,0.012,-0.014,0.007,0.012,-0.022,-0.007,-1.559,0.003,0.011,20.96,79.7,40.584412,-3.553666,616.4,3,5,97.7,1.055
21.78,1,0.05,0.008,0.006,0.034,0.002,0.006,-1.558,0.005,0.01,20.96,79.7,40.584412,-3.553666,616.4,3,5,97.7,1.055
21.88,1,-0.005,-0.0,-0.017,0.016,0.0,-0.007,-1.553,0.003,0.01,21.86,80.0,40.584385,-3.553408,617.2,3,5,98.4,1.758
21.98,1,0.019,-0.006,-0.006,0.013,-0.001,-0.01,-1.551,0.001,0.009,21.86,80.0,40.584385,-3.553408,617.2,3,5,98.4,1.758
22.08,1,-0.037,0.006,-0.022,-0.003,0.001,-0.015,-1.552,-0.001,0.008,21.86,80.0,40.584385,-3.553408,617.2,3,5,98.4,1.758
22.18,1,-0.08,-0.003,-0.017,-0.05,0.008,-0.016,-1.553,-0.002,0.007,21.86,80.0,40.584385,-3.553408,617.2,3,5,98.4,1.758
22.28,1,-0.013,0.016,-0.0,-0.034,-0.003,-0.012,-1.554,-0.002,0.006,21.86,80.0,40.584385,-3.553408,617.2,3,5,98.4,1.758
22.39,1,0.073,-0.036,-0.024,0.012,-0.007,-0.009,-1.551,-0.001,0.005,21.86,80.0,40.584385,-3.553408,617.2,3,5,98.4,1.758
22.48,1,-0.002,0.032,-0.015,0.021,0.0,-0.016,-1.547,-0.003,0.004,21.86,80.0,40.584385,-3.553408,617.2,3,5,98.4,1.758
22.58,1,-0.015,0.032,-0.028,0.004,0.02,-0.021,-1.545,-0.002,0.003,21.86,80.0,40.584385,-3.553408,617.2,3,5,98.4,1.758
22.68,1,-0.005,0.031,-0.022,-0.011,0.029,-0.022,-1.543,-0.006,0.002,21.86,80.0,40.584385,-3.553408,617.2,3,5,98.4,1.758
22.78,1,0.012,0.029,-0.037,0.004,0.03,-0.028,-1.543,-0.006,0.001,21.86,80.0,40.584385,-3.553408,617.2,3,5,98.4,1.758
22.88,1,-0.016,0.034,-0.036,-0.003,0.031,-0.035,-1.541,-0.007,-0.001,22.89,79.2,40.584358,-3.553144,616.8,3,5,98.4,0.703
22.98,1,-0.012,0.029,-0.034,-0.014,0.031,-0.037,-1.538,-0.013,-0.003,22.89,79.2,40.584358,-3.553144,616.8,3,5,98.4,0.703
23.08,1,-0.027,0.021,-0.02,-0.016,0.028,-0.027,-1.537,-0.016,-0.005,22.89,79.2,40.584358,-3.553144,616.8,3,5,98.4,0.703
23.18,1,-0.038,0.028,-0.039,-0.025,0.026,-0.031,-1.534,-0.023,-0.008,22.89,79.2,40.584358,-3.553144,616.8,3,5,98.4,0.703
23.28,1,-0.064,0.025,-0.035,-0.04,0.022,-0.034,-1.532,-0.025,-0.01,22.89,79.2,40.584358,-3.553144,616.8,3,5,98.4,0.703
23.38,1,-0.016,0.022,-0.011,-0.038,0.024,-0.023,-1.531,-0.026,-0.012,22.89,79.2,40.584358,-3.553144,616.8,3,5,98.4,0.703
23.48,1,-0.016,0.014,-0.009,-0.031,0.025,-0.017,-1.531,-0.028,-0.014,22.89,79.2,40.584358,-3.553144,616.8,3,5,98.4,0.703
23.58,1,0.004,0.003,-0.006,-0.011,0.009,-0.009,-1.53,-0.031,-0.017,22.89,79.2,40.584358,-3.553144,616.8,3,5,98.4,0.703
23.68,1,0.006,0.026,-0.005,0.004,0.018,-0.007,-1.529,-0.037,-0.019,22.89,79.2,40.584358,-3.553144,616.8,3,5,98.4,0.703
23.79,1,-0.009,0.025,0.042,-0.007,0.023,0.007,-1.529,-0.037,-0.021,22.89,79.2,40.584358,-3.553144,616.8,3,5,98.4,0.703
23.89,1,-0.015,0.003,0.044,-0.014,0.014,0.031,-1.535,-0.036,-0.024,23.9,78.3,40.584324,-3.552888,616.4,3,5,99.8,1.406
24.08,1,0.021,0.036,0.045,0.005,0.014,0.035,-1.539,-0.04,-0.029,23.9,78.3,40.584324,-3.552888,616.4,3,5,99.8,1.406
24.19,1,0.011,0.001,0.013,0.016,0.011,0.03,-1.54,-0.036,-0.031,23.9,78.3,40.584324,-3.552888,616.4,3,5,99.8,1.406
24.28,1,-0.056,0.005,0.02,-0.016,0.008,0.021,-1.544,-0.034,-0.032,23.9,78.3,40.584324,-3.552888,616.4,3,5,99.8,1.406
24.39,1,-0.097,-0.055,0.041,-0.063,-0.016,0.027,-1.55,-0.031,-0.033,23.9,78.3,40.584324,-3.552888,616.4,3,5,99.8,1.406
24.49,1,-0.032,-0.052,0.067,-0.062,-0.038,0.045,-1.554,-0.028,-0.035,23.9,78.3,40.584324,-3.552888,616.4,3,5,99.8,1.406
24.59,1,-0.022,-0.005,0.021,-0.032,-0.03,0.043,-1.554,-0.029,-0.036,23.9,78.3,40.584324,-3.552888,616.4,3,5,99.8,1.406
24.69,1,-0.016,-0.009,0.053,-0.024,-0.034,0.039,-1.555,-0.028,-0.038,23.9,78.3,40.584324,-3.552888,616.4,3,5,99.8,1.406
24.8,1,-0.033,-0.023,0.031,-0.029,-0.01,0.041,-1.557,-0.028,-0.039,23.9,78.3,40.584324,-3.552888,616.4,3,5,99.8,1.406
24.89,1,-0.005,-0.026,0.043,-0.02,-0.015,0.043,-1.557,-0.028,-0.04,23.9,78.3,40.584324,-3.552888,616.4,3,5,99.8,1.406
25.0,1,0.019,0.021,0.026,-0.001,-0.005,0.034,-1.557,-0.027,-0.042,24.92,78.1,40.584286,-3.552629,616.6,3,5,101.2,2.812
25.1,1,0.031,0.012,0.04,0.02,0.006,0.033,-1.556,-0.026,-0.044,24.92,78.1,40.584286,-3.552629,616.6,3,5,101.2,2.812
25.19,1,0.023,0.006,0.022,0.026,0.012,0.032,-1.558,-0.027,-0.046,24.92,78.1,40.584286,-3.552629,616.6,3,5,101.2,2.812
25.29,1,0.008,0.008,0.033,0.016,0.008,0.029,-1.563,-0.03,-0.048,24.92,78.1,40.584286,-3.552629,616.6,3,5,101.2,2.812
25.39,1,0.022,0.021,0.048,0.017,0.006,0.041,-1.565,-0.029,-0.051,24.92,78.1,40.584286,-3.552629,616.6,3,5,101.2,2.812
25.49,1,-0.015,0.016,0.011,0.004,0.019,0.026,-1.567,-0.029,-0.053,24.92,78.1,40.584286,-3.552629,616.6,3,5,101.2,2.812
25.59,1,-0.043,-0.004,0.013,-0.016,0.009,0.017,-1.571,-0.03,-0.055,24.92,78.1,40.584286,-3.552629,616.6,3,5,101.2,2.812
25.69,1,-0.048,-0.024,0.006,-0.036,-0.003,0.013,-1.573,-0.032,-0.057,24.92,78.1,40.584286,-3.552629,616.6,3,5,101.2,2.812
25.79,1,-0.04,0.025,0.02,-0.039,0.0,0.012,-1.576,-0.033,-0.059,24.92,78.1,40.584286,-3.552629,616.6,3,5,101.2,2.812
25.89,1,0.026,0.005,0.058,-0.012,0.003,0.038,-1.578,-0.031,-0.061,24.92,78.1,40.584286,-3.552629,616.6,3,5,101.2,2.812
25.99,1,-0.009,0.011,0.042,-0.005,0.009,0.038,-1.579,-0.032,-0.062,25.92,79.3,40.58424,-3.552377,616.9,3,5,102.7,2.812
26.09,1,0.02,0.006,0.007,0.004,0.012,0.03,-1.578,-0.028,-0.064,25.92,79.3,40.58424,-3.552377,616.9,3,5,102.7,2.812
26.2,1,-0.019,-0.017,0.013,0.0,-0.003,0.019,-1.578,-0.026,-0.065,25.92,79.3,40.58424,-3.552377,616.9,3,5,102.7,2.812
26.3,1,-0.062,-0.006,0.034,-0.046,-0.007,0.021,-1.58,-0.026,-0.067,25.92,79.3,40.58424,-3.552377,616.9,3,5,102.7,2.812
26.39,1,0.007,0.006,0.036,-0.016,0.002,0.03,-1.583,-0.028,-0.07,25.92,79.3,40.58424,-3.552377,616.9,3,5,102.7,2.812
26.49,1,-0.025,-0.001,0.011,-0.012,-0.0,0.024,-1.582,-0.032,-0.072,25.92,79.3,40.58424,-3.552377,616.9,3,5,102.7,2.812
26.59,1,-0.017,-0.014,0.005,-0.019,-0.004,0.009,-1.583,-0.028,-0.073,25.92,79.3,40.58424,-3.552377,616.9,3,5,102.7,2.812
26.69,1,-0.007,-0.003,0.037,-0.013,-0.006,0.025,-1.588,-0.025,-0.075,25.92,79.3,40.58424,-3.552377,616.9,3,5,102.7,2.812
26.79,1,0.017,0.027,0.004,-0.004,0.004,0.02,-1.589,-0.025,-0.077,25.92,79.3,40.58424,-3.552377,616.9,3,5,102.7,2.812
26.9,1,-0.001,0.021,0.007,0.012,0.016,0.012,-1.589,-0.027,-0.079,25.92,79.3,40.58424,-3.552377,616.9,3,5,102.7,2.812
26.99,1,-0.012,0.005,0.008,-0.001,0.015,0.004,-1.589,-0.03,-0.081,26.86,80.2,40.58419,-3.552124,617.2,4,5,104.1,2.812
27.1,1,-0.015,0.024,0.019,-0.014,0.015,0.017,-1.591,-0.031,-0.083,26.86,80.2,40.58419,-3.552124,617.2,4,5,104.1,2.812
27.19,1,-0.018,0.007,0.002,-0.012,0.014,0.014,-1.593,-0.031,-0.085,26.86,80.2,40.58419,-3.552124,617.2,4,5,104.1,2.812
27.3,1,-0.023,0.023,-0.034,-0.017,0.013,-0.011,-1.589,-0.033,-0.087,26.86,80.2,40.58419,-3.552124,617.2,4,5,104.1,2.812
27.39,1,-0.009,0.014,0.004,-0.018,0.016,-0.014,-1.588,-0.033,-0.089,26.86,80.2,40.58419,-3.552124,617.2,4,5,104.1,2.812
27.5,1,-0.024,0.016,-0.012,-0.019,0.02,-0.005,-1.589,-0.036,-0.091,26.86,80.2,40.58419,-3.552124,617.2,4,5,104.1,2.812
27.6,1,0.011,-0.008,-0.002,-0.008,0.007,-0.008,-1.588,-0.036,-0.093,26.86,80.2,40.58419,-3.552124,617.2,4,5,104.1,2.812
27.69,1,-0.006,-0.0,-0.005,-0.003,-0.006,-0.004,-1.586,-0.034,-0.095,26.86,80.2,40.58419,-3.552124,617.2,4,5,104.1,2.812
27.79,1,0.001,0.005,-0.005,0.001,0.003,-0.005,-1.586,-0.032,-0.097,26.86,80.2,40.58419,-3.552124,617.2,4,5,104.1,2.812
27.9,1,-0.007,0.008,-0.028,-0.006,0.007,-0.015,-1.585,-0.033,-0.099,26.86,80.2,40.58419,-3.552124,617.2,4,5,104.1,2.812
28.0,1,-0.035,0.009,-0.005,-0.016,0.009,-0.012,-1.584,-0.034,-0.101,27.93,82.3,40.584137,-3.551871,617.1,4,5,106.9,4.219
28.11,1,-0.029,0.022,0.011,-0.029,0.014,-0.006,-1.585,-0.034,-0.103,27.93,82.3,40.584137,-3.551871,617.1,4,5,106.9,4.219
28.21,1,0.011,0.015,0.014,-0.012,0.018,0.012,-1.587,-0.033,-0.105,27.93,82.3,40.584137,-3.551871,617.1,4,5,106.9,4.219
28.3,1,0.001,-0.005,0.025,-0.0,0.005,0.012,-1.589,-0.035,-0.107,27.93,82.3,40.584137,-3.551871,617.1,4,5,106.9,4.219
28.4,1,-0.009,0.025,0.02,-0.007,0.012,0.02,-1.591,-0.037,-0.109,27.93,82.3,40.584137,-3.551871,617.1,4,5,106.9,4.219
28.5,1,-0.047,-0.015,0.049,-0.025,0.003,0.029,-1.593,-0.038,-0.111,27.93,82.3,40.584137,-3.551871,617.1,4,5,106.9,4.219
28.6,1,-0.012,-0.014,0.061,-0.022,-0.002,0.044,-1.598,-0.038,-0.113,27.93,82.3,40.584137,-3.551871,617.1,4,5,106.9,4.219
28.71,1,0.0,-0.0,0.057,-0.009,-0.005,0.059,-1.604,-0.038,-0.115,27.93,82.3,40.584137,-3.551871,617.1,4,5,106.9,4.219
28.8,1,-0.013,-0.011,0.045,-0.007,-0.009,0.051,-1.608,-0.039,-0.118,27.93,82.3,40.584137,-3.551871,617.1,4,5,106.9,4.219
28.9,1,-0.001,0.022,0.065,-0.009,-0.003,0.056,-1.612,-0.041,-0.12,27.93,82.3,40.584137,-3.551871,617.1,4,5,106.9,4.219
29.0,1,-0.025,-0.001,0.033,-0.005,0.011,0.056,-1.616,-0.043,-0.122,28.96,82.9,40.584072,-3.551613,617.3,4,5,107.2,3.164
29.1,1,-0.049,0.013,0.065,-0.03,0.013,0.051,-1.621,-0.044,-0.124,28.96,82.9,40.584072,-3.551613,617.3,4,5,107.2,3.164
29.2,1,0.041,-0.025,0.045,-0.014,-0.011,0.05,-1.623,-0.04,-0.125,28.96,82.9,40.584072,-3.551613,617.3,4,5,107.2,3.164
29.31,1,0.031,-0.023,0.014,0.025,-0.012,0.035,-1.626,-0.044,-0.128,28.96,82.9,40.584072,-3.551613,617.3,4,5,107.2,3.164
29.42,1,-0.087,0.017,0.024,-0.024,-0.006,0.021,-1.628,-0.049,-0.13,28.96,82.9,40.584072,-3.551613,617.3,4,5,107.2,3.164
29.5,1,-0.014,0.006,0.043,-0.038,0.003,0.038,-1.632,-0.054,-0.132,28.96,82.9,40.584072,-3.551613,617.3,4,5,107.2,3.164
29.6,1,-0.036,-0.009,0.014,-0.024,0.0,0.025,-1.634,-0.058,-0.134,28.96,82.9,40.584072,-3.551613,617.3,4,5,107.2,3.164
29.7,1,-0.026,-0.032,0.009,-0.033,-0.016,0.017,-1.636,-0.057,-0.136,28.96,82.9,40.584072,-3.551613,617.3,4,5,107.2,3.164
29.81,1,0.032,0.003,0.005,-0.0,-0.014,0.011,-1.636,-0.054,-0.137,28.96,82.9,40.584072,-3.551613,617.3,4,5,107.2,3.164
29.91,1,-0.009,-0.011,0.006,0.003,-0.004,0.006,-1.634,-0.054,-0.139,28.96,82.9,40.584072,-3.551613,617.3,4,5,107.2,3.164
30.0,1,-0.06,-0.02,0.01,-0.026,-0.016,0.011,-1.637,-0.051,-0.141,29.87,84.1,40.584011,-3.551358,618.4,4,5,107.9,1.055
30.1,1,0.018,-0.0,0.011,-0.022,-0.012,0.009,-1.639,-0.051,-0.142,29.87,84.1,40.584011,-3.551358,618.4,4,5,107.9,1.055
30.2,1,0.02,0.007,-0.031,0.008,0.003,-0.003,-1.636,-0.054,-0.144,29.87,84.1,40.584011,-3.551358,618.4,4,5,107.9,1.055
30.3,1,-0.007,-0.026,-0.122,0.004,-0.009,-0.06,-1.628,-0.052,-0.145,29.87,84.1,40.584011,-3.551358,618.4,4,5,107.9,1.055
30.4,1,0.026,-0.019,-0.119,0.012,-0.016,-0.1,-1.621,-0.053,-0.147,29.87,84.1,40.584011,-3.551358,618.4,4,5,107.9,1.055
30.5,1,-0.065,0.023,-0.12,-0.012,-0.001,-0.111,-1.614,-0.054,-0.148,29.87,84.1,40.584011,-3.551358,618.4,4,5,107.9,1.055
30.61,1,-0.05,-0.001,-0.115,-0.049,0.005,-0.115,-1.61,-0.055,-0.15,29.87,84.1,40.584011,-3.551358,618.4,4,5,107.9,1.055
30.7,1,-0.011,0.015,-0.066,-0.024,0.004,-0.099,-1.605,-0.054,-0.151,29.87,84.1,40.584011,-3.551358,618.4,4,5,107.9,1.055
30.8,1,0.041,0.01,-0.069,-0.001,0.01,-0.074,-1.601,-0.054,-0.152,29.87,84.1,40.584011,-3.551358,618.4,4,5,107.9,1.055
30.9,1,0.008,0.006,-0.104,0.018,0.008,-0.087,-1.592,-0.053,-0.153,29.87,84.1,40.584011,-3.551358,618.4,4,5,107.9,1.055
31.0,1,-0.015,0.006,-0.08,-0.001,0.004,-0.09,-1.583,-0.052,-0.154,30.87,89.4,40.583931,-3.551089,619.1,4,5,110.4,3.164
31.11,1,0.007,0.013,-0.033,0.001,0.011,-0.062,-1.579,-0.053,-0.156,30.87,89.4,40.583931,-3.551089,619.1,4,5,110.4,3.164
31.21,1,-0.006,-0.009,-0.065,0.002,0.004,-0.054,-1.573,-0.054,-0.157,30.87,89.4,40.583931,-3.551089,619.1,4,5,110.4,3.164
31.3,1,0.0,-0.025,-0.095,-0.003,-0.011,-0.08,-1.565,-0.051,-0.158,30.87,89.4,40.583931,-3.551089,619.1,4,5,110.4,3.164
31.4,1,0.005,-0.008,-0.074,0.004,-0.014,-0.079,-1.557,-0.048,-0.16,30.87,89.4,40.583931,-3.551089,619.1,4,5,110.4,3.164
31.51,1,-0.011,-0.016,-0.06,-0.007,-0.015,-0.07,-1.552,-0.049,-0.161,30.87,89.4,40.583931,-3.551089,619.1,4,5,110.4,3.164
31.61,1,-0.046,-0.02,-0.024,-0.024,-0.017,-0.049,-1.552,-0.047,-0.162,30.87,89.4,40.583931,-3.551089,619.1,4,5,110.4,3.164
31.71,1,-0.007,0.008,0.002,-0.023,-0.004,-0.02,-1.553,-0.047,-0.163,30.87,89.4,40.583931,-3.551089,619.1,4,5,110.4,3.164
31.81,1,-0.009,-0.012,-0.02,-0.011,-0.004,-0.015,-1.551,-0.049,-0.165,30.87,89.4,40.583931,-3.551089,619.1,4,5,110.4,3.164
31.91,1,-0.015,-0.002,0.02,-0.008,-0.01,-0.004,-1.551,-0.047,-0.166,30.87,89.4,40.583931,-3.551089,619.1,4,5,110.4,3.164
32.01,1,-0.011,-0.016,0.015,-0.019,-0.006,0.009,-1.554,-0.045,-0.167,31.86,88.0,40.583851,-3.550815,618.9,3,5,112.1,4.219
32.11,1,-0.005,0.003,0.013,-0.004,-0.007,0.011,-1.555,-0.044,-0.169,31.86,88.0,40.583851,-3.550815,618.9,3,5,112.1,4.219
32.22,1,-0.024,-0.028,0.012,-0.016,-0.015,0.011,-1.557,-0.044,-0.17,31.86,88.0,40.583851,-3.550815,618.9,3,5,112.1,4.219
32.31,1,-0.015,-0.013,0.031,-0.018,-0.016,0.02,-1.56,-0.043,-0.171,31.86,88.0,40.583851,-3.550815,618.9,3,5,112.1,4.219
32.41,1,-0.011,-0.009,0.025,-0.014,-0.011,0.024,-1.562,-0.044,-0.173,31.86,88.0,40.583851,-3.550815,618.9,3,5,112.1,4.219
32.51,1,-0.014,0.001,0.004,-0.014,-0.009,0.017,-1.563,-0.045,-0.174,31.86,88.0,40.583851,-3.550815,618.9,3,5,112.1,4.219
32.61,1,-0.003,-0.003,0.012,-0.008,-0.002,0.009,-1.564,-0.044,-0.174,31.86,88.0,40.583851,-3.550815,618.9,3,5,112.1,4.219
32.71,1,-0.03,-0.038,0.039,-0.017,-0.018,0.024,-1.567,-0.042,-0.175,31.86,88.0,40.583851,-3.550815,618.9,3,5,112.1,4.219
32.81,1,0.005,-0.012,0.015,-0.016,-0.019,0.024,-1.569,-0.042,-0.176,31.86,88.0,40.583851,-3.550815,618.9,3,5,112.1,4.219
32.91,1,-0.005,-0.005,0.008,-0.001,-0.009,0.016,-1.57,-0.04,-0.177,31.86,88.0,40.583851,-3.550815,618.9,3,5,112.1,4.219
33.02,1,-0.023,-0.0,0.006,-0.015,-0.008,0.009,-1.571,-0.039,-0.179,32.89,86.0,40.583767,-3.550541,618.7,3,5,112.9,2.461
33.11,1,0.015,0.002,0.005,0.0,0.0,0.009,-1.57,-0.037,-0.18,32.89,86.0,40.583767,-3.550541,618.7,3,5,112.9,2.461
33.21,1,-0.005,0.012,-0.008,-0.003,0.001,-0.006,-1.569,-0.038,-0.182,32.89,86.0,40.583767,-3.550541,618.7,3,5,112.9,2.461
33.31,1,-0.057,0.037,0.02,-0.025,0.02,0.008,-1.572,-0.04,-0.184,32.89,86.0,40.583767,-3.550541,618.7,3,5,112.9,2.461
33.41,1,0.0,0.008,0.004,-0.025,0.02,0.009,-1.573,-0.042,-0.185,32.89,86.0,40.583767,-3.550541,618.7,3,5,112.9,2.461
33.51,1,-0.007,0.014,0.01,-0.007,0.014,0.008,-1.574,-0.042,-0.187,32.89,86.0,40.583767,-3.550541,618.7,3,5,112.9,2.461
33.62,1,-0.0,0.035,0.021,-0.005,0.022,0.017,-1.575,-0.043,-0.189,32.89,86.0,40.583767,-3.550541,618.7,3,5,112.9,2.461
33.72,1,0.016,0.044,0.001,0.003,0.033,0.005,-1.575,-0.043,-0.191,32.89,86.0,40.583767,-3.550541,618.7,3,5,112.9,2.461
33.81,1,-0.033,-0.014,0.001,-0.005,0.023,0.007,-1.576,-0.044,-0.193,32.89,86.0,40.583767,-3.550541,618.7,3,5,112.9,2.461
33.91,1,-0.023,0.035,-0.018,-0.021,0.019,-0.007,-1.574,-0.046,-0.195,32.89,86.0,40.583767,-3.550541,618.7,3,5,112.9,2.461
34.02,1,-0.06,0.011,0.011,-0.043,0.021,-0.002,-1.576,-0.043,-0.197,33.89,88.1,40.583679,-3.550279,619.3,3,5,115.0,2.812
34.11,1,0.0,-0.01,-0.01,-0.017,-0.0,0.0,-1.576,-0.043,-0.198,33.89,88.1,40.583679,-3.550279,619.3,3,5,115.0,2.812
34.21,1,-0.0,0.019,-0.017,-0.015,0.008,-0.008,-1.577,-0.045,-0.2,33.89,88.1,40.583679,-3.550279,619.3,3,5,115.0,2.812
34.31,1,0.001,-0.009,-0.017,-0.002,0.002,-0.019,-1.575,-0.046,-0.201,33.89,88.1,40.583679,-3.550279,619.3,3,5,115.0,2.812
34.41,1,0.019,-0.005,-0.002,0.004,-0.006,-0.01,-1.575,-0.047,-0.201,33.89,88.1,40.583679,-3.550279,619.3,3,5,115.0,2.812
34.51,1,-0.051,-0.011,-0.016,-0.01,-0.002,-0.009,-1.575,-0.047,-0.202,33.89,88.1,40.583679,-3.550279,619.3,3,5,115.0,2.812
34.61,1,0.001,-0.017,-0.011,-0.021,-0.01,-0.012,-1.576,-0.046,-0.203,33.89,88.1,40.583679,-3.550279,619.3,3,5,115.0,2.812
34.72,1,-0.016,0.003,-0.024,-0.006,-0.007,-0.016,-1.574,-0.046,-0.204,33.89,88.1,40.583679,-3.550279,619.3,3,5,115.0,2.812
34.81,1,-0.006,-0.013,-0.016,-0.016,-0.008,-0.022,-1.573,-0.044,-0.205,33.89,88.1,40.583679,-3.550279,619.3,3,5,115.0,2.812
34.92,1,0.004,0.001,-0.018,-0.001,-0.009,-0.016,-1.572,-0.04,-0.206,33.89,88.1,40.583679,-3.550279,619.3,3,5,115.0,2.812
35.01,1,-0.049,-0.01,-0.049,-0.016,-0.001,-0.029,-1.571,-0.041,-0.207,34.86,88.9,40.583584,-3.550018,619.5,3,5,116.4,3.516
35.12,1,-0.029,-0.012,-0.016,-0.033,-0.01,-0.029,-1.57,-0.04,-0.208,34.86,88.9,40.583584,-3.550018,619.5,3,5,116.4,3.516
35.22,1,-0.031,0.005,0.009,-0.031,-0.006,-0.009,-1.572,-0.038,-0.209,34.86,88.9,40.583584,-3.550018,619.5,3,5,116.4,3.516
35.32,1,-0.0,-0.002,-0.015,-0.021,0.002,-0.01,-1.569,-0.04,-0.21,34.86,88.9,40.583584,-3.550018,619.5,3,5,116.4,3.516
35.42,1,0.017,0.011,-0.023,0.005,0.002,-0.015,-1.568,-0.038,-0.211,34.86,88.9,40.583584,-3.550018,619.5,3,5,116.4,3.516
35.53,1,-0.017,0.012,-0.006,-0.002,0.003,-0.014,-1.566,-0.037,-0.212,34.86,88.9,40.583584,-3.550018,619.5,3,5,116.4,3.516
35.62,1,0.003,0.025,0.002,-0.008,0.02,-0.004,-1.566,-0.038,-0.213,34.86,88.9,40.583584,-3.550018,619.5,3,5,116.4,3.516
35.72,1,0.003,0.005,-0.002,0.005,0.017,-0.004,-1.565,-0.038,-0.214,34.86,88.9,40.583584,-3.550018,619.5,3,5,116.4,3.516
35.82,1,-0.017,-0.011,0.012,-0.008,0.001,0.0,-1.565,-0.036,-0.215,34.86,88.9,40.583584,-3.550018,619.5,3,5,116.4,3.516
35.92,1,0.005,0.023,0.02,-0.005,0.006,0.015,-1.566,-0.036,-0.216,34.86,88.9,40.583584,-3.550018,619.5,3,5,116.4,3.516
36.02,1,-0.005,-0.003,0.03,0.002,0.006,0.018,-1.567,-0.036,-0.217,35.9,88.3,40.583481,-3.549761,620.2,3,5,117.8,2.812
36.13,1,-0.011,0.005,0.009,-0.008,0.006,0.018,-1.567,-0.039,-0.219,35.9,88.3,40.583481,-3.549761,620.2,3,5,117.8,2.812
36.22,1,-0.022,0.024,-0.01,-0.014,0.011,0.005,-1.569,-0.04,-0.22,35.9,88.3,40.583481,-3.549761,620.2,3,5,117.8,2.812
36.32,1,-0.029,0.005,0.012,-0.023,0.009,0.007,-1.57,-0.041,-0.221,35.9,88.3,40.583481,-3.549761,620.2,3,5,117.8,2.812
36.42,1,-0.01,-0.013,0.023,-0.023,0.001,0.019,-1.572,-0.04,-0.222,35.9,88.3,40.583481,-3.549761,620.2,3,5,117.8,2.812
36.52,1,-0.027,0.028,-0.017,-0.021,0.006,-0.001,-1.572,-0.042,-0.224,35.9,88.3,40.583481,-3.549761,620.2,3,5,117.8,2.812
36.62,1,0.015,0.007,-0.004,-0.004,0.012,-0.004,-1.572,-0.046,-0.225,35.9,88.3,40.583481,-3.549761,620.2,3,5,117.8,2.812
36.73,1,0.003,0.02,-0.013,0.004,0.019,-0.008,-1.571,-0.048,-0.226,35.9,88.3,40.583481,-3.549761,620.2,3,5,117.8,2.812
36.83,1,0.016,-0.009,-0.052,0.002,0.003,-0.027,-1.567,-0.049,-0.228,35.9,88.3,40.583481,-3.549761,620.2,3,5,117.8,2.812
36.92,1,0.008,-0.002,-0.014,0.011,0.0,-0.029,-1.565,-0.049,-0.229,35.9,88.3,40.583481,-3.549761,620.2,3,5,117.8,2.812
37.02,1,-0.062,0.013,-0.039,-0.019,0.006,-0.028,-1.565,-0.048,-0.23,36.87,89.2,40.583374,-3.549507,620.6,3,5,119.5,3.164
37.12,1,-0.007,-0.013,-0.019,-0.019,0.001,-0.029,-1.563,-0.048,-0.231,36.87,89.2,40.583374,-3.549507,620.6,3,5,119.5,3.164
37.22,1,-0.023,0.001,-0.031,-0.019,-0.003,-0.024,-1.56,-0.049,-0.232,36.87,89.2,40.583374,-3.549507,620.6,3,5,119.5,3.164
37.34,1,0.003,0.006,-0.005,-0.012,0.002,-0.02,-1.557,-0.047,-0.233,36.87,89.2,40.583374,-3.549507,620.6,3,5,119.5,3.164
37.42,1,-0.025,-0.009,-0.016,-0.016,-0.008,-0.016,-1.558,-0.048,-0.235,36.87,89.2,40.583374,-3.549507,620.6,3,5,119.5,3.164
37.52,1,-0.026,-0.009,-0.011,-0.019,-0.007,-0.013,-1.559,-0.053,-0.236,36.87,89.2,40.583374,-3.549507,620.6,3,5,119.5,3.164
37.62,1,0.027,0.008,0.001,-0.004,-0.001,-0.008,-1.559,-0.054,-0.237,36.87,89.2,40.583374,-3.549507,620.6,3,5,119.5,3.164
37.72,1,-0.008,-0.011,0.01,0.007,0.003,0.002,-1.559,-0.051,-0.238,36.87,89.2,40.583374,-3.549507,620.6,3,5,119.5,3.164
37.83,1,0.005,0.002,-0.019,-0.001,-0.001,-0.005,-1.558,-0.053,-0.238,36.87,89.2,40.583374,-3.549507,620.6,3,5,119.5,3.164
37.93,1,-0.007,-0.021,-0.002,-0.003,-0.011,-0.006,-1.558,-0.053,-0.239,36.87,89.2,40.583374,-3.549507,620.6,3,5,119.5,3.164
38.04,1,-0.017,-0.015,-0.017,-0.013,-0.015,-0.008,-1.557,-0.05,-0.24,37.89,89.0,40.58326,-3.549247,620.8,3,5,120.9,3.164
38.12,1,-0.009,-0.012,-0.029,-0.01,-0.01,-0.021,-1.555,-0.049,-0.241,37.89,89.0,40.58326,-3.549247,620.8,3,5,120.9,3.164
38.22,1,0.011,-0.0,0.002,-0.003,-0.005,-0.011,-1.555,-0.051,-0.242,37.89,89.0,40.58326,-3.549247,620.8,3,5,120.9,3.164
38.32,1,-0.009,0.011,0.001,-0.004,-0.003,-0.005,-1.554,-0.051,-0.244,37.89,89.0,40.58326,-3.549247,620.8,3,5,120.9,3.164
38.42,1,0.016,0.016,-0.016,0.008,0.004,-0.008,-1.554,-0.052,-0.245,37.89,89.0,40.58326,-3.549247,620.8,3,5,120.9,3.164
38.52,1,-0.039,-0.022,-0.013,-0.007,-0.002,-0.011,-1.554,-0.054,-0.246,37.89,89.0,40.58326,-3.549247,620.8,3,5,120.9,3.164
38.62,1,-0.036,-0.004,0.005,-0.034,-0.006,-0.008,-1.555,-0.053,-0.246,37.89,89.0,40.58326,-3.549247,620.8,3,5,120.9,3.164
38.72,1,0.015,0.012,0.004,-0.013,-0.0,0.006,-1.555,-0.054,-0.247,37.89,89.0,40.58326,-3.549247,620.8,3,5,120.9,3.164
38.82,1,-0.045,-0.035,-0.008,-0.016,-0.011,-0.006,-1.555,-0.053,-0.247,37.89,89.0,40.58326,-3.549247,620.8,3,5,120.9,3.164
38.93,1,-0.003,-0.002,0.022,-0.027,-0.01,0.002,-1.558,-0.052,-0.248,37.89,89.0,40.58326,-3.549247,620.8,3,5,120.9,3.164
39.03,1,-0.008,-0.001,-0.001,-0.005,-0.004,0.011,-1.56,-0.054,-0.249,38.86,88.7,40.583134,-3.548993,620.9,3,5,123.0,3.516
39.13,1,-0.004,-0.022,0.016,-0.009,-0.01,0.006,-1.56,-0.051,-0.249,38.86,88.7,40.583134,-3.548993,620.9,3,5,123.0,3.516
39.23,1,-0.004,-0.007,0.021,-0.002,-0.015,0.019,-1.561,-0.05,-0.25,38.86,88.7,40.583134,-3.548993,620.9,3,5,123.0,3.516
39.33,1,-0.024,-0.004,0.013,-0.013,-0.006,0.012,-1.563,-0.052,-0.251,38.86,88.7,40.583134,-3.548993,620.9,3,5,123.0,3.516
39.43,1,-0.004,-0.009,0.001,-0.012,-0.007,0.012,-1.565,-0.051,-0.252,38.86,88.7,40.583134,-3.548993,620.9,3,5,123.0,3.516
39.53,1,0.009,-0.001,0.021,-0.004,-0.007,0.016,-1.565,-0.05,-0.253,38.86,88.7,40.583134,-3.548993,620.9,3,5,123.0,3.516
39.63,1,-0.01,-0.011,0.007,0.0,-0.008,0.008,-1.563,-0.051,-0.253,38.86,88.7,40.583134,-3.548993,620.9,3,5,123.0,3.516
39.73,1,-0.068,-0.023,-0.01,-0.036,-0.006,0.004,-1.562,-0.052,-0.254,38.86,88.7,40.583134,-3.548993,620.9,3,5,123.0,3.516
39.83,1,-0.028,0.01,0.01,-0.039,-0.008,-0.002,-1.563,-0.047,-0.255,38.86,88.7,40.583134,-3.548993,620.9,3,5,123.0,3.516
39.93,1,0.025,0.037,0.017,-0.007,0.014,0.014,-1.565,-0.046,-0.256,38.86,88.7,40.583134,-3.548993,620.9,3,5,123.0,3.516
40.03,1,0.046,0.012,-0.012,0.021,0.018,0.002,-1.564,-0.045,-0.257,39.86,89.1,40.583019,-3.548746,621.1,3,5,124.5,3.516
40.13,1,-0.006,-0.023,0.012,0.016,-0.003,0.002,-1.565,-0.04,-0.258,39.86,89.1,40.583019,-3.548746,621.1,3,5,124.5,3.516
40.24,1,-0.037,0.006,0.038,-0.011,-0.003,0.021,-1.568,-0.043,-0.259,39.86,89.1,40.583019,-3.548746,621.1,3,5,124.5,3.516
40.33,1,-0.037,0.012,0.028,-0.031,0.009,0.027,-1.57,-0.045,-0.26,39.86,89.1,40.583019,-3.548746,621.1,3,5,124.5,3.516
40.43,1,-0.015,0.021,0.012,-0.019,0.013,0.018,-1.569,-0.048,-0.262,39.86,89.1,40.583019,-3.548746,621.1,3,5,124.5,3.516
40.53,1,-0.011,0.001,0.025,-0.016,0.004,0.02,-1.572,-0.052,-0.264,39.86,89.1,40.583019,-3.548746,621.1,3,5,124.5,3.516
40.63,1,0.016,0.031,0.034,-0.004,0.019,0.031,-1.574,-0.056,-0.265,39.86,89.1,40.583019,-3.548746,621.1,3,5,124.5,3.516
40.73,1,0.004,0.019,-0.002,0.008,0.021,0.019,-1.573,-0.059,-0.267,39.86,89.1,40.583019,-3.548746,621.1,3,5,124.5,3.516
40.83,1,-0.029,0.01,-0.004,-0.005,0.016,0.004,-1.574,-0.06,-0.269,39.86,89.1,40.583019,-3.548746,621.1,3,5,124.5,3.516
40.93,1,-0.049,0.026,0.021,-0.039,0.016,0.004,-1.576,-0.059,-0.271,39.86,89.1,40.583019,-3.548746,621.1,3,5,124.5,3.516
41.04,1,-0.011,0.017,0.01,-0.023,0.028,0.014,-1.579,-0.056,-0.272,40.88,89.2,40.582882,-3.548514,621.4,3,5,125.5,2.461
41.14,1,0.006,-0.008,-0.004,-0.016,0.007,0.006,-1.576,-0.058,-0.274,40.88,89.2,40.582882,-3.548514,621.4,3,5,125.5,2.461
41.23,1,0.041,-0.005,0.011,0.019,-0.0,0.005,-1.575,-0.059,-0.275,40.88,89.2,40.582882,-3.548514,621.4,3,5,125.5,2.461
41.33,1,-0.042,0.011,-0.001,-0.002,0.002,0.004,-1.577,-0.058,-0.277,40.88,89.2,40.582882,-3.548514,621.4,3,5,125.5,2.461
41.43,1,-0.073,-0.004,0.017,-0.038,0.001,0.007,-1.579,-0.057,-0.277,40.88,89.2,40.582882,-3.548514,621.4,3,5,125.5,2.461
41.53,1,-0.025,-0.0,0.02,-0.043,-0.001,0.021,-1.582,-0.058,-0.278,40.88,89.2,40.582882,-3.548514,621.4,3,5,125.5,2.461
41.64,1,-0.025,-0.031,-0.015,-0.032,-0.011,0.002,-1.581,-0.056,-0.278,40.88,89.2,40.582882,-3.548514,621.4,3,5,125.5,2.461
41.73,1,-0.005,-0.025,0.004,-0.014,-0.02,-0.0,-1.581,-0.054,-0.279,40.88,89.2,40.582882,-3.548514,621.4,3,5,125.5,2.461
41.84,1,-0.011,-0.013,-0.024,-0.013,-0.022,-0.011,-1.58,-0.052,-0.279,40.88,89.2,40.582882,-3.548514,621.4,3,5,125.5,2.461
41.93,1,-0.016,0.01,-0.017,-0.013,-0.002,-0.014,-1.579,-0.052,-0.28,40.88,89.2,40.582882,-3.548514,621.4,3,5,125.5,2.461
42.03,1,-0.018,0.021,-0.034,-0.02,0.008,-0.025,-1.578,-0.049,-0.281,41.95,90.8,40.582745,-3.548282,621.7,3,5,127.6,3.164
42.14,1,-0.022,0.02,-0.049,-0.021,0.016,-0.036,-1.576,-0.048,-0.281,41.95,90.8,40.582745,-3.548282,621.7,3,5,127.6,3.164
42.23,1,0.001,0.006,-0.022,-0.013,0.012,-0.035,-1.574,-0.046,-0.282,41.95,90.8,40.582745,-3.548282,621.7,3,5,127.6,3.164
42.33,1,0.004,0.008,-0.051,0.002,0.009,-0.034,-1.569,-0.048,-0.283,41.95,90.8,40.582745,-3.548282,621.7,3,5,127.6,3.164
42.43,1,-0.017,0.024,-0.03,-0.006,0.017,-0.037,-1.565,-0.05,-0.285,41.95,90.8,40.582745,-3.548282,621.7,3,5,127.6,3.164
42.54,1,-0.027,0.045,-0.044,-0.017,0.025,-0.04,-1.562,-0.054,-0.287,41.95,90.8,40.582745,-3.548282,621.7,3,5,127.6,3.164
42.63,1,-0.051,0.034,-0.036,-0.032,0.038,-0.041,-1.559,-0.056,-0.288,41.95,90.8,40.582745,-3.548282,621.7,3,5,127.6,3.164
42.74,1,-0.011,0.021,-0.023,-0.029,0.031,-0.029,-1.558,-0.058,-0.29,41.95,90.8,40.582745,-3.548282,621.7,3,5,127.6,3.164
42.84,1,-0.026,0.002,-0.032,-0.019,0.017,-0.033,-1.556,-0.059,-0.292,41.95,90.8,40.582745,-3.548282,621.7,3,5,127.6,3.164
42.94,1,0.017,0.013,-0.024,-0.011,0.008,-0.029,-1.554,-0.062,-0.293,41.95,90.8,40.582745,-3.548282,621.7,3,5,127.6,3.164
43.04,1,-0.005,0.019,-0.026,-0.005,0.015,-0.025,-1.552,-0.062,-0.295,42.86,91.7,40.5826,-3.548043,622.0,3,5,129.0,3.516
43.14,1,-0.005,0.017,-0.044,-0.003,0.017,-0.032,-1.548,-0.062,-0.296,42.86,91.7,40.5826,-3.548043,622.0,3,5,129.0,3.516
43.24,1,-0.041,-0.004,-0.017,-0.014,0.009,-0.033,-1.545,-0.063,-0.297,42.86,91.7,40.5826,-3.548043,622.0,3,5,129.0,3.516
43.34,1,-0.039,-0.009,-0.013,-0.036,-0.006,-0.016,-1.545,-0.062,-0.298,42.86,91.7,40.5826,-3.548043,622.0,3,5,129.0,3.516
43.44,1,-0.012,-0.034,-0.024,-0.022,-0.012,-0.017,-1.542,-0.061,-0.298,42.86,91.7,40.5826,-3.548043,622.0,3,5,129.0,3.516
43.55,1,-0.054,-0.04,-0.018,-0.038,-0.029,-0.025,-1.54,-0.057,-0.298,42.86,91.7,40.5826,-3.548043,622.0,3,5,129.0,3.516
43.64,1,0.022,-0.05,0.012,-0.016,-0.039,-0.006,-1.538,-0.054,-0.298,42.86,91.7,40.5826,-3.548043,622.0,3,5,129.0,3.516
43.74,1,-0.007,-0.025,0.007,-0.001,-0.041,0.003,-1.538,-0.049,-0.297,42.86,91.7,40.5826,-3.548043,622.0,3,5,129.0,3.516
43.84,1,-0.027,-0.032,-0.007,-0.013,-0.033,0.003,-1.539,-0.045,-0.297,42.86,91.7,40.5826,-3.548043,622.0,3,5,129.0,3.516
43.94,1,-0.024,-0.041,0.024,-0.023,-0.036,0.004,-1.54,-0.041,-0.296,42.86,91.7,40.5826,-3.548043,622.0,3,5,129.0,3.516
44.04,1,-0.026,-0.028,-0.002,-0.02,-0.038,0.009,-1.54,-0.035,-0.295,43.87,89.9,40.582458,-3.547811,622.2,3,5,131.5,3.867
44.14,1,-0.011,-0.014,0.037,-0.024,-0.021,0.017,-1.542,-0.032,-0.294,43.87,89.9,40.582458,-3.547811,622.2,3,5,131.5,3.867
44.25,1,0.014,-0.01,0.029,-0.003,-0.015,0.029,-1.543,-0.031,-0.293,43.87,89.9,40.582458,-3.547811,622.2,3,5,131.5,3.867
44.34,1,0.001,-0.021,0.024,0.002,-0.015,0.026,-1.543,-0.028,-0.292,43.87,89.9,40.582458,-3.547811,622.2,3,5,131.5,3.867
44.44,1,-0.048,-0.02,0.024,-0.025,-0.02,0.023,-1.545,-0.027,-0.291,43.87,89.9,40.582458,-3.547811,622.2,3,5,131.5,3.867
44.54,1,0.005,0.003,0.021,-0.012,-0.011,0.024,-1.547,-0.025,-0.29,43.87,89.9,40.582458,-3.547811,622.2,3,5,131.5,3.867
44.64,1,-0.047,-0.025,0.005,-0.014,-0.016,0.011,-1.545,-0.026,-0.29,43.87,89.9,40.582458,-3.547811,622.2,3,5,131.5,3.867
44.75,1,-0.022,0.016,0.023,-0.039,-0.001,0.018,-1.545,-0.028,-0.29,43.87,89.9,40.582458,-3.547811,622.2,3,5,131.5,3.867
44.84,1,0.018,0.016,-0.008,-0.009,0.008,0.009,-1.544,-0.029,-0.289,43.87,89.9,40.582458,-3.547811,622.2,3,5,131.5,3.867
44.94,1,0.001,0.013,0.009,0.005,0.016,0.005,-1.544,-0.03,-0.289,43.87,89.9,40.582458,-3.547811,622.2,3,5,131.5,3.867
45.04,1,-0.019,0.014,0.008,-0.008,0.012,0.005,-1.545,-0.03,-0.289,44.87,89.9,40.582306,-3.5476,622.7,3,5,131.8,2.812
45.14,1,-0.005,0.013,0.019,-0.009,0.012,0.013,-1.545,-0.032,-0.289,44.87,89.9,40.582306,-3.5476,622.7,3,5,131.8,2.812
45.25,1,0.009,0.025,0.002,-0.004,0.019,0.011,-1.547,-0.034,-0.289,44.87,89.9,40.582306,-3.5476,622.7,3,5,131.8,2.812
45.34,1,-0.041,0.03,-0.013,-0.011,0.028,0.001,-1.547,-0.033,-0.289,44.87,89.9,40.582306,-3.5476,622.7,3,5,131.8,2.812
45.45,1,0.004,0.01,-0.007,-0.015,0.02,-0.009,-1.546,-0.033,-0.289,44.87,89.9,40.582306,-3.5476,622.7,3,5,131.8,2.812
45.55,1,-0.063,0.015,-0.002,-0.032,0.011,-0.004,-1.548,-0.034,-0.289,44.87,89.9,40.582306,-3.5476,622.7,3,5,131.8,2.812
45.64,1,-0.038,0.02,0.009,-0.043,0.02,0.002,-1.551,-0.035,-0.289,44.87,89.9,40.582306,-3.5476,622.7,3,5,131.8,2.812
45.75,1,0.038,0.016,0.003,-0.004,0.021,0.002,-1.549,-0.037,-0.289,44.87,89.9,40.582306,-3.5476,622.7,3,5,131.8,2.812
45.84,1,0.026,0.017,-0.015,0.018,0.019,-0.004,-1.547,-0.037,-0.289,44.87,89.9,40.582306,-3.5476,622.7,3,5,131.8,2.812
45.94,1,-0.021,-0.015,-0.005,0.001,0.002,-0.01,-1.547,-0.036,-0.288,44.87,89.9,40.582306,-3.5476,622.7,3,5,131.8,2.812
46.04,1,-0.038,-0.038,0.003,-0.018,-0.022,-0.001,-1.547,-0.034,-0.287,45.88,89.4,40.582153,-3.547381,623.2,3,5,133.2,1.758
46.14,1,-0.032,-0.031,0.024,-0.03,-0.027,0.012,-1.548,-0.031,-0.285,45.88,89.4,40.582153,-3.547381,623.2,3,5,133.2,1.758
46.24,1,-0.008,-0.021,0.011,-0.023,-0.022,0.015,-1.549,-0.029,-0.284,45.88,89.4,40.582153,-3.547381,623.2,3,5,133.2,1.758
46.35,1,-0.016,-0.044,-0.002,-0.012,-0.032,0.008,-1.549,-0.027,-0.283,45.88,89.4,40.582153,-3.547381,623.2,3,5,133.2,1.758
46.45,1,0.025,-0.015,0.022,0.006,-0.031,0.012,-1.55,-0.026,-0.281,45.88,89.4,40.582153,-3.547381,623.2,3,5,133.2,1.758
46.55,1,-0.014,-0.022,0.008,-0.008,-0.021,0.012,-1.55,-0.025,-0.28,45.88,89.4,40.582153,-3.547381,623.2,3,5,133.2,1.758
46.66,1,-0.015,-0.019,0.02,-0.009,-0.018,0.014,-1.551,-0.023,-0.279,45.88,89.4,40.582153,-3.547381,623.2,3,5,133.2,1.758
46.76,1,-0.012,0.001,0.004,-0.01,-0.016,0.01,-1.551,-0.022,-0.278,45.88,89.4,40.582153,-3.547381,623.2,3,5,133.2,1.758
46.85,1,0.003,0.012,-0.004,-0.006,-0.0,0.004,-1.551,-0.023,-0.277,45.88,89.4,40.582153,-3.547381,623.2,3,5,133.2,1.758
46.95,1,0.004,-0.005,0.008,-0.001,0.002,-0.001,-1.552,-0.023,-0.276,45.88,89.4,40.582153,-3.547381,623.2,3,5,133.2,1.758
47.05,1,0.003,-0.019,-0.012,0.001,-0.007,0.001,-1.553,-0.022,-0.274,46.91,89.4,40.582001,-3.547174,623.4,3,5,134.3,2.461
47.15,1,-0.01,-0.005,-0.02,-0.004,-0.008,-0.013,-1.553,-0.021,-0.273,46.91,89.4,40.582001,-3.547174,623.4,3,5,134.3,2.461
47.25,1,-0.024,-0.014,-0.027,-0.013,-0.012,-0.017,-1.55,-0.021,-0.272,46.91,89.4,40.582001,-3.547174,623.4,3,5,134.3,2.461
47.35,1,-0.019,-0.003,-0.023,-0.016,-0.009,-0.023,-1.548,-0.02,-0.271,46.91,89.4,40.582001,-3.547174,623.4,3,5,134.3,2.461
47.45,1,-0.024,0.0,-0.029,-0.022,-0.001,-0.024,-1.545,-0.02,-0.269,46.91,89.4,40.582001,-3.547174,623.4,3,5,134.3,2.461
47.55,1,0.05,0.007,-0.016,0.015,0.002,-0.021,-1.543,-0.021,-0.268,46.91,89.4,40.582001,-3.547174,623.4,3,5,134.3,2.461
47.65,1,-0.039,-0.007,-0.044,0.005,-0.003,-0.029,-1.541,-0.021,-0.267,46.91,89.4,40.582001,-3.547174,623.4,3,5,134.3,2.461
47.75,1,-0.019,0.007,-0.019,-0.03,-0.001,-0.033,-1.54,-0.022,-0.265,46.91,89.4,40.582001,-3.547174,623.4,3,5,134.3,2.461
47.85,1,-0.028,-0.01,-0.019,-0.021,-0.001,-0.02,-1.541,-0.022,-0.264,46.91,89.4,40.582001,-3.547174,623.4,3,5,134.3,2.461
47.95,1,0.0,-0.019,-0.031,-0.017,-0.012,-0.031,-1.538,-0.022,-0.262,46.91,89.4,40.582001,-3.547174,623.4,3,5,134.3,2.461
48.05,1,-0.011,-0.011,-0.015,-0.006,-0.011,-0.019,-1.536,-0.018,-0.26,47.87,88.8,40.581841,-3.546969,623.2,3,5,134.6,1.406
48.15,1,0.005,0.005,-0.006,-0.002,-0.005,-0.013,-1.533,-0.017,-0.259,47.87,88.8,40.581841,-3.546969,623.2,3,5,134.6,1.406
48.25,1,-0.009,0.009,-0.002,-0.007,0.001,-0.008,-1.533,-0.018,-0.257,47.87,88.8,40.581841,-3.546969,623.2,3,5,134.6,1.406
48.35,1,-0.014,-0.013,0.022,-0.012,0.0,0.005,-1.534,-0.018,-0.255,47.87,88.8,40.581841,-3.546969,623.2,3,5,134.6,1.406
48.45,1,-0.003,-0.005,0.03,-0.008,-0.005,0.017,-1.535,-0.019,-0.254,47.87,88.8,40.581841,-3.546969,623.2,3,5,134.6,1.406
48.55,1,-0.013,-0.01,0.009,-0.008,-0.007,0.02,-1.536,-0.018,-0.252,47.87,88.8,40.581841,-3.546969,623.2,3,5,134.6,1.406
48.65,1,-0.034,-0.002,0.024,-0.017,-0.005,0.018,-1.538,-0.017,-0.25,47.87,88.8,40.581841,-3.546969,623.2,3,5,134.6,1.406
48.75,1,-0.016,0.02,0.028,-0.021,0.001,0.025,-1.541,-0.016,-0.248,47.87,88.8,40.581841,-3.546969,623.2,3,5,134.6,1.406
48.85,1,-0.024,-0.0,0.022,-0.022,0.011,0.026,-1.542,-0.016,-0.247,47.87,88.8,40.581841,-3.546969,623.2,3,5,134.6,1.406
48.95,1,-0.038,-0.015,0.04,-0.025,-0.006,0.027,-1.543,-0.013,-0.245,47.87,88.8,40.581841,-3.546969,623.2,3,5,134.6,1.406
49.05,1,-0.021,0.005,0.035,-0.03,0.001,0.03,-1.547,-0.011,-0.243,48.86,88.8,40.581692,-3.546757,623.8,3,5,135.0,0.703
49.15,1,0.021,-0.019,0.032,-0.009,-0.009,0.04,-1.55,-0.011,-0.241,48.86,88.8,40.581692,-3.546757,623.8,3,5,135.0,0.703
49.25,1,0.001,-0.029,0.017,0.003,-0.023,0.028,-1.551,-0.007,-0.238,48.86,88.8,40.581692,-3.546757,623.8,3,5,135.0,0.703
49.35,1,-0.01,-0.039,0.036,-0.001,-0.028,0.021,-1.552,-0.004,-0.236,48.86,88.8,40.581692,-3.546757,623.8,3,5,135.0,0.703
49.45,1,-0.039,-0.022,0.043,-0.022,-0.027,0.039,-1.556,-0.002,-0.233,48.86,88.8,40.581692,-3.546757,623.8,3,5,135.0,0.703
49.55,1,-0.024,0.004,0.052,-0.023,-0.014,0.043,-1.558,0.0,-0.23,48.86,88.8,40.581692,-3.546757,623.8,3,5,135.0,0.703
49.65,1,-0.012,-0.022,0.034,-0.02,-0.015,0.042,-1.558,0.003,-0.227,48.86,88.8,40.581692,-3.546757,623.8,3,5,135.0,0.703
49.77,1,0.021,-0.035,0.026,-0.005,-0.021,0.033,-1.56,0.005,-0.223,48.86,88.8,40.581692,-3.546757,623.8,3,5,135.0,0.703
49.87,1,0.009,-0.023,0.029,0.008,-0.027,0.033,-1.562,0.008,-0.22,48.86,88.8,40.581692,-3.546757,623.8,3,5,135.0,0.703
49.95,1,0.018,0.017,0.026,0.016,-0.009,0.029,-1.564,0.009,-0.218,48.86,88.8,40.581692,-3.546757,623.8,3,5,135.0,0.703
50.05,1,-0.007,-0.005,0.018,0.007,0.002,0.021,-1.565,0.012,-0.215,49.87,87.6,40.581532,-3.546552,624.0,3,5,135.4,0.703
50.16,1,-0.06,0.008,0.033,-0.029,-0.002,0.026,-1.568,0.014,-0.212,49.87,87.6,40.581532,-3.546552,624.0,3,5,135.4,0.703
50.26,1,-0.019,0.005,0.028,-0.028,0.007,0.03,-1.571,0.014,-0.209,49.87,87.6,40.581532,-3.546552,624.0,3,5,135.4,0.703
50.36,1,0.028,-0.017,0.016,-0.003,-0.006,0.026,-1.574,0.015,-0.206,49.87,87.6,40.581532,-3.546552,624.0,3,5,135.4,0.703
50.46,1,-0.009,-0.03,-0.012,0.002,-0.016,0.005,-1.573,0.013,-0.204,49.87,87.6,40.581532,-3.546552,624.0,3,5,135.4,0.703
50.56,1,-0.011,-0.024,0.03,-0.009,-0.025,0.01,-1.574,0.013,-0.201,49.87,87.6,40.581532,-3.546552,624.0,3,5,135.4,0.703
50.66,1,-0.023,0.025,0.054,-0.01,-0.007,0.038,-1.576,0.01,-0.2,49.87,87.6,40.581532,-3.546552,624.0,3,5,135.4,0.703
50.76,1,-0.008,0.044,0.003,-0.019,0.026,0.025,-1.576,0.009,-0.199,49.87,87.6,40.581532,-3.546552,624.0,3,5,135.4,0.703
50.86,1,0.005,0.029,0.013,-0.005,0.032,0.015,-1.577,0.007,-0.198,49.87,87.6,40.581532,-3.546552,624.0,3,5,135.4,0.703
50.97,1,-0.018,0.053,0.005,-0.005,0.036,0.011,-1.579,0.004,-0.196,49.87,87.6,40.581532,-3.546552,624.0,3,5,135.4,0.703
51.07,1,-0.004,0.024,0.015,-0.008,0.035,0.006,-1.58,-0.0,-0.195,50.87,89.0,40.581371,-3.546346,624.1,3,5,134.6,0.703
51.16,1,0.015,0.012,0.02,-0.0,0.021,0.018,-1.582,-0.004,-0.194,50.87,89.0,40.581371,-3.546346,624.1,3,5,134.6,0.703
51.26,1,0.055,0.027,0.012,0.026,0.028,0.015,-1.583,-0.009,-0.193,50.87,89.0,40.581371,-3.546346,624.1,3,5,134.6,0.703
51.36,1,-0.036,0.019,0.0,0.0,0.019,0.009,-1.583,-0.011,-0.192,50.87,89.0,40.581371,-3.546346,624.1,3,5,134.6,0.703
51.46,1,-0.014,0.006,0.017,-0.011,0.011,0.007,-1.584,-0.014,-0.191,50.87,89.0,40.581371,-3.546346,624.1,3,5,134.6,0.703
51.56,1,-0.012,0.017,0.016,-0.002,0.018,0.02,-1.586,-0.017,-0.19,50.87,89.0,40.581371,-3.546346,624.1,3,5,134.6,0.703
51.67,1,-0.041,0.014,-0.007,-0.022,0.016,0.004,-1.584,-0.019,-0.189,50.87,89.0,40.581371,-3.546346,624.1,3,5,134.6,0.703
51.76,1,-0.008,0.014,0.022,-0.022,0.015,0.009,-1.584,-0.021,-0.188,50.87,89.0,40.581371,-3.546346,624.1,3,5,134.6,0.703
51.86,1,0.027,0.008,0.012,-0.005,0.014,0.014,-1.586,-0.022,-0.187,50.87,89.0,40.581371,-3.546346,624.1,3,5,134.6,0.703
51.96,1,0.031,0.01,0.005,0.025,0.013,0.01,-1.584,-0.022,-0.185,50.87,89.0,40.581371,-3.546346,624.1,3,5,134.6,0.703
52.06,1,-0.021,-0.001,-0.009,0.01,0.003,-0.001,-1.583,-0.02,-0.184,51.87,90.1,40.581219,-3.546145,625.1,3,5,134.3,1.055
52.16,1,-0.039,-0.019,0.002,-0.022,-0.007,-0.003,-1.582,-0.018,-0.182,51.87,90.1,40.581219,-3.546145,625.1,3,5,134.3,1.055
52.27,1,-0.049,-0.013,0.001,-0.035,-0.009,0.005,-1.583,-0.016,-0.18,51.87,90.1,40.581219,-3.546145,625.1,3,5,134.3,1.055
52.36,1,-0.031,-0.025,0.013,-0.047,-0.017,0.003,-1.584,-0.015,-0.178,51.87,90.1,40.581219,-3.546145,625.1,3,5,134.3,1.055
52.46,1,0.0,-0.006,-0.017,-0.015,-0.013,0.001,-1.586,-0.013,-0.176,51.87,90.1,40.581219,-3.546145,625.1,3,5,134.3,1.055
52.56,1,-0.034,-0.015,-0.007,-0.019,-0.013,-0.007,-1.585,-0.01,-0.175,51.87,90.1,40.581219,-3.546145,625.1,3,5,134.3,1.055
52.66,1,-0.011,0.014,-0.016,-0.02,-0.004,-0.01,-1.585,-0.01,-0.173,51.87,90.1,40.581219,-3.546145,625.1,3,5,134.3,1.055
52.76,1,-0.036,-0.0,0.002,-0.025,0.002,-0.009,-1.586,-0.01,-0.172,51.87,90.1,40.581219,-3.546145,625.1,3,5,134.3,1.055
52.87,1,-0.036,-0.007,-0.016,-0.031,-0.003,-0.005,-1.585,-0.011,-0.17,51.87,90.1,40.581219,-3.546145,625.1,3,5,134.3,1.055
52.96,1,-0.008,-0.005,-0.024,-0.027,-0.003,-0.025,-1.583,-0.01,-0.168,51.87,90.1,40.581219,-3.546145,625.1,3,5,134.3,1.055
53.06,1,0.001,0.002,-0.009,-0.007,-0.005,-0.012,-1.582,-0.011,-0.166,52.87,91.6,40.581059,-3.54593,625.5,3,5,135.0,0.703
53.16,1,-0.009,-0.019,-0.035,-0.004,-0.007,-0.021,-1.578,-0.008,-0.164,52.87,91.6,40.581059,-3.54593,625.5,3,5,135.0,0.703
53.26,1,-0.003,-0.073,-0.039,-0.002,-0.032,-0.031,-1.576,-0.005,-0.161,52.87,91.6,40.581059,-3.54593,625.5,3,5,135.0,0.703
53.36,1,0.022,-0.059,-0.003,0.001,-0.055,-0.023,-1.574,-0.005,-0.158,52.87,91.6,40.581059,-3.54593,625.5,3,5,135.0,0.703
53.47,1,-0.017,-0.037,-0.019,0.003,-0.053,-0.014,-1.571,-0.006,-0.156,52.87,91.6,40.581059,-3.54593,625.5,3,5,135.0,0.703
53.56,1,-0.05,-0.025,-0.023,-0.03,-0.037,-0.023,-1.571,-0.003,-0.153,52.87,91.6,40.581059,-3.54593,625.5,3,5,135.0,0.703
53.66,1,-0.031,0.013,-0.024,-0.032,-0.014,-0.02,-1.571,-0.002,-0.151,52.87,91.6,40.581059,-3.54593,625.5,3,5,135.0,0.703
53.76,1,-0.041,-0.018,-0.02,-0.037,-0.01,-0.026,-1.571,-0.003,-0.148,52.87,91.6,40.581059,-3.54593,625.5,3,5,135.0,0.703
53.86,1,0.001,-0.018,-0.023,-0.018,-0.012,-0.022,-1.569,-0.0,-0.146,52.87,91.6,40.581059,-3.54593,625.5,3,5,135.0,0.703
54.07,1,-0.002,-0.027,-0.025,-0.003,-0.024,-0.012,-1.567,0.001,-0.141,52.87,91.6,40.581059,-3.54593,625.5,3,5,135.0,0.703
54.18,1,-0.016,0.003,-0.018,-0.007,-0.012,-0.015,-1.566,0.001,-0.139,53.92,91.8,40.580894,-3.545714,626.0,3,5,134.3,0.703
54.27,1,-0.006,-0.001,-0.005,-0.007,-0.01,-0.01,-1.566,0.004,-0.137,53.92,91.8,40.580894,-3.545714,626.0,3,5,134.3,0.703
54.37,1,-0.008,0.009,0.01,-0.009,0.001,-0.003,-1.566,0.005,-0.135,53.92,91.8,40.580894,-3.545714,626.0,3,5,134.3,0.703
54.47,1,-0.004,-0.008,-0.019,-0.004,0.003,-0.007,-1.563,0.006,-0.133,53.92,91.8,40.580894,-3.545714,626.0,3,5,134.3,0.703
54.57,1,-0.025,-0.003,-0.015,-0.016,-0.006,-0.014,-1.563,0.007,-0.131,53.92,91.8,40.580894,-3.545714,626.0,3,5,134.3,0.703
54.68,1,-0.015,-0.006,0.002,-0.017,-0.004,-0.007,-1.561,0.005,-0.129,53.92,91.8,40.580894,-3.545714,626.0,3,5,134.3,0.703
54.77,1,-0.011,0.007,-0.003,-0.017,-0.0,-0.002,-1.561,0.004,-0.127,53.92,91.8,40.580894,-3.545714,626.0,3,5,134.3,0.703
54.87,1,-0.042,0.004,-0.001,-0.019,0.01,-0.003,-1.56,0.004,-0.125,53.92,91.8,40.580894,-3.545714,626.0,3,5,134.3,0.703
54.97,1,0.011,0.015,-0.002,-0.021,0.007,-0.001,-1.561,0.005,-0.123,53.92,91.8,40.580894,-3.545714,626.0,3,5,134.3,0.703
55.07,1,-0.002,0.006,0.004,0.001,0.004,0.002,-1.562,0.004,-0.121,53.92,91.8,40.580894,-3.545714,626.0,3,5,134.3,0.703
55.17,1,-0.048,0.008,-0.008,-0.032,0.008,-0.007,-1.561,0.003,-0.12,54.87,91.3,40.580738,-3.545499,626.5,3,5,133.6,1.406
55.28,1,0.017,0.015,0.015,-0.008,0.012,0.002,-1.561,0.002,-0.119,54.87,91.3,40.580738,-3.545499,626.5,3,5,133.6,1.406
55.37,1,-0.018,-0.004,0.005,-0.005,0.003,0.009,-1.561,0.001,-0.117,54.87,91.3,40.580738,-3.545499,626.5,3,5,133.6,1.406
55.47,1,0.009,0.008,-0.003,-0.008,0.004,0.001,-1.56,-0.001,-0.116,54.87,91.3,40.580738,-3.545499,626.5,3,5,133.6,1.406
55.57,1,0.009,0.007,-0.008,0.011,0.005,-0.002,-1.558,-0.001,-0.115,54.87,91.3,40.580738,-3.545499,626.5,3,5,133.6,1.406
55.67,1,-0.039,-0.006,-0.013,-0.012,0.002,-0.006,-1.556,-0.002,-0.113,54.87,91.3,40.580738,-3.545499,626.5,3,5,133.6,1.406
55.78,1,0.004,0.009,-0.007,-0.011,0.004,-0.008,-1.555,-0.002,-0.111,54.87,91.3,40.580738,-3.545499,626.5,3,5,133.6,1.406
55.87,1,-0.046,0.017,-0.0,-0.021,0.012,-0.007,-1.555,-0.002,-0.11,54.87,91.3,40.580738,-3.545499,626.5,3,5,133.6,1.406
55.97,1,-0.013,0.004,0.012,-0.027,0.011,0.001,-1.557,-0.001,-0.108,54.87,91.3,40.580738,-3.545499,626.5,3,5,133.6,1.406
56.07,1,0.002,-0.018,0.02,-0.012,-0.002,0.013,-1.558,-0.0,-0.106,54.87,91.3,40.580738,-3.545499,626.5,3,5,133.6,1.406
56.17,1,0.002,-0.035,0.006,0.001,-0.024,0.011,-1.557,0.002,-0.104,55.94,91.0,40.580582,-3.545275,626.6,3,5,133.2,1.055
56.28,1,-0.005,-0.022,0.006,-0.001,-0.022,0.009,-1.558,0.003,-0.101,55.94,91.0,40.580582,-3.545275,626.6,3,5,133.2,1.055
56.37,1,0.003,-0.011,0.005,-0.004,-0.015,0.005,-1.559,0.001,-0.099,55.94,91.0,40.580582,-3.545275,626.6,3,5,133.2,1.055
56.48,1,-0.036,-0.023,-0.006,-0.01,-0.024,0.003,-1.557,0.002,-0.097,55.94,91.0,40.580582,-3.545275,626.6,3,5,133.2,1.055
56.57,1,-0.011,0.004,-0.009,-0.025,-0.012,-0.006,-1.555,0.003,-0.095,55.94,91.0,40.580582,-3.545275,626.6,3,5,133.2,1.055
56.67,1,0.027,0.021,-0.005,0.003,0.006,-0.006,-1.554,0.002,-0.094,55.94,91.0,40.580582,-3.545275,626.6,3,5,133.2,1.055
56.77,1,-0.024,-0.011,0.008,0.0,0.004,0.005,-1.554,0.003,-0.092,55.94,91.0,40.580582,-3.545275,626.6,3,5,133.2,1.055
56.87,1,-0.003,-0.008,0.003,-0.009,-0.009,0.002,-1.552,0.004,-0.09,55.94,91.0,40.580582,-3.545275,626.6,3,5,133.2,1.055
56.97,1,-0.01,-0.0,0.007,-0.003,-0.006,0.005,-1.552,0.004,-0.089,55.94,91.0,40.580582,-3.545275,626.6,3,5,133.2,1.055
57.08,1,-0.023,0.006,-0.014,-0.014,0.005,-0.004,-1.552,0.002,-0.087,55.94,91.0,40.580582,-3.545275,626.6,3,5,133.2,1.055
57.18,1,-0.02,0.02,-0.009,-0.022,0.009,-0.012,-1.552,0.001,-0.086,56.89,90.9,40.580429,-3.545055,626.8,3,5,132.5,1.055
57.28,1,-0.032,0.022,-0.004,-0.025,0.022,-0.006,-1.553,-0.002,-0.084,56.89,90.9,40.580429,-3.545055,626.8,3,5,132.5,1.055
57.38,1,-0.004,-0.002,0.011,-0.019,0.01,0.002,-1.553,0.001,-0.083,56.89,90.9,40.580429,-3.545055,626.8,3,5,132.5,1.055
57.47,1,-0.004,0.015,0.023,-0.01,0.007,0.013,-1.555,0.001,-0.081,56.89,90.9,40.580429,-3.545055,626.8,3,5,132.5,1.055
57.57,1,-0.01,0.008,0.014,-0.004,0.008,0.017,-1.556,-0.0,-0.08,56.89,90.9,40.580429,-3.545055,626.8,3,5,132.5,1.055
57.68,1,-0.019,0.031,0.01,-0.008,0.02,0.014,-1.557,0.001,-0.079,56.89,90.9,40.580429,-3.545055,626.8,3,5,132.5,1.055
57.78,1,-0.013,0.003,0.003,-0.024,0.02,0.005,-1.558,0.001,-0.077,56.89,90.9,40.580429,-3.545055,626.8,3,5,132.5,1.055
57.88,1,0.01,-0.018,0.003,0.003,-0.002,0.004,-1.559,0.001,-0.076,56.89,90.9,40.580429,-3.545055,626.8,3,5,132.5,1.055
57.98,1,-0.039,-0.018,-0.01,-0.019,-0.016,0.006,-1.558,-0.002,-0.074,56.89,90.9,40.580429,-3.545055,626.8,3,5,132.5,1.055
58.08,1,-0.026,0.006,0.016,-0.028,-0.009,0.001,-1.559,-0.003,-0.073,56.89,90.9,40.580429,-3.545055,626.8,3,5,132.5,1.055
58.18,1,0.061,0.001,0.01,0.009,0.002,0.004,-1.559,-0.003,-0.071,57.87,90.9,40.58028,-3.544828,627.3,3,5,131.8,1.406
58.28,1,-0.034,-0.024,-0.015,0.002,-0.011,-0.002,-1.556,-0.0,-0.069,57.87,90.9,40.58028,-3.544828,627.3,3,5,131.8,1.406
58.38,1,0.008,-0.033,-0.008,-0.007,-0.022,-0.008,-1.555,-0.001,-0.067,57.87,90.9,40.58028,-3.544828,627.3,3,5,131.8,1.406
58.48,1,0.013,-0.023,0.006,0.013,-0.021,0.0,-1.553,-0.0,-0.064,57.87,90.9,40.58028,-3.544828,627.3,3,5,131.8,1.406
58.58,1,-0.065,-0.012,-0.029,-0.019,-0.018,-0.006,-1.552,0.0,-0.062,57.87,90.9,40.58028,-3.544828,627.3,3,5,131.8,1.406
58.68,1,-0.005,-0.026,0.026,-0.023,-0.025,-0.001,-1.554,0.002,-0.06,57.87,90.9,40.58028,-3.544828,627.3,3,5,131.8,1.406
58.78,1,-0.018,-0.019,0.01,-0.019,-0.021,0.012,-1.557,0.004,-0.057,57.87,90.9,40.58028,-3.544828,627.3,3,5,131.8,1.406
58.89,1,0.008,0.017,-0.005,-0.007,-0.003,0.003,-1.557,0.002,-0.055,57.87,90.9,40.58028,-3.544828,627.3,3,5,131.8,1.406
58.98,1,0.025,-0.018,0.011,0.008,-0.001,-0.003,-1.555,0.001,-0.053,57.87,90.9,40.58028,-3.544828,627.3,3,5,131.8,1.406
59.09,1,-0.01,-0.025,0.029,0.008,-0.02,0.018,-1.556,0.003,-0.051,57.87,90.9,40.58028,-3.544828,627.3,3,5,131.8,1.406
59.18,1,-0.028,-0.041,0.031,-0.01,-0.031,0.028,-1.559,0.006,-0.049,58.87,90.9,40.58012,-3.544599,627.6,3,5,131.5,1.055
59.28,1,-0.038,-0.015,0.041,-0.031,-0.028,0.032,-1.561,0.006,-0.047,58.87,90.9,40.58012,-3.544599,627.6,3,5,131.5,1.055
59.38,1,0.007,-0.0,0.028,-0.015,-0.013,0.034,-1.564,0.007,-0.045,58.87,90.9,40.58012,-3.544599,627.6,3,5,131.5,1.055
59.48,1,-0.034,-0.027,0.032,-0.022,-0.015,0.031,-1.565,0.005,-0.043,58.87,90.9,40.58012,-3.544599,627.6,3,5,131.5,1.055
59.58,1,0.005,-0.011,0.047,-0.01,-0.015,0.037,-1.568,0.004,-0.041,58.87,90.9,40.58012,-3.544599,627.6,3,5,131.5,1.055
59.69,1,0.001,-0.009,0.02,-0.004,-0.013,0.033,-1.57,0.006,-0.04,58.87,90.9,40.58012,-3.544599,627.6,3,5,131.5,1.055
59.78,1,-0.013,-0.006,0.014,-0.006,-0.005,0.021,-1.57,0.005,-0.038,58.87,90.9,40.58012,-3.544599,627.6,3,5,131.5,1.055
59.88,1,-0.016,-0.007,0.012,-0.008,-0.007,0.017,-1.572,0.004,-0.037,58.87,90.9,40.58012,-3.544599,627.6,3,5,131.5,1.055
59.98,1,-0.014,0.039,-0.01,-0.015,0.016,0.008,-1.571,0.002,-0.036,58.87,90.9,40.58012,-3.544599,627.6,3,5,131.5,1.055
60.08,1,-0.019,0.036,-0.0,-0.013,0.026,-0.003,-1.571,0.001,-0.035,58.87,90.9,40.58012,-3.544599,627.6,3,5,131.5,1.055
60.18,1,0.035,0.025,0.018,0.001,0.023,0.002,-1.573,0.001,-0.034,59.88,89.7,40.579971,-3.544372,627.9,3,5,130.1,1.758
60.29,1,-0.015,0.016,0.016,0.003,0.022,0.015,-1.576,-0.002,-0.033,59.88,89.7,40.579971,-3.544372,627.9,3,5,130.1,1.758
60.39,1,0.005,0.019,0.009,-0.004,0.02,0.011,-1.576,-0.003,-0.033,59.88,89.7,40.579971,-3.544372,627.9,3,5,130.1,1.758
60.49,1,0.009,0.019,-0.02,0.007,0.022,0.0,-1.576,-0.005,-0.032,59.88,89.7,40.579971,-3.544372,627.9,3,5,130.1,1.758
60.58,1,-0.014,0.013,0.019,0.001,0.017,0.001,-1.576,-0.006,-0.032,59.88,89.7,40.579971,-3.544372,627.9,3,5,130.1,1.758
60.68,1,-0.041,-0.01,-0.01,-0.017,0.003,0.004,-1.577,-0.01,-0.03,59.88,89.7,40.579971,-3.544372,627.9,3,5,130.1,1.758
60.78,1,0.014,0.007,0.016,-0.014,0.003,0.004,-1.577,-0.012,-0.03,59.88,89.7,40.579971,-3.544372,627.9,3,5,130.1,1.758
60.88,1,0.008,-0.007,0.01,-0.003,-0.0,0.008,-1.576,-0.015,-0.029,59.88,89.7,40.579971,-3.544372,627.9,3,5,130.1,1.758
60.98,1,0.04,0.017,-0.003,0.021,0.004,0.004,-1.574,-0.016,-0.028,59.88,89.7,40.579971,-3.544372,627.9,3,5,130.1,1.758
61.08,1,-0.012,-0.01,-0.007,0.014,0.004,0.003,-1.574,-0.014,-0.027,59.88,89.7,40.579971,-3.544372,627.9,3,5,130.1,1.758
61.19,1,-0.032,-0.013,0.016,-0.014,-0.012,0.003,-1.575,-0.01,-0.026,60.9,91.6,40.579834,-3.544149,628.4,3,5,130.1,1.406
61.28,1,0.034,-0.019,0.01,0.001,-0.013,0.013,-1.577,-0.011,-0.025,60.9,91.6,40.579834,-3.544149,628.4,3,5,130.1,1.406
61.39,1,-0.002,-0.004,-0.002,0.012,-0.009,0.001,-1.575,-0.01,-0.025,60.9,91.6,40.579834,-3.544149,628.4,3,5,130.1,1.406
61.48,1,-0.027,-0.008,-0.003,-0.008,-0.008,-0.0,-1.574,-0.008,-0.024,60.9,91.6,40.579834,-3.544149,628.4,3,5,130.1,1.406
61.59,1,-0.042,0.008,0.032,-0.029,0.001,0.015,-1.576,-0.005,-0.023,60.9,91.6,40.579834,-3.544149,628.4,3,5,130.1,1.406
61.69,1,-0.005,0.004,0.015,-0.023,0.0,0.019,-1.576,-0.007,-0.022,60.9,91.6,40.579834,-3.544149,628.4,3,5,130.1,1.406
61.79,1,0.007,0.011,0.007,-0.007,0.005,0.011,-1.578,-0.008,-0.022,60.9,91.6,40.579834,-3.544149,628.4,3,5,130.1,1.406
61.89,1,-0.004,0.018,-0.014,-0.003,0.015,0.003,-1.577,-0.009,-0.021,60.9,91.6,40.579834,-3.544149,628.4,3,5,130.1,1.406
61.99,1,0.018,-0.01,0.014,0.008,0.006,0.001,-1.577,-0.011,-0.02,60.9,91.6,40.579834,-3.544149,628.4,3,5,130.1,1.406
62.09,1,0.006,-0.015,0.006,0.011,-0.007,0.005,-1.575,-0.009,-0.018,60.9,91.6,40.579834,-3.544149,628.4,3,5,130.1,1.406
62.19,1,-0.013,-0.024,0.007,-0.0,-0.02,0.005,-1.577,-0.007,-0.017,61.92,91.4,40.579685,-3.543917,628.9,3,5,129.7,0.352
62.29,1,-0.018,-0.003,-0.0,-0.011,-0.009,0.005,-1.577,-0.007,-0.015,61.92,91.4,40.579685,-3.543917,628.9,3,5,129.7,0.352
62.39,1,-0.037,-0.006,-0.011,-0.026,-0.001,-0.004,-1.578,-0.002,-0.013,61.92,91.4,40.579685,-3.543917,628.9,3,5,129.7,0.352
62.49,1,0.01,-0.03,0.005,-0.023,-0.021,-0.001,-1.577,-0.001,-0.011,61.92,91.4,40.579685,-3.543917,628.9,3,5,129.7,0.352
62.59,1,0.06,-0.036,0.025,0.03,-0.029,0.009,-1.573,-0.001,-0.01,61.92,91.4,40.579685,-3.543917,628.9,3,5,129.7,0.352
62.69,1,-0.021,-0.022,-0.008,0.02,-0.027,0.011,-1.57,-0.001,-0.009,61.92,91.4,40.579685,-3.543917,628.9,3,5,129.7,0.352
62.79,1,-0.006,-0.014,0.005,-0.006,-0.021,-0.002,-1.569,0.001,-0.007,61.92,91.4,40.579685,-3.543917,628.9,3,5,129.7,0.352
62.89,1,0.015,-0.007,0.016,0.009,-0.013,0.01,-1.569,0.004,-0.006,61.92,91.4,40.579685,-3.543917,628.9,3,5,129.7,0.352
62.99,1,0.039,0.0,0.007,0.018,-0.012,0.011,-1.567,0.007,-0.005,61.92,91.4,40.579685,-3.543917,628.9,3,5,129.7,0.352
63.09,1,-0.0,0.006,-0.018,0.011,-0.001,-0.004,-1.564,0.006,-0.003,61.92,91.4,40.579685,-3.543917,628.9,3,5,129.7,0.352
63.2,1,-0.056,0.028,-0.002,-0.016,0.018,-0.004,-1.561,0.007,-0.002,62.91,92.4,40.579533,-3.543684,629.6,3,5,129.0,1.055
63.29,1,-0.032,-0.006,-0.007,-0.032,0.01,-0.007,-1.56,0.008,-0.001,62.91,92.4,40.579533,-3.543684,629.6,3,5,129.0,1.055
63.39,1,-0.009,-0.004,0.012,-0.024,-0.0,-0.003,-1.56,0.008,0.001,62.91,92.4,40.579533,-3.543684,629.6,3,5,129.0,1.055
63.49,1,0.003,-0.003,-0.014,-0.011,-0.001,-0.0,-1.559,0.007,0.002,62.91,92.4,40.579533,-3.543684,629.6,3,5,129.0,1.055
63.59,1,-0.012,0.004,0.002,0.002,0.0,-0.005,-1.556,0.008,0.003,62.91,92.4,40.579533,-3.543684,629.6,3,5,129.0,1.055
63.69,1,0.001,0.008,-0.02,-0.007,0.003,-0.008,-1.556,0.012,0.004,62.91,92.4,40.579533,-3.543684,629.6,3,5,129.0,1.055
63.79,1,-0.023,-0.001,0.006,-0.0,0.005,-0.001,-1.557,0.012,0.005,62.91,92.4,40.579533,-3.543684,629.6,3,5,129.0,1.055
64.0,1,0.028,-0.024,-0.012,0.013,-0.016,-0.002,-1.556,0.013,0.009,62.91,92.4,40.579533,-3.543684,629.6,3,5,129.0,1.055
64.09,1,-0.006,-0.03,-0.028,0.016,-0.02,-0.014,-1.553,0.015,0.012,62.91,92.4,40.579533,-3.543684,629.6,3,5,129.0,1.055
64.19,1,-0.037,-0.022,-0.01,-0.018,-0.024,-0.021,-1.553,0.02,0.014,62.91,92.4,40.579533,-3.543684,629.6,3,5,129.0,1.055
64.29,1,-0.071,-0.012,-0.011,-0.044,-0.021,-0.012,-1.555,0.02,0.016,63.86,92.8,40.579388,-3.543436,630.0,3,5,128.0,1.758
64.39,1,-0.044,-0.02,0.005,-0.052,-0.014,-0.004,-1.555,0.018,0.018,63.86,92.8,40.579388,-3.543436,630.0,3,5,128.0,1.758
64.49,1,0.005,0.012,0.0,-0.028,-0.009,0.002,-1.555,0.021,0.019,63.86,92.8,40.579388,-3.543436,630.0,3,5,128.0,1.758
64.59,1,0.031,0.022,0.002,0.011,0.008,0.002,-1.554,0.021,0.021,63.86,92.8,40.579388,-3.543436,630.0,3,5,128.0,1.758
64.7,1,0.004,0.005,-0.006,0.009,0.011,-0.005,-1.552,0.019,0.022,63.86,92.8,40.579388,-3.543436,630.0,3,5,128.0,1.758
64.79,1,-0.018,0.023,0.002,-0.006,0.015,-0.002,-1.552,0.017,0.023,63.86,92.8,40.579388,-3.543436,630.0,3,5,128.0,1.758
64.89,1,0.004,0.025,0.009,-0.003,0.02,0.004,-1.551,0.016,0.024,63.86,92.8,40.579388,-3.543436,630.0,3,5,128.0,1.758
64.99,1,0.021,0.018,-0.02,0.011,0.025,-0.003,-1.551,0.017,0.025,63.86,92.8,40.579388,-3.543436,630.0,3,5,128.0,1.758
65.1,1,-0.008,0.011,-0.024,0.004,0.02,-0.016,-1.549,0.017,0.026,63.86,92.8,40.579388,-3.543436,630.0,3,5,128.0,1.758
65.19,1,-0.022,0.012,-0.007,-0.006,0.013,-0.016,-1.548,0.017,0.027,63.86,92.8,40.579388,-3.543436,630.0,3,5,128.0,1.758
65.3,1,0.009,0.018,-0.003,-0.004,0.014,-0.006,-1.549,0.014,0.028,64.87,92.6,40.579247,-3.543191,630.2,3,5,127.3,1.758
65.4,1,-0.007,0.028,-0.005,-0.009,0.018,-0.005,-1.548,0.012,0.028,64.87,92.6,40.579247,-3.543191,630.2,3,5,127.3,1.758
65.5,1,-0.02,0.022,-0.014,-0.007,0.023,-0.009,-1.547,0.012,0.029,64.87,92.6,40.579247,-3.543191,630.2,3,5,127.3,1.758
65.6,1,-0.036,0.0,-0.015,-0.019,0.019,-0.013,-1.548,0.013,0.03,64.87,92.6,40.579247,-3.543191,630.2,3,5,127.3,1.758
65.7,1,-0.021,-0.002,-0.005,-0.031,0.005,-0.015,-1.55,0.011,0.031,64.87,92.6,40.579247,-3.543191,630.2,3,5,127.3,1.758
65.8,1,-0.006,-0.009,-0.001,-0.019,-0.004,-0.004,-1.551,0.011,0.032,64.87,92.6,40.579247,-3.543191,630.2,3,5,127.3,1.758
65.9,1,0.009,-0.014,0.004,-0.005,-0.015,0.004,-1.55,0.013,0.033,64.87,92.6,40.579247,-3.543191,630.2,3,5,127.3,1.758
66.0,1,0.044,-0.004,0.003,0.021,-0.006,-0.001,-1.548,0.013,0.035,64.87,92.6,40.579247,-3.543191,630.2,3,5,127.3,1.758
66.1,1,0.009,-0.027,0.004,0.021,-0.019,0.007,-1.547,0.016,0.036,64.87,92.6,40.579247,-3.543191,630.2,3,5,127.3,1.758
66.2,1,-0.036,0.015,-0.007,-0.001,-0.011,0.001,-1.547,0.016,0.037,64.87,92.6,40.579247,-3.543191,630.2,3,5,127.3,1.758
66.31,1,-0.018,0.004,0.008,-0.021,0.006,-0.003,-1.547,0.017,0.038,65.88,92.7,40.579109,-3.542942,630.4,3,5,126.2,1.758
66.4,1,-0.012,0.011,0.012,-0.009,0.012,0.011,-1.548,0.018,0.039,65.88,92.7,40.579109,-3.542942,630.4,3,5,126.2,1.758
66.5,1,-0.002,0.012,0.001,-0.013,0.01,0.005,-1.547,0.017,0.04,65.88,92.7,40.579109,-3.542942,630.4,3,5,126.2,1.758
66.6,1,0.003,-0.01,-0.01,-0.003,0.004,-0.007,-1.546,0.019,0.041,65.88,92.7,40.579109,-3.542942,630.4,3,5,126.2,1.758
66.7,1,-0.031,0.02,-0.001,-0.013,0.004,-0.0,-1.546,0.018,0.042,65.88,92.7,40.579109,-3.542942,630.4,3,5,126.2,1.758
66.8,1,-0.021,0.016,0.015,-0.022,0.014,0.004,-1.547,0.017,0.043,65.88,92.7,40.579109,-3.542942,630.4,3,5,126.2,1.758
66.91,1,-0.015,0.012,-0.001,-0.02,0.014,0.004,-1.546,0.013,0.044,65.88,92.7,40.579109,-3.542942,630.4,3,5,126.2,1.758
67.0,1,-0.001,0.01,-0.015,-0.007,0.01,-0.002,-1.545,0.013,0.045,65.88,92.7,40.579109,-3.542942,630.4,3,5,126.2,1.758
67.1,1,0.005,0.001,-0.022,-0.001,0.011,-0.017,-1.542,0.014,0.046,65.88,92.7,40.579109,-3.542942,630.4,3,5,126.2,1.758
67.2,1,-0.01,-0.001,-0.026,-0.005,0.001,-0.02,-1.539,0.015,0.046,65.88,92.7,40.579109,-3.542942,630.4,3,5,126.2,1.758
67.3,1,-0.009,0.034,-0.01,-0.008,0.01,-0.018,-1.536,0.013,0.047,66.88,91.5,40.578976,-3.542691,630.7,3,5,125.5,1.758
67.4,1,-0.035,0.034,-0.041,-0.012,0.033,-0.026,-1.534,0.011,0.048,66.88,91.5,40.578976,-3.542691,630.7,3,5,125.5,1.758
67.5,1,-0.006,-0.024,-0.031,-0.025,0.004,-0.03,-1.534,0.009,0.05,66.88,91.5,40.578976,-3.542691,630.7,3,5,125.5,1.758
67.61,1,-0.011,0.01,-0.02,-0.006,0.003,-0.026,-1.534,0.01,0.051,66.88,91.5,40.578976,-3.542691,630.7,3,5,125.5,1.758
67.71,1,-0.008,-0.003,-0.011,-0.016,-0.001,-0.019,-1.535,0.009,0.052,66.88,91.5,40.578976,-3.542691,630.7,3,5,125.5,1.758
67.8,1,0.01,0.035,-0.031,0.006,0.015,-0.025,-1.534,0.011,0.052,66.88,91.5,40.578976,-3.542691,630.7,3,5,125.5,1.758
67.9,1,-0.017,0.017,-0.028,-0.006,0.02,-0.025,-1.53,0.01,0.053,66.88,91.5,40.578976,-3.542691,630.7,3,5,125.5,1.758
68.0,1,-0.028,0.014,-0.008,-0.017,0.018,-0.018,-1.529,0.007,0.053,66.88,91.5,40.578976,-3.542691,630.7,3,5,125.5,1.758
68.1,1,-0.011,0.027,-0.014,-0.022,0.023,-0.016,-1.529,0.007,0.054,66.88,91.5,40.578976,-3.542691,630.7,3,5,125.5,1.758
68.2,1,0.022,0.011,-0.008,-0.001,0.022,-0.014,-1.529,0.007,0.055,66.88,91.5,40.578976,-3.542691,630.7,3,5,125.5,1.758
68.3,1,-0.027,0.026,-0.019,-0.006,0.016,-0.01,-1.527,0.006,0.055,67.88,91.3,40.578842,-3.542446,630.5,3,5,124.8,1.406
68.4,1,-0.003,-0.011,-0.008,-0.008,0.005,-0.014,-1.525,0.006,0.056,67.88,91.3,40.578842,-3.542446,630.5,3,5,124.8,1.406
68.51,1,-0.023,0.019,0.009,-0.011,0.006,-0.002,-1.525,0.005,0.056,67.88,91.3,40.578842,-3.542446,630.5,3,5,124.8,1.406
68.6,1,-0.048,0.016,-0.002,-0.037,0.015,-0.001,-1.525,0.004,0.057,67.88,91.3,40.578842,-3.542446,630.5,3,5,124.8,1.406
68.7,1,0.016,0.01,0.011,-0.011,0.02,0.005,-1.526,0.001,0.057,67.88,91.3,40.578842,-3.542446,630.5,3,5,124.8,1.406
68.81,1,-0.013,-0.003,0.012,-0.002,0.007,0.008,-1.527,0.0,0.058,67.88,91.3,40.578842,-3.542446,630.5,3,5,124.8,1.406
68.9,1,-0.007,-0.01,0.002,-0.015,-0.008,0.009,-1.528,0.0,0.058,67.88,91.3,40.578842,-3.542446,630.5,3,5,124.8,1.406
69.01,1,0.011,0.012,0.031,-0.001,0.006,0.013,-1.53,-0.001,0.059,67.88,91.3,40.578842,-3.542446,630.5,3,5,124.8,1.406
69.11,1,-0.002,0.009,0.017,-0.003,0.007,0.02,-1.53,-0.002,0.059,67.88,91.3,40.578842,-3.542446,630.5,3,5,124.8,1.406
69.21,1,-0.043,-0.008,0.026,-0.01,-0.003,0.022,-1.532,0.001,0.059,67.88,91.3,40.578842,-3.542446,630.5,3,5,124.8,1.406
69.31,1,0.001,0.014,0.027,-0.018,0.004,0.023,-1.533,0.003,0.06,68.87,90.2,40.578716,-3.542203,630.8,3,5,124.1,1.406
69.41,1,-0.013,0.037,0.001,-0.012,0.021,0.017,-1.534,0.004,0.06,68.87,90.2,40.578716,-3.542203,630.8,3,5,124.1,1.406
69.51,1,-0.049,0.007,0.011,-0.024,0.021,0.013,-1.535,0.007,0.061,68.87,90.2,40.578716,-3.542203,630.8,3,5,124.1,1.406
69.61,1,-0.018,0.008,0.012,-0.03,0.012,0.008,-1.535,0.007,0.062,68.87,90.2,40.578716,-3.542203,630.8,3,5,124.1,1.406
69.71,1,-0.029,0.026,0.009,-0.025,0.015,0.015,-1.539,0.008,0.062,68.87,90.2,40.578716,-3.542203,630.8,3,5,124.1,1.406
69.81,1,-0.021,-0.004,0.018,-0.024,0.012,0.009,-1.539,0.005,0.062,68.87,90.2,40.578716,-3.542203,630.8,3,5,124.1,1.406
69.91,1,0.02,0.004,0.037,-0.012,0.004,0.022,-1.538,0.004,0.063,68.87,90.2,40.578716,-3.542203,630.8,3,5,124.1,1.406
70.01,1,-0.001,0.014,0.028,0.009,0.012,0.029,-1.539,0.001,0.063,68.87,90.2,40.578716,-3.542203,630.8,3,5,124.1,1.406
70.11,1,0.002,-0.003,0.029,-0.007,0.0,0.026,-1.54,-0.002,0.063,68.87,90.2,40.578716,-3.542203,630.8,3,5,124.1,1.406
70.21,1,0.014,-0.01,0.048,0.012,-0.0,0.036,-1.541,-0.003,0.062,68.87,90.2,40.578716,-3.542203,630.8,3,5,124.1,1.406
70.31,1,-0.018,0.035,-0.007,-0.003,0.01,0.027,-1.541,-0.004,0.062,69.88,89.5,40.578583,-3.541947,631.3,3,5,123.4,1.406
70.41,1,-0.005,0.009,0.024,-0.005,0.013,0.013,-1.541,-0.004,0.062,69.88,89.5,40.578583,-3.541947,631.3,3,5,123.4,1.406
70.51,1,-0.001,0.026,0.016,-0.002,0.017,0.017,-1.542,-0.007,0.062,69.88,89.5,40.578583,-3.541947,631.3,3,5,123.4,1.406
70.61,1,-0.035,0.023,-0.023,-0.019,0.023,0.003,-1.544,-0.006,0.062,69.88,89.5,40.578583,-3.541947,631.3,3,5,123.4,1.406
70.71,1,-0.004,-0.014,0.005,-0.017,0.011,-0.001,-1.544,-0.007,0.062,69.88,89.5,40.578583,-3.541947,631.3,3,5,123.4,1.406
70.82,1,0.001,-0.003,0.001,-0.005,-0.0,-0.001,-1.545,-0.008,0.062,69.88,89.5,40.578583,-3.541947,631.3,3,5,123.4,1.406
70.91,1,-0.006,0.003,-0.024,-0.003,-0.003,-0.008,-1.544,-0.006,0.062,69.88,89.5,40.578583,-3.541947,631.3,3,5,123.4,1.406
71.01,1,0.014,-0.0,-0.015,0.002,-0.002,-0.019,-1.543,-0.006,0.062,69.88,89.5,40.578583,-3.541947,631.3,3,5,123.4,1.406
71.11,1,0.001,-0.0,0.009,0.005,0.002,-0.003,-1.544,-0.003,0.062,69.88,89.5,40.578583,-3.541947,631.3,3,5,123.4,1.406
71.21,1,-0.013,0.027,-0.022,0.003,0.014,-0.009,-1.544,0.0,0.063,69.88,89.5,40.578583,-3.541947,631.3,3,5,123.4,1.406
71.32,1,-0.011,0.022,-0.009,-0.017,0.018,-0.012,-1.546,-0.001,0.063,70.94,89.7,40.578461,-3.541702,631.4,3,5,123.0,1.055
71.42,1,-0.023,0.012,-0.007,-0.013,0.015,-0.009,-1.546,-0.005,0.063,70.94,89.7,40.578461,-3.541702,631.4,3,5,123.0,1.055
71.52,1,0.018,0.034,0.002,-0.004,0.021,-0.004,-1.545,-0.006,0.063,70.94,89.7,40.578461,-3.541702,631.4,3,5,123.0,1.055
71.62,1,-0.001,-0.009,-0.001,0.005,0.013,-0.001,-1.546,-0.003,0.063,70.94,89.7,40.578461,-3.541702,631.4,3,5,123.0,1.055
71.71,1,-0.032,-0.005,0.02,-0.012,0.0,0.003,-1.546,-0.001,0.063,70.94,89.7,40.578461,-3.541702,631.4,3,5,123.0,1.055
71.82,1,-0.026,0.005,0.012,-0.026,0.001,0.014,-1.548,-0.003,0.064,70.94,89.7,40.578461,-3.541702,631.4,3,5,123.0,1.055
71.92,1,-0.009,0.024,0.03,-0.021,0.016,0.024,-1.552,-0.005,0.063,70.94,89.7,40.578461,-3.541702,631.4,3,5,123.0,1.055
72.02,1,0.014,-0.001,0.017,0.002,0.01,0.019,-1.551,-0.005,0.064,70.94,89.7,40.578461,-3.541702,631.4,3,5,123.0,1.055
72.12,1,0.0,-0.015,0.032,0.004,-0.004,0.025,-1.55,-0.003,0.064,70.94,89.7,40.578461,-3.541702,631.4,3,5,123.0,1.055
72.22,1,0.017,-0.002,-0.003,0.001,-0.006,0.014,-1.551,0.0,0.065,70.94,89.7,40.578461,-3.541702,631.4,3,5,123.0,1.055
72.31,1,-0.038,-0.047,-0.01,-0.005,-0.018,-0.0,-1.55,0.004,0.067,71.89,88.7,40.578346,-3.541457,631.5,3,5,122.7,0.703
72.42,1,-0.014,-0.029,0.016,-0.02,-0.03,0.006,-1.552,0.005,0.069,71.89,88.7,40.578346,-3.541457,631.5,3,5,122.7,0.703
72.52,1,-0.016,-0.033,0.005,-0.01,-0.034,0.007,-1.553,0.008,0.072,71.89,88.7,40.578346,-3.541457,631.5,3,5,122.7,0.703
72.61,1,-0.006,-0.022,0.022,-0.019,-0.033,0.011,-1.556,0.01,0.074,71.89,88.7,40.578346,-3.541457,631.5,3,5,122.7,0.703
72.72,1,-0.031,-0.032,0.012,-0.017,-0.029,0.018,-1.558,0.01,0.075,71.89,88.7,40.578346,-3.541457,631.5,3,5,122.7,0.703
72.82,1,-0.003,-0.006,0.013,-0.014,-0.017,0.013,-1.558,0.012,0.077,71.89,88.7,40.578346,-3.541457,631.5,3,5,122.7,0.703
72.92,1,-0.018,-0.042,0.017,-0.012,-0.026,0.014,-1.559,0.016,0.079,71.89,88.7,40.578346,-3.541457,631.5,3,5,122.7,0.703
73.02,1,0.005,-0.005,0.002,-0.007,-0.023,0.011,-1.56,0.017,0.081,71.89,88.7,40.578346,-3.541457,631.5,3,5,122.7,0.703
73.13,1,-0.032,-0.002,-0.023,-0.013,-0.007,-0.008,-1.56,0.018,0.083,71.89,88.7,40.578346,-3.541457,631.5,3,5,122.7,0.703
73.22,1,-0.005,-0.017,0.027,-0.016,-0.013,0.001,-1.562,0.019,0.085,71.89,88.7,40.578346,-3.541457,631.5,3,5,122.7,0.703
73.33,1,-0.018,0.022,0.019,-0.016,-0.0,0.02,-1.563,0.018,0.086,72.88,88.5,40.57822,-3.541214,631.4,3,5,122.3,0.703
73.42,1,-0.009,0.017,0.012,-0.013,0.017,0.014,-1.564,0.016,0.086,72.88,88.5,40.57822,-3.541214,631.4,3,5,122.3,0.703
73.52,1,-0.002,0.002,0.012,-0.004,0.012,0.013,-1.564,0.018,0.087,72.88,88.5,40.57822,-3.541214,631.4,3,5,122.3,0.703
73.62,1,-0.01,0.01,0.005,-0.008,0.004,0.013,-1.565,0.016,0.087,72.88,88.5,40.57822,-3.541214,631.4,3,5,122.3,0.703
73.72,1,-0.014,0.007,-0.0,-0.011,0.011,0.003,-1.565,0.017,0.088,72.88,88.5,40.57822,-3.541214,631.4,3,5,122.3,0.703
73.84,1,-0.015,-0.004,-0.0,-0.017,0.003,-0.003,-1.564,0.015,0.088,72.88,88.5,40.57822,-3.541214,631.4,3,5,122.3,0.703
73.92,1,-0.023,0.011,-0.005,-0.02,0.001,0.002,-1.563,0.014,0.088,72.88,88.5,40.57822,-3.541214,631.4,3,5,122.3,0.703
74.03,1,-0.032,0.013,-0.011,-0.021,0.01,-0.009,-1.562,0.013,0.089,72.88,88.5,40.57822,-3.541214,631.4,3,5,122.3,0.703
74.12,1,0.007,0.04,-0.022,-0.01,0.025,-0.012,-1.562,0.011,0.089,72.88,88.5,40.57822,-3.541214,631.4,3,5,122.3,0.703
74.22,1,0.003,0.025,-0.012,-0.003,0.027,-0.018,-1.562,0.009,0.089,72.88,88.5,40.57822,-3.541214,631.4,3,5,122.3,0.703
74.32,1,0.01,0.003,-0.01,0.003,0.017,-0.013,-1.559,0.008,0.09,73.88,89.2,40.578106,-3.540966,631.6,3,5,120.6,2.109
74.42,1,0.017,0.003,-0.013,0.008,0.007,-0.012,-1.557,0.006,0.09,73.88,89.2,40.578106,-3.540966,631.6,3,5,120.6,2.109
74.53,1,-0.03,-0.0,0.002,-0.004,0.003,-0.002,-1.556,0.006,0.09,73.88,89.2,40.578106,-3.540966,631.6,3,5,120.6,2.109
74.62,1,-0.002,0.017,0.004,-0.006,0.008,-0.003,-1.555,0.004,0.09,73.88,89.2,40.578106,-3.540966,631.6,3,5,120.6,2.109
74.72,1,-0.031,0.02,-0.019,-0.013,0.013,-0.004,-1.555,0.002,0.09,73.88,89.2,40.578106,-3.540966,631.6,3,5,120.6,2.109
74.82,1,-0.024,0.03,0.005,-0.025,0.022,-0.011,-1.555,-0.0,0.09,73.88,89.2,40.578106,-3.540966,631.6,3,5,120.6,2.109
74.92,1,-0.015,-0.003,-0.003,-0.02,0.015,-0.001,-1.553,-0.001,0.09,73.88,89.2,40.578106,-3.540966,631.6,3,5,120.6,2.109
75.03,1,-0.02,-0.003,0.008,-0.023,0.005,0.003,-1.554,-0.003,0.089,73.88,89.2,40.578106,-3.540966,631.6,3,5,120.6,2.109
75.13,1,-0.001,-0.0,0.012,-0.011,0.001,0.01,-1.554,-0.002,0.089,73.88,89.2,40.578106,-3.540966,631.6,3,5,120.6,2.109
75.23,1,-0.009,0.014,-0.003,-0.008,0.006,0.004,-1.553,-0.001,0.09,73.88,89.2,40.578106,-3.540966,631.6,3,5,120.6,2.109
75.33,1,-0.038,0.036,-0.019,-0.021,0.021,-0.007,-1.553,0.002,0.09,74.88,89.1,40.577995,-3.540712,631.8,3,5,119.5,2.812
75.42,1,-0.023,0.022,0.029,-0.021,0.026,0.008,-1.555,0.002,0.09,74.88,89.1,40.577995,-3.540712,631.8,3,5,119.5,2.812
75.52,1,-0.024,0.027,-0.003,-0.029,0.023,0.007,-1.555,0.007,0.091,74.88,89.1,40.577995,-3.540712,631.8,3,5,119.5,2.812
75.63,1,0.004,0.0,-0.004,-0.014,0.013,-0.002,-1.555,0.011,0.092,74.88,89.1,40.577995,-3.540712,631.8,3,5,119.5,2.812
75.72,1,0.021,-0.018,0.005,0.006,-0.003,0.001,-1.554,0.012,0.093,74.88,89.1,40.577995,-3.540712,631.8,3,5,119.5,2.812
75.82,1,-0.036,-0.012,-0.0,-0.004,-0.01,-0.0,-1.555,0.01,0.093,74.88,89.1,40.577995,-3.540712,631.8,3,5,119.5,2.812
75.93,1,-0.016,0.012,0.02,-0.023,-0.002,0.01,-1.56,0.01,0.094,74.88,89.1,40.577995,-3.540712,631.8,3,5,119.5,2.812
76.02,1,-0.013,-0.002,0.01,-0.01,0.004,0.01,-1.562,0.008,0.095,74.88,89.1,40.577995,-3.540712,631.8,3,5,119.5,2.812
76.12,1,-0.003,-0.006,-0.009,-0.016,0.005,0.004,-1.562,0.006,0.096,74.88,89.1,40.577995,-3.540712,631.8,3,5,119.5,2.812
76.22,1,0.033,0.031,-0.004,0.012,0.009,0.0,-1.561,0.008,0.096,74.88,89.1,40.577995,-3.540712,631.8,3,5,119.5,2.812
76.32,1,-0.067,-0.006,-0.014,-0.008,0.004,-0.008,-1.559,0.011,0.097,75.89,89.7,40.577881,-3.540458,632.1,3,5,119.5,1.055
76.43,1,-0.039,0.006,0.017,-0.044,-0.002,0.002,-1.559,0.012,0.098,75.89,89.7,40.577881,-3.540458,632.1,3,5,119.5,1.055
76.52,1,0.018,0.012,0.004,-0.005,0.013,0.003,-1.558,0.012,0.099,75.89,89.7,40.577881,-3.540458,632.1,3,5,119.5,1.055
76.62,1,-0.037,0.006,0.01,-0.026,0.008,0.005,-1.558,0.009,0.099,75.89,89.7,40.577881,-3.540458,632.1,3,5,119.5,1.055
76.72,1,0.042,-0.012,0.007,0.0,0.0,0.013,-1.559,0.007,0.1,75.89,89.7,40.577881,-3.540458,632.1,3,5,119.5,1.055
76.83,1,0.018,0.01,-0.009,0.018,-0.005,0.0,-1.557,0.005,0.1,75.89,89.7,40.577881,-3.540458,632.1,3,5,119.5,1.055
76.93,1,-0.044,0.013,0.0,-0.007,0.008,-0.004,-1.558,0.008,0.101,75.89,89.7,40.577881,-3.540458,632.1,3,5,119.5,1.055
77.03,1,-0.011,-0.01,0.024,-0.017,0.001,0.008,-1.556,0.011,0.101,75.89,89.7,40.577881,-3.540458,632.1,3,5,119.5,1.055
77.13,1,-0.016,-0.001,-0.007,-0.018,0.002,0.008,-1.557,0.011,0.102,75.89,89.7,40.577881,-3.540458,632.1,3,5,119.5,1.055
77.23,1,0.011,0.012,0.017,-0.009,0.009,0.005,-1.558,0.011,0.102,75.89,89.7,40.577881,-3.540458,632.1,3,5,119.5,1.055
77.33,1,0.04,-0.0,0.018,0.018,0.001,0.016,-1.558,0.012,0.103,76.94,89.7,40.577778,-3.540195,632.6,3,5,118.5,1.055
77.43,1,-0.049,0.029,-0.011,0.002,0.008,0.003,-1.557,0.008,0.103,76.94,89.7,40.577778,-3.540195,632.6,3,5,118.5,1.055
77.53,1,-0.043,0.014,0.027,-0.035,0.02,0.012,-1.561,0.007,0.103,76.94,89.7,40.577778,-3.540195,632.6,3,5,118.5,1.055
77.63,1,-0.017,0.027,0.011,-0.033,0.02,0.015,-1.563,0.007,0.104,76.94,89.7,40.577778,-3.540195,632.6,3,5,118.5,1.055
77.73,1,0.014,0.016,0.002,-0.004,0.021,0.009,-1.563,0.008,0.104,76.94,89.7,40.577778,-3.540195,632.6,3,5,118.5,1.055
77.83,1,-0.008,-0.008,0.006,-0.002,0.01,0.004,-1.563,0.008,0.104,76.94,89.7,40.577778,-3.540195,632.6,3,5,118.5,1.055
77.93,1,0.017,0.002,-0.001,0.005,0.0,0.002,-1.562,0.008,0.104,76.94,89.7,40.577778,-3.540195,632.6,3,5,118.5,1.055
78.03,1,-0.026,0.038,0.006,-0.004,0.02,0.004,-1.563,0.008,0.104,76.94,89.7,40.577778,-3.540195,632.6,3,5,118.5,1.055
78.14,1,-0.034,0.012,0.025,-0.021,0.017,0.013,-1.567,0.006,0.104,76.94,89.7,40.577778,-3.540195,632.6,3,5,118.5,1.055
78.23,1,-0.036,-0.007,0.02,-0.029,0.009,0.02,-1.568,0.005,0.104,76.94,89.7,40.577778,-3.540195,632.6,3,5,118.5,1.055
78.34,1,0.023,0.038,0.018,-0.016,0.015,0.019,-1.568,0.007,0.103,77.9,90.2,40.577675,-3.539934,632.7,3,5,117.8,1.758
78.44,1,0.007,0.008,0.037,0.005,0.018,0.025,-1.569,0.006,0.103,77.9,90.2,40.577675,-3.539934,632.7,3,5,117.8,1.758
78.53,1,-0.003,0.02,0.024,0.008,0.018,0.026,-1.57,0.005,0.103,77.9,90.2,40.577675,-3.539934,632.7,3,5,117.8,1.758
78.63,1,0.016,0.01,0.014,0.0,0.015,0.019,-1.571,0.004,0.103,77.9,90.2,40.577675,-3.539934,632.7,3,5,117.8,1.758
78.73,1,-0.024,-0.018,0.006,0.003,-0.002,0.015,-1.571,0.002,0.102,77.9,90.2,40.577675,-3.539934,632.7,3,5,117.8,1.758
78.84,1,-0.029,-0.014,0.007,-0.018,-0.011,0.011,-1.572,0.003,0.102,77.9,90.2,40.577675,-3.539934,632.7,3,5,117.8,1.758
78.94,1,-0.023,0.015,0.015,-0.03,0.001,0.01,-1.571,0.003,0.102,77.9,90.2,40.577675,-3.539934,632.7,3,5,117.8,1.758
79.03,1,0.017,0.018,0.02,-0.004,0.012,0.019,-1.572,0.005,0.103,77.9,90.2,40.577675,-3.539934,632.7,3,5,117.8,1.758
79.13,1,0.001,-0.01,0.002,0.005,0.005,0.009,-1.571,0.007,0.104,77.9,90.2,40.577675,-3.539934,632.7,3,5,117.8,1.758
79.23,1,-0.002,-0.01,0.014,0.0,-0.009,0.008,-1.572,0.006,0.104,77.9,90.2,40.577675,-3.539934,632.7,3,5,117.8,1.758
79.34,1,-0.04,-0.02,0.016,-0.015,-0.012,0.013,-1.575,0.006,0.104,78.92,90.2,40.577568,-3.53968,632.9,3,5,117.1,1.406
79.43,1,-0.002,-0.017,0.019,-0.018,-0.014,0.015,-1.576,0.007,0.105,78.92,90.2,40.577568,-3.53968,632.9,3,5,117.1,1.406
79.53,1,-0.019,-0.014,0.005,-0.011,-0.01,0.014,-1.576,0.004,0.105,78.92,90.2,40.577568,-3.53968,632.9,3,5,117.1,1.406
79.64,1,-0.002,0.024,-0.007,-0.02,0.01,0.002,-1.576,0.004,0.106,78.92,90.2,40.577568,-3.53968,632.9,3,5,117.1,1.406
79.73,1,0.012,0.043,0.013,0.003,0.018,0.004,-1.576,0.005,0.106,78.92,90.2,40.577568,-3.53968,632.9,3,5,117.1,1.406
79.83,1,-0.005,0.004,-0.013,0.0,0.018,0.001,-1.575,0.007,0.107,78.92,90.2,40.577568,-3.53968,632.9,3,5,117.1,1.406
79.93,1,-0.0,-0.048,0.008,0.0,-0.015,0.001,-1.575,0.007,0.108,78.92,90.2,40.577568,-3.53968,632.9,3,5,117.1,1.406
80.04,1,-0.006,-0.021,0.017,0.001,-0.025,0.009,-1.575,0.008,0.108,78.92,90.2,40.577568,-3.53968,632.9,3,5,117.1,1.406
80.13,1,-0.008,0.006,0.021,-0.015,-0.011,0.013,-1.575,0.008,0.108,78.92,90.2,40.577568,-3.53968,632.9,3,5,117.1,1.406
80.24,1,-0.029,0.011,0.0,-0.012,0.0,0.012,-1.576,0.009,0.109,78.92,90.2,40.577568,-3.53968,632.9,3,5,117.1,1.406
80.33,1,-0.029,0.001,-0.004,-0.02,0.004,0.004,-1.576,0.007,0.109,79.89,91.4,40.577465,-3.539419,633.1,3,5,116.7,1.055
80.43,1,-0.033,-0.02,-0.016,-0.031,-0.005,-0.009,-1.576,0.008,0.11,79.89,91.4,40.577465,-3.539419,633.1,3,5,116.7,1.055
80.53,1,0.016,0.017,0.003,-0.005,-0.005,-0.002,-1.574,0.011,0.11,79.89,91.4,40.577465,-3.539419,633.1,3,5,116.7,1.055
80.63,1,0.035,-0.032,-0.001,0.009,-0.008,-0.004,-1.573,0.012,0.111,79.89,91.4,40.577465,-3.539419,633.1,3,5,116.7,1.055
80.74,1,0.01,-0.013,-0.015,0.014,-0.013,-0.005,-1.573,0.014,0.111,79.89,91.4,40.577465,-3.539419,633.1,3,5,116.7,1.055
80.84,1,-0.025,0.007,-0.007,0.001,-0.005,-0.008,-1.572,0.014,0.111,79.89,91.4,40.577465,-3.539419,633.1,3,5,116.7,1.055
80.94,1,-0.024,0.009,-0.024,-0.021,0.002,-0.017,-1.571,0.014,0.112,79.89,91.4,40.577465,-3.539419,633.1,3,5,116.7,1.055
81.04,1,-0.026,-0.004,-0.012,-0.015,0.001,-0.017,-1.569,0.015,0.112,79.89,91.4,40.577465,-3.539419,633.1,3,5,116.7,1.055
81.14,1,-0.031,0.001,-0.012,-0.027,-0.002,-0.013,-1.571,0.016,0.112,79.89,91.4,40.577465,-3.539419,633.1,3,5,116.7,1.055
81.25,1,-0.02,0.019,0.001,-0.026,0.005,-0.008,-1.57,0.013,0.112,79.89,91.4,40.577465,-3.539419,633.1,3,5,116.7,1.055
81.34,1,-0.022,0.054,-0.01,-0.022,0.028,-0.008,-1.57,0.009,0.111,80.89,92.0,40.577366,-3.539151,633.5,3,5,116.0,1.055
81.45,1,-0.02,0.06,-0.012,-0.024,0.05,-0.006,-1.572,0.005,0.11,80.89,92.0,40.577366,-3.539151,633.5,3,5,116.0,1.055
81.55,1,-0.012,0.013,-0.019,-0.019,0.039,-0.016,-1.572,0.004,0.109,80.89,92.0,40.577366,-3.539151,633.5,3,5,116.0,1.055
81.64,1,-0.014,0.044,-0.023,-0.013,0.034,-0.017,-1.57,-0.002,0.107,80.89,92.0,40.577366,-3.539151,633.5,3,5,116.0,1.055
81.74,1,-0.002,0.019,0.023,-0.013,0.032,-0.001,-1.568,-0.005,0.106,80.89,92.0,40.577366,-3.539151,633.5,3,5,116.0,1.055
81.84,1,0.038,0.024,0.007,0.013,0.025,0.007,-1.566,-0.009,0.105,80.89,92.0,40.577366,-3.539151,633.5,3,5,116.0,1.055
81.94,1,0.015,0.039,-0.01,0.026,0.031,-0.003,-1.563,-0.012,0.103,80.89,92.0,40.577366,-3.539151,633.5,3,5,116.0,1.055
82.04,1,-0.025,0.026,-0.006,-0.002,0.025,-0.001,-1.563,-0.016,0.102,80.89,92.0,40.577366,-3.539151,633.5,3,5,116.0,1.055
82.14,1,-0.03,0.009,-0.022,-0.019,0.021,-0.016,-1.562,-0.017,0.101,80.89,92.0,40.577366,-3.539151,633.5,3,5,116.0,1.055
82.24,1,-0.053,0.003,-0.012,-0.036,0.009,-0.013,-1.564,-0.019,0.1,80.89,92.0,40.577366,-3.539151,633.5,3,5,116.0,1.055
82.34,1,-0.054,0.016,0.01,-0.048,0.014,-0.011,-1.562,-0.02,0.098,81.86,92.6,40.577267,-3.538874,633.8,3,5,115.0,1.758
82.44,1,0.035,0.02,0.002,-0.018,0.015,0.002,-1.564,-0.021,0.097,81.86,92.6,40.577267,-3.538874,633.8,3,5,115.0,1.758
82.54,1,0.028,-0.015,-0.007,0.014,0.006,0.005,-1.561,-0.023,0.096,81.86,92.6,40.577267,-3.538874,633.8,3,5,115.0,1.758
82.64,1,-0.018,0.036,-0.023,0.02,0.001,-0.008,-1.56,-0.024,0.095,81.86,92.6,40.577267,-3.538874,633.8,3,5,115.0,1.758
82.75,1,-0.044,-0.04,0.019,-0.027,-0.018,-0.011,-1.561,-0.025,0.094,81.86,92.6,40.577267,-3.538874,633.8,3,5,115.0,1.758
82.84,1,0.039,-0.05,0.017,-0.01,-0.027,0.014,-1.561,-0.022,0.095,81.86,92.6,40.577267,-3.538874,633.8,3,5,115.0,1.758
82.94,1,0.016,-0.042,0.003,0.014,-0.024,0.015,-1.559,-0.021,0.094,81.86,92.6,40.577267,-3.538874,633.8,3,5,115.0,1.758
83.04,1,0.029,-0.017,-0.022,0.023,-0.028,-0.005,-1.556,-0.018,0.094,81.86,92.6,40.577267,-3.538874,633.8,3,5,115.0,1.758
83.15,1,-0.043,-0.024,0.005,0.001,-0.023,-0.009,-1.553,-0.016,0.094,81.86,92.6,40.577267,-3.538874,633.8,3,5,115.0,1.758
83.24,1,-0.035,-0.048,0.024,-0.033,-0.038,0.006,-1.555,-0.011,0.095,81.86,92.6,40.577267,-3.538874,633.8,3,5,115.0,1.758
83.34,1,-0.003,-0.078,-0.013,-0.012,-0.057,0.007,-1.555,-0.004,0.096,82.88,92.2,40.577171,-3.538594,634.3,3,5,115.0,1.055
83.44,1,-0.029,-0.072,-0.013,-0.027,-0.067,-0.011,-1.555,-0.0,0.097,82.88,92.2,40.577171,-3.538594,634.3,3,5,115.0,1.055
83.54,1,-0.032,-0.008,0.004,-0.027,-0.04,0.001,-1.556,-0.002,0.097,82.88,92.2,40.577171,-3.538594,634.3,3,5,115.0,1.055
83.64,1,0.008,-0.016,0.002,-0.015,-0.023,-0.001,-1.557,-0.003,0.098,82.88,92.2,40.577171,-3.538594,634.3,3,5,115.0,1.055
83.74,1,-0.061,-0.022,-0.017,-0.023,-0.019,-0.001,-1.557,-0.003,0.099,82.88,92.2,40.577171,-3.538594,634.3,3,5,115.0,1.055
83.84,1,-0.025,-0.003,-0.001,-0.038,-0.019,-0.009,-1.554,-0.004,0.099,82.88,92.2,40.577171,-3.538594,634.3,3,5,115.0,1.055
83.95,1,0.026,0.0,0.023,-0.008,-0.007,0.005,-1.555,-0.003,0.098,82.88,92.2,40.577171,-3.538594,634.3,3,5,115.0,1.055
84.04,1,0.026,0.004,-0.01,0.016,0.004,0.005,-1.554,-0.005,0.098,82.88,92.2,40.577171,-3.538594,634.3,3,5,115.0,1.055
84.14,1,0.03,0.012,-0.028,0.027,0.006,-0.015,-1.552,-0.004,0.098,82.88,92.2,40.577171,-3.538594,634.3,3,5,115.0,1.055
84.24,1,-0.058,-0.008,0.001,-0.006,0.0,-0.012,-1.552,-0.002,0.097,82.88,92.2,40.577171,-3.538594,634.3,3,5,115.0,1.055
84.35,1,-0.013,-0.024,0.005,-0.022,-0.014,-0.003,-1.552,-0.001,0.097,83.86,92.3,40.577076,-3.53832,634.8,3,5,115.0,0.0
84.45,1,0.003,-0.015,0.003,-0.014,-0.013,0.008,-1.552,-0.005,0.096,83.86,92.3,40.577076,-3.53832,634.8,3,5,115.0,0.0
84.55,1,-0.009,0.033,-0.014,-0.001,0.003,-0.004,-1.551,-0.002,0.096,83.86,92.3,40.577076,-3.53832,634.8,3,5,115.0,0.0
84.66,1,0.005,0.005,-0.026,0.0,0.012,-0.019,-1.552,-0.002,0.095,83.86,92.3,40.577076,-3.53832,634.8,3,5,115.0,0.0
84.75,1,-0.014,-0.02,-0.008,-0.008,-0.002,-0.015,-1.553,0.001,0.095,83.86,92.3,40.577076,-3.53832,634.8,3,5,115.0,0.0
84.85,1,-0.057,-0.007,0.014,-0.028,-0.004,0.001,-1.553,0.004,0.095,83.86,92.3,40.577076,-3.53832,634.8,3,5,115.0,0.0
84.95,1,0.004,0.01,-0.014,-0.031,-0.005,-0.002,-1.553,0.003,0.094,83.86,92.3,40.577076,-3.53832,634.8,3,5,115.0,0.0
85.06,1,-0.011,0.01,-0.008,-0.004,0.002,-0.01,-1.551,0.003,0.093,83.86,92.3,40.577076,-3.53832,634.8,3,5,115.0,0.0
85.15,1,-0.033,0.012,-0.027,-0.02,0.011,-0.019,-1.551,0.004,0.093,83.86,92.3,40.577076,-3.53832,634.8,3,5,115.0,0.0
85.25,1,-0.008,0.016,0.006,-0.025,0.012,-0.006,-1.551,0.008,0.092,83.86,92.3,40.577076,-3.53832,634.8,3,5,115.0,0.0
85.35,1,0.005,0.031,-0.024,-0.001,0.023,-0.011,-1.547,0.009,0.092,84.88,93.1,40.576981,-3.538048,635.1,3,5,114.3,0.703
85.45,1,-0.03,-0.004,-0.02,-0.016,0.01,-0.018,-1.546,0.011,0.091,84.88,93.1,40.576981,-3.538048,635.1,3,5,114.3,0.703
85.55,1,0.025,0.033,0.004,-0.001,0.014,-0.01,-1.547,0.009,0.09,84.88,93.1,40.576981,-3.538048,635.1,3,5,114.3,0.703
85.65,1,-0.032,0.005,-0.013,-0.006,0.018,-0.008,-1.547,0.007,0.09,84.88,93.1,40.576981,-3.538048,635.1,3,5,114.3,0.703
85.75,1,-0.009,0.009,-0.01,-0.019,0.016,-0.008,-1.545,0.004,0.089,84.88,93.1,40.576981,-3.538048,635.1,3,5,114.3,0.703
85.85,1,-0.041,0.043,-0.022,-0.012,0.026,-0.015,-1.545,0.003,0.088,84.88,93.1,40.576981,-3.538048,635.1,3,5,114.3,0.703
85.95,1,-0.094,0.018,0.008,-0.051,0.019,-0.011,-1.547,0.003,0.088,84.88,93.1,40.576981,-3.538048,635.1,3,5,114.3,0.703
86.05,1,0.001,-0.007,0.015,-0.047,0.011,0.011,-1.547,0.005,0.086,84.88,93.1,40.576981,-3.538048,635.1,3,5,114.3,0.703
86.15,1,0.021,0.023,0.007,-0.011,0.009,0.009,-1.547,0.005,0.085,84.88,93.1,40.576981,-3.538048,635.1,3,5,114.3,0.703
86.26,1,0.015,0.024,-0.026,0.01,0.016,-0.008,-1.545,0.002,0.083,84.88,93.1,40.576981,-3.538048,635.1,3,5,114.3,0.703
86.35,1,-0.011,0.008,-0.007,0.001,0.018,-0.013,-1.541,-0.002,0.082,85.87,92.1,40.576881,-3.537763,635.2,3,5,113.9,1.055
86.46,1,-0.083,-0.001,0.004,-0.031,0.01,-0.004,-1.542,-0.005,0.081,85.87,92.1,40.576881,-3.537763,635.2,3,5,113.9,1.055
86.55,1,-0.064,0.004,0.013,-0.065,0.007,0.005,-1.546,-0.007,0.08,85.87,92.1,40.576881,-3.537763,635.2,3,5,113.9,1.055
86.65,1,0.006,0.054,0.033,-0.037,0.027,0.015,-1.548,-0.009,0.078,85.87,92.1,40.576881,-3.537763,635.2,3,5,113.9,1.055
86.75,1,0.05,0.042,-0.021,0.022,0.039,0.01,-1.548,-0.009,0.077,85.87,92.1,40.576881,-3.537763,635.2,3,5,113.9,1.055
86.86,1,0.053,-0.012,-0.002,0.031,0.018,-0.007,-1.548,-0.007,0.076,85.87,92.1,40.576881,-3.537763,635.2,3,5,113.9,1.055
86.95,1,0.028,0.004,0.025,0.036,0.001,0.007,-1.549,-0.007,0.075,85.87,92.1,40.576881,-3.537763,635.2,3,5,113.9,1.055
87.06,1,-0.036,-0.018,-0.01,0.007,-0.008,0.005,-1.549,-0.004,0.074,85.87,92.1,40.576881,-3.537763,635.2,3,5,113.9,1.055
87.15,1,-0.009,-0.022,0.016,-0.011,-0.014,0.006,-1.548,-0.003,0.074,85.87,92.1,40.576881,-3.537763,635.2,3,5,113.9,1.055
87.25,1,-0.005,0.01,-0.013,-0.003,-0.006,0.005,-1.548,-0.004,0.073,85.87,92.1,40.576881,-3.537763,635.2,3,5,113.9,1.055
87.35,1,-0.026,-0.008,0.022,-0.018,-0.005,0.0,-1.548,-0.004,0.073,86.89,92.3,40.57679,-3.537483,635.6,3,5,113.9,0.352
87.46,1,-0.005,0.016,0.045,-0.009,0.002,0.028,-1.552,-0.002,0.072,86.89,92.3,40.57679,-3.537483,635.6,3,5,113.9,0.352
87.56,1,0.036,0.012,0.055,0.008,0.013,0.047,-1.55,-0.002,0.071,86.89,92.3,40.57679,-3.537483,635.6,3,5,113.9,0.352
87.66,1,-0.017,-0.0,0.008,0.001,0.007,0.03,-1.549,-0.004,0.07,86.89,92.3,40.57679,-3.537483,635.6,3,5,113.9,0.352
87.76,1,-0.011,-0.001,0.012,-0.012,0.005,0.016,-1.55,-0.005,0.069,86.89,92.3,40.57679,-3.537483,635.6,3,5,113.9,0.352
87.85,1,-0.006,-0.012,0.031,-0.001,-0.009,0.022,-1.552,-0.002,0.069,86.89,92.3,40.57679,-3.537483,635.6,3,5,113.9,0.352
87.95,1,-0.061,0.004,-0.012,-0.03,-0.002,0.011,-1.555,-0.003,0.068,86.89,92.3,40.57679,-3.537483,635.6,3,5,113.9,0.352
88.06,1,-0.112,-0.001,0.001,-0.066,-0.0,-0.003,-1.556,-0.004,0.067,86.89,92.3,40.57679,-3.537483,635.6,3,5,113.9,0.352
88.15,1,-0.096,-0.02,0.063,-0.096,-0.01,0.025,-1.561,-0.004,0.066,86.89,92.3,40.57679,-3.537483,635.6,3,5,113.9,0.352
88.26,1,0.045,-0.013,0.053,-0.041,-0.013,0.049,-1.566,-0.004,0.065,86.89,92.3,40.57679,-3.537483,635.6,3,5,113.9,0.352
88.36,1,0.065,-0.008,0.002,0.027,-0.01,0.031,-1.562,-0.007,0.064,87.89,91.6,40.576679,-3.537208,635.8,3,5,113.9,0.0
88.46,1,0.056,0.016,0.009,0.049,0.003,0.017,-1.562,-0.009,0.063,87.89,91.6,40.576679,-3.537208,635.8,3,5,113.9,0.0
88.56,1,-0.028,0.01,0.013,0.019,0.008,0.008,-1.565,-0.01,0.063,87.89,91.6,40.576679,-3.537208,635.8,3,5,113.9,0.0
88.66,1,-0.079,-0.006,0.018,-0.035,0.002,0.019,-1.567,-0.008,0.062,87.89,91.6,40.576679,-3.537208,635.8,3,5,113.9,0.0
88.76,1,-0.019,-0.034,0.015,-0.034,-0.016,0.018,-1.568,-0.006,0.062,87.89,91.6,40.576679,-3.537208,635.8,3,5,113.9,0.0
88.86,1,0.01,-0.016,0.013,-0.015,-0.019,0.011,-1.57,-0.003,0.061,87.89,91.6,40.576679,-3.537208,635.8,3,5,113.9,0.0
88.96,1,-0.002,0.022,0.006,-0.003,0.003,0.008,-1.572,-0.004,0.06,87.89,91.6,40.576679,-3.537208,635.8,3,5,113.9,0.0
89.06,1,-0.01,0.001,-0.0,-0.007,0.003,0.004,-1.573,-0.005,0.059,87.89,91.6,40.576679,-3.537208,635.8,3,5,113.9,0.0
89.16,1,0.001,0.012,0.006,-0.008,0.002,0.009,-1.573,-0.002,0.058,87.89,91.6,40.576679,-3.537208,635.8,3,5,113.9,0.0
89.26,1,0.008,0.017,-0.022,0.002,0.017,-0.001,-1.571,0.001,0.057,87.89,91.6,40.576679,-3.537208,635.8,3,5,113.9,0.0
89.36,1,-0.047,-0.008,-0.008,-0.013,0.006,-0.013,-1.569,0.002,0.055,88.87,91.8,40.576576,-3.53693,635.8,3,5,114.3,0.352
89.46,1,-0.043,0.015,0.015,-0.037,0.003,0.0,-1.569,0.001,0.054,88.87,91.8,40.576576,-3.53693,635.8,3,5,114.3,0.352
89.57,1,0.003,0.039,0.013,-0.02,0.02,0.008,-1.569,-0.003,0.052,88.87,91.8,40.576576,-3.53693,635.8,3,5,114.3,0.352
89.66,1,0.027,0.031,-0.023,0.003,0.03,-0.003,-1.566,-0.008,0.05,88.87,91.8,40.576576,-3.53693,635.8,3,5,114.3,0.352
89.76,1,-0.01,-0.003,-0.027,0.008,0.02,-0.02,-1.562,-0.006,0.049,88.87,91.8,40.576576,-3.53693,635.8,3,5,114.3,0.352
89.86,1,-0.04,-0.011,-0.009,-0.017,0.001,-0.015,-1.564,-0.006,0.047,88.87,91.8,40.576576,-3.53693,635.8,3,5,114.3,0.352
89.96,1,-0.056,-0.007,0.013,-0.043,-0.005,-0.006,-1.568,-0.009,0.045,88.87,91.8,40.576576,-3.53693,635.8,3,5,114.3,0.352
90.06,1,0.0,0.035,0.005,-0.026,0.001,0.015,-1.567,-0.014,0.043,88.87,91.8,40.576576,-3.53693,635.8,3,5,114.3,0.352
90.17,1,-0.01,0.046,-0.011,-0.009,0.029,-0.008,-1.567,-0.017,0.04,88.87,91.8,40.576576,-3.53693,635.8,3,5,114.3,0.352
90.26,1,-0.039,0.042,-0.018,-0.027,0.048,-0.016,-1.568,-0.018,0.038,88.87,91.8,40.576576,-3.53693,635.8,3,5,114.3,0.352
90.36,1,0.011,0.014,-0.01,-0.016,0.033,-0.009,-1.566,-0.018,0.036,89.87,91.9,40.576481,-3.536664,635.7,3,5,113.9,0.352
90.46,1,0.004,0.029,-0.043,0.005,0.022,-0.02,-1.564,-0.021,0.033,89.87,91.9,40.576481,-3.536664,635.7,3,5,113.9,0.352
90.57,1,-0.003,0.013,-0.008,0.002,0.024,-0.026,-1.562,-0.024,0.03,89.87,91.9,40.576481,-3.536664,635.7,3,5,113.9,0.352
90.66,1,-0.026,0.029,-0.013,-0.016,0.021,-0.013,-1.564,-0.026,0.028,89.87,91.9,40.576481,-3.536664,635.7,3,5,113.9,0.352
90.77,1,-0.023,0.013,-0.009,-0.016,0.019,-0.015,-1.562,-0.028,0.025,89.87,91.9,40.576481,-3.536664,635.7,3,5,113.9,0.352
90.87,1,-0.038,-0.036,0.018,-0.028,-0.012,0.001,-1.563,-0.026,0.023,89.87,91.9,40.576481,-3.536664,635.7,3,5,113.9,0.352
90.96,1,0.006,-0.015,-0.007,-0.022,-0.014,0.004,-1.563,-0.027,0.021,89.87,91.9,40.576481,-3.536664,635.7,3,5,113.9,0.352
91.06,1,0.016,-0.017,0.002,0.011,-0.013,-0.0,-1.563,-0.024,0.019,89.87,91.9,40.576481,-3.536664,635.7,3,5,113.9,0.352
91.16,1,-0.013,0.014,-0.01,-0.006,0.001,-0.008,-1.561,-0.022,0.018,89.87,91.9,40.576481,-3.536664,635.7,3,5,113.9,0.352
91.26,1,-0.009,-0.016,-0.007,-0.012,-0.007,-0.003,-1.562,-0.015,0.017,89.87,91.9,40.576481,-3.536664,635.7,3,5,113.9,0.352
91.37,1,-0.032,-0.007,-0.002,-0.016,-0.007,-0.006,-1.563,-0.015,0.015,90.86,92.2,40.576385,-3.536383,636.6,3,5,113.9,0.352
91.46,1,-0.004,-0.017,0.006,-0.02,-0.01,-0.001,-1.562,-0.017,0.014,90.86,92.2,40.576385,-3.536383,636.6,3,5,113.9,0.352
91.56,1,0.026,-0.035,-0.003,0.008,-0.022,0.0,-1.56,-0.017,0.012,90.86,92.2,40.576385,-3.536383,636.6,3,5,113.9,0.352
91.66,1,-0.03,0.0,-0.006,0.001,-0.017,-0.001,-1.561,-0.016,0.01,90.86,92.2,40.576385,-3.536383,636.6,3,5,113.9,0.352
91.76,1,-0.067,-0.01,0.011,-0.039,-0.008,0.001,-1.563,-0.015,0.009,90.86,92.2,40.576385,-3.536383,636.6,3,5,113.9,0.352
91.87,1,-0.013,-0.003,0.024,-0.033,-0.008,0.013,-1.566,-0.012,0.007,90.86,92.2,40.576385,-3.536383,636.6,3,5,113.9,0.352
91.97,1,-0.003,-0.005,-0.012,-0.021,-0.005,0.009,-1.568,-0.013,0.005,90.86,92.2,40.576385,-3.536383,636.6,3,5,113.9,0.352
92.06,1,-0.026,0.021,-0.008,-0.019,0.004,-0.005,-1.567,-0.013,0.004,90.86,92.2,40.576385,-3.536383,636.6,3,5,113.9,0.352
92.16,1,0.024,0.024,0.002,-0.009,0.012,0.001,-1.567,-0.014,0.002,90.86,92.2,40.576385,-3.536383,636.6,3,5,113.9,0.352
92.27,1,-0.128,0.022,-0.029,-0.051,0.023,-0.023,-1.567,-0.01,0.001,90.86,92.2,40.576385,-3.536383,636.6,3,5,113.9,0.352
92.37,1,-0.008,0.022,0.045,-0.042,0.032,0.01,-1.569,-0.005,-0.001,91.88,92.7,40.576294,-3.536116,636.8,3,5,115.3,1.406
92.47,1,0.027,0.031,0.01,0.001,0.022,0.021,-1.568,-0.005,-0.003,91.88,92.7,40.576294,-3.536116,636.8,3,5,115.3,1.406
92.57,1,-0.026,0.031,-0.006,-0.008,0.026,0.007,-1.569,-0.003,-0.004,91.88,92.7,40.576294,-3.536116,636.8,3,5,115.3,1.406
92.67,1,-0.03,0.021,0.007,-0.022,0.029,0.002,-1.571,-0.005,-0.006,91.88,92.7,40.576294,-3.536116,636.8,3,5,115.3,1.406
92.77,1,-0.049,-0.011,0.034,-0.035,0.005,0.014,-1.573,-0.01,-0.008,91.88,92.7,40.576294,-3.536116,636.8,3,5,115.3,1.406
92.87,1,-0.008,-0.007,0.032,-0.033,-0.003,0.026,-1.576,-0.013,-0.01,91.88,92.7,40.576294,-3.536116,636.8,3,5,115.3,1.406
92.97,1,-0.007,0.014,-0.001,-0.015,0.002,0.019,-1.577,-0.012,-0.012,91.88,92.7,40.576294,-3.536116,636.8,3,5,115.3,1.406
93.07,1,0.029,0.008,0.01,0.008,0.005,0.014,-1.578,-0.013,-0.014,91.88,92.7,40.576294,-3.536116,636.8,3,5,115.3,1.406
93.17,1,-0.017,0.039,0.005,0.002,0.023,0.006,-1.578,-0.013,-0.016,91.88,92.7,40.576294,-3.536116,636.8,3,5,115.3,1.406
93.28,1,-0.068,0.009,0.008,-0.031,0.018,0.008,-1.58,-0.011,-0.017,91.88,92.7,40.576294,-3.536116,636.8,3,5,115.3,1.406
93.37,1,-0.039,0.007,-0.022,-0.043,0.014,-0.01,-1.581,-0.009,-0.019,92.86,92.6,40.576195,-3.53584,637.9,3,5,115.7,1.758
93.47,1,0.016,0.002,0.012,-0.014,0.008,0.0,-1.582,-0.01,-0.02,92.86,92.6,40.576195,-3.53584,637.9,3,5,115.7,1.758
93.57,1,-0.015,0.0,-0.012,-0.01,0.002,-0.001,-1.583,-0.012,-0.022,92.86,92.6,40.576195,-3.53584,637.9,3,5,115.7,1.758
93.68,1,-0.009,0.008,-0.007,-0.01,0.006,-0.003,-1.582,-0.012,-0.024,92.86,92.6,40.576195,-3.53584,637.9,3,5,115.7,1.758
93.77,1,-0.02,0.016,0.015,-0.02,0.01,-0.001,-1.584,-0.015,-0.026,92.86,92.6,40.576195,-3.53584,637.9,3,5,115.7,1.758
93.88,1,-0.029,-0.005,-0.007,-0.018,0.006,-0.001,-1.585,-0.018,-0.028,92.86,92.6,40.576195,-3.53584,637.9,3,5,115.7,1.758
93.98,1,-0.039,-0.001,0.002,-0.031,0.002,-0.001,-1.583,-0.02,-0.03,92.86,92.6,40.576195,-3.53584,637.9,3,5,115.7,1.758
94.07,1,-0.035,-0.008,-0.003,-0.038,-0.007,-0.002,-1.583,-0.019,-0.032,92.86,92.6,40.576195,-3.53584,637.9,3,5,115.7,1.758
94.17,1,0.001,0.006,0.018,-0.019,-0.001,0.011,-1.584,-0.019,-0.033,92.86,92.6,40.576195,-3.53584,637.9,3,5,115.7,1.758
94.27,1,0.035,0.002,0.0,0.002,-0.008,0.007,-1.582,-0.017,-0.035,92.86,92.6,40.576195,-3.53584,637.9,3,5,115.7,1.758
94.37,1,-0.04,0.007,-0.017,-0.004,0.008,-0.005,-1.582,-0.016,-0.038,93.89,93.4,40.576088,-3.535562,638.3,3,5,116.7,1.406
94.48,1,-0.03,0.017,0.013,-0.018,0.015,-0.003,-1.584,-0.012,-0.04,93.89,93.4,40.576088,-3.535562,638.3,3,5,116.7,1.406
94.57,1,-0.022,0.032,0.002,-0.026,0.022,0.005,-1.584,-0.016,-0.042,93.89,93.4,40.576088,-3.535562,638.3,3,5,116.7,1.406
94.67,1,0.001,0.025,-0.023,-0.012,0.022,-0.006,-1.585,-0.018,-0.044,93.89,93.4,40.576088,-3.535562,638.3,3,5,116.7,1.406
94.77,1,0.021,0.042,-0.01,0.009,0.029,-0.012,-1.585,-0.021,-0.047,93.89,93.4,40.576088,-3.535562,638.3,3,5,116.7,1.406
94.87,1,0.015,0.011,0.002,0.01,0.028,-0.007,-1.584,-0.025,-0.049,93.89,93.4,40.576088,-3.535562,638.3,3,5,116.7,1.406
94.98,1,-0.024,0.008,-0.007,-0.0,0.013,-0.003,-1.582,-0.022,-0.051,93.89,93.4,40.576088,-3.535562,638.3,3,5,116.7,1.406
95.08,1,-0.05,0.034,0.012,-0.03,0.026,-0.002,-1.582,-0.024,-0.054,93.89,93.4,40.576088,-3.535562,638.3,3,5,116.7,1.406
95.18,1,-0.035,0.013,0.003,-0.04,0.025,0.007,-1.583,-0.028,-0.056,93.89,93.4,40.576088,-3.535562,638.3,3,5,116.7,1.406
95.27,1,0.024,-0.017,-0.012,-0.011,-0.0,-0.0,-1.583,-0.031,-0.058,93.89,93.4,40.576088,-3.535562,638.3,3,5,116.7,1.406
95.37,1,-0.009,-0.012,0.006,0.007,-0.011,-0.001,-1.584,-0.028,-0.06,94.86,92.5,40.575985,-3.535285,639.1,3,5,116.7,1.055
95.48,1,-0.042,-0.031,0.012,-0.026,-0.023,0.003,-1.586,-0.028,-0.063,94.86,92.5,40.575985,-3.535285,639.1,3,5,116.7,1.055
95.58,1,-0.001,-0.019,0.02,-0.014,-0.024,0.019,-1.587,-0.028,-0.065,94.86,92.5,40.575985,-3.535285,639.1,3,5,116.7,1.055
95.68,1,0.025,-0.007,0.017,-0.001,-0.007,0.014,-1.586,-0.029,-0.067,94.86,92.5,40.575985,-3.535285,639.1,3,5,116.7,1.055
95.78,1,0.017,0.014,-0.01,0.016,0.001,0.001,-1.584,-0.029,-0.07,94.86,92.5,40.575985,-3.535285,639.1,3,5,116.7,1.055
95.88,1,-0.062,0.028,-0.03,-0.012,0.016,-0.011,-1.584,-0.031,-0.073,94.86,92.5,40.575985,-3.535285,639.1,3,5,116.7,1.055
95.98,1,-0.049,0.021,0.016,-0.037,0.022,-0.006,-1.585,-0.031,-0.075,94.86,92.5,40.575985,-3.535285,639.1,3,5,116.7,1.055
96.08,1,-0.017,0.03,0.002,-0.042,0.029,0.006,-1.585,-0.031,-0.078,94.86,92.5,40.575985,-3.535285,639.1,3,5,116.7,1.055
96.18,1,0.013,0.052,-0.028,-0.011,0.03,-0.011,-1.582,-0.033,-0.081,94.86,92.5,40.575985,-3.535285,639.1,3,5,116.7,1.055
96.28,1,-0.001,0.042,0.0,0.004,0.042,-0.013,-1.582,-0.035,-0.085,94.86,92.5,40.575985,-3.535285,639.1,3,5,116.7,1.055
96.38,1,-0.014,0.034,-0.004,-0.006,0.041,-0.003,-1.583,-0.035,-0.088,95.9,93.7,40.575878,-3.535013,639.4,3,5,118.1,1.406
96.48,1,-0.006,0.011,-0.021,-0.006,0.027,-0.008,-1.583,-0.038,-0.091,95.9,93.7,40.575878,-3.535013,639.4,3,5,118.1,1.406
96.58,1,-0.056,0.03,0.003,-0.031,0.022,-0.014,-1.584,-0.038,-0.094,95.9,93.7,40.575878,-3.535013,639.4,3,5,118.1,1.406
96.68,1,-0.006,0.013,-0.009,-0.026,0.022,-0.004,-1.585,-0.038,-0.096,95.9,93.7,40.575878,-3.535013,639.4,3,5,118.1,1.406
96.78,1,0.024,0.002,-0.001,-0.0,0.011,-0.001,-1.583,-0.037,-0.098,95.9,93.7,40.575878,-3.535013,639.4,3,5,118.1,1.406
96.88,1,0.005,-0.009,-0.025,0.007,0.003,-0.013,-1.581,-0.037,-0.1,95.9,93.7,40.575878,-3.535013,639.4,3,5,118.1,1.406
96.98,1,-0.007,-0.028,0.015,-0.005,-0.014,-0.006,-1.579,-0.035,-0.102,95.9,93.7,40.575878,-3.535013,639.4,3,5,118.1,1.406
97.08,1,-0.048,-0.014,-0.002,-0.02,-0.018,-0.002,-1.577,-0.036,-0.104,95.9,93.7,40.575878,-3.535013,639.4,3,5,118.1,1.406
97.18,1,-0.01,0.043,0.009,-0.02,0.008,0.005,-1.578,-0.038,-0.106,95.9,93.7,40.575878,-3.535013,639.4,3,5,118.1,1.406
97.28,1,0.021,0.003,-0.011,-0.002,0.015,0.006,-1.579,-0.037,-0.108,95.9,93.7,40.575878,-3.535013,639.4,3,5,118.1,1.406
97.38,1,-0.03,-0.022,-0.021,-0.002,0.001,-0.017,-1.577,-0.032,-0.109,96.88,95.0,40.575768,-3.534741,640.6,3,5,119.5,2.812
97.48,1,-0.047,-0.019,-0.023,-0.037,-0.015,-0.021,-1.575,-0.026,-0.11,96.88,95.0,40.575768,-3.534741,640.6,3,5,119.5,2.812
97.59,1,0.013,-0.016,0.021,-0.015,-0.02,0.003,-1.575,-0.028,-0.111,96.88,95.0,40.575768,-3.534741,640.6,3,5,119.5,2.812
97.68,1,-0.011,-0.008,-0.03,0.0,-0.02,-0.014,-1.569,-0.026,-0.112,96.88,95.0,40.575768,-3.534741,640.6,3,5,119.5,2.812
97.78,1,-0.019,0.001,0.004,-0.018,-0.006,-0.008,-1.567,-0.024,-0.114,96.88,95.0,40.575768,-3.534741,640.6,3,5,119.5,2.812
97.88,1,0.048,-0.017,0.015,0.008,-0.007,0.005,-1.566,-0.024,-0.115,96.88,95.0,40.575768,-3.534741,640.6,3,5,119.5,2.812
97.98,1,0.023,-0.028,-0.005,0.031,-0.016,0.003,-1.565,-0.022,-0.116,96.88,95.0,40.575768,-3.534741,640.6,3,5,119.5,2.812
98.09,1,-0.018,-0.026,0.011,0.004,-0.021,0.004,-1.564,-0.022,-0.117,96.88,95.0,40.575768,-3.534741,640.6,3,5,119.5,2.812
98.18,1,-0.027,-0.018,-0.03,-0.015,-0.024,-0.008,-1.562,-0.018,-0.118,96.88,95.0,40.575768,-3.534741,640.6,3,5,119.5,2.812
98.29,1,-0.069,-0.019,-0.025,-0.034,-0.019,-0.022,-1.56,-0.019,-0.119,96.88,95.0,40.575768,-3.534741,640.6,3,5,119.5,2.812
98.38,1,-0.043,-0.028,-0.001,-0.052,-0.022,-0.008,-1.564,-0.017,-0.12,97.9,94.5,40.575649,-3.534473,640.9,3,5,120.2,2.109
98.48,1,0.008,-0.004,-0.007,-0.026,-0.015,-0.009,-1.563,-0.021,-0.121,97.9,94.5,40.575649,-3.534473,640.9,3,5,120.2,2.109
98.58,1,0.055,-0.011,-0.01,0.017,-0.016,-0.011,-1.56,-0.019,-0.122,97.9,94.5,40.575649,-3.534473,640.9,3,5,120.2,2.109
98.68,1,0.035,-0.015,-0.026,0.032,-0.005,-0.014,-1.558,-0.021,-0.123,97.9,94.5,40.575649,-3.534473,640.9,3,5,120.2,2.109
98.78,1,-0.003,-0.023,-0.033,0.026,-0.016,-0.023,-1.558,-0.024,-0.123,97.9,94.5,40.575649,-3.534473,640.9,3,5,120.2,2.109
98.88,1,-0.089,-0.001,-0.022,-0.03,-0.018,-0.028,-1.56,-0.024,-0.124,97.9,94.5,40.575649,-3.534473,640.9,3,5,120.2,2.109
98.98,1,-0.045,0.01,-0.002,-0.057,-0.004,-0.017,-1.561,-0.025,-0.125,97.9,94.5,40.575649,-3.534473,640.9,3,5,120.2,2.109
99.08,1,0.088,-0.006,-0.018,0.002,0.002,-0.012,-1.56,-0.027,-0.126,97.9,94.5,40.575649,-3.534473,640.9,3,5,120.2,2.109
99.18,1,0.073,-0.011,-0.029,0.059,-0.003,-0.021,-1.556,-0.028,-0.127,97.9,94.5,40.575649,-3.534473,640.9,3,5,120.2,2.109
99.3,1,-0.123,-0.029,-0.104,0.016,-0.015,-0.044,-1.554,-0.025,-0.128,97.9,94.5,40.575649,-3.534473,640.9,3,5,120.2,2.109
99.38,1,-0.058,0.007,0.018,-0.084,-0.014,-0.06,-1.56,-0.031,-0.129,98.9,94.6,40.575527,-3.534207,641.6,3,5,121.3,1.758
99.49,1,0.011,0.007,0.055,-0.038,0.0,0.022,-1.564,-0.033,-0.13,98.9,94.6,40.575527,-3.534207,641.6,3,5,121.3,1.758
99.58,1,0.124,0.012,-0.026,0.047,0.006,0.016,-1.556,-0.034,-0.132,98.9,94.6,40.575527,-3.534207,641.6,3,5,121.3,1.758
99.68,1,0.13,-0.013,-0.093,0.1,0.0,-0.043,-1.547,-0.036,-0.133,98.9,94.6,40.575527,-3.534207,641.6,3,5,121.3,1.758
99.78,1,-0.05,-0.01,-0.033,0.047,-0.004,-0.058,-1.549,-0.036,-0.134,98.9,94.6,40.575527,-3.534207,641.6,3,5,121.3,1.758
99.89,1,-0.125,0.008,0.034,-0.039,-0.003,-0.008,-1.557,-0.036,-0.135,98.9,94.6,40.575527,-3.534207,641.6,3,5,121.3,1.758
99.99,1,-0.066,-0.003,0.015,-0.087,0.003,0.009,-1.559,-0.036,-0.136,98.9,94.6,40.575527,-3.534207,641.6,3,5,121.3,1.758
100.09,1,0.049,-0.006,0.0,-0.022,-0.006,0.007,-1.557,-0.037,-0.137,98.9,94.6,40.575527,-3.534207,641.6,3,5,121.3,1.758
100.19,1,0.051,-0.022,-0.01,0.034,-0.014,0.001,-1.555,-0.037,-0.138,98.9,94.6,40.575527,-3.534207,641.6,3,5,121.3,1.758
100.29,1,0.0,0.007,-0.016,0.016,-0.008,-0.01,-1.558,-0.037,-0.139,98.9,94.6,40.575527,-3.534207,641.6,3,5,121.3,1.758
100.39,1,-0.027,-0.003,0.012,-0.005,0.001,-0.002,-1.559,-0.041,-0.14,99.88,93.3,40.575413,-3.533951,642.3,3,5,121.6,1.406
100.49,1,-0.022,0.007,0.012,-0.018,0.004,0.005,-1.56,-0.04,-0.142,99.88,93.3,40.575413,-3.533951,642.3,3,5,121.6,1.406
100.59,1,-0.022,-0.01,0.018,-0.022,-0.003,0.015,-1.561,-0.038,-0.142,99.88,93.3,40.575413,-3.533951,642.3,3,5,121.6,1.406
100.7,1,0.02,-0.018,-0.0,-0.001,-0.011,0.009,-1.563,-0.038,-0.144,99.88,93.3,40.575413,-3.533951,642.3,3,5,121.6,1.406
100.79,1,-0.06,-0.017,-0.001,-0.019,-0.015,0.003,-1.564,-0.038,-0.144,99.88,93.3,40.575413,-3.533951,642.3,3,5,121.6,1.406
100.89,1,-0.035,-0.022,0.016,-0.041,-0.02,0.005,-1.567,-0.036,-0.145,99.88,93.3,40.575413,-3.533951,642.3,3,5,121.6,1.406
100.99,1,-0.019,-0.019,0.009,-0.025,-0.022,0.009,-1.569,-0.04,-0.145,99.88,93.3,40.575413,-3.533951,642.3,3,5,121.6,1.406
101.09,1,0.005,-0.007,0.025,-0.015,-0.015,0.014,-1.567,-0.041,-0.146,99.88,93.3,40.575413,-3.533951,642.3,3,5,121.6,1.406
101.19,1,0.053,-0.024,0.026,0.021,-0.009,0.023,-1.565,-0.042,-0.146,99.88,93.3,40.575413,-3.533951,642.3,3,5,121.6,1.406
101.29,1,-0.006,-0.023,-0.005,0.019,-0.019,0.015,-1.566,-0.041,-0.146,99.88,93.3,40.575413,-3.533951,642.3,3,5,121.6,1.406
101.4,1,-0.039,-0.034,0.022,-0.018,-0.028,0.01,-1.568,-0.042,-0.147,100.86,92.3,40.575287,-3.533699,642.9,3,5,122.7,1.406
101.49,1,-0.06,-0.049,0.026,-0.035,-0.037,0.023,-1.572,-0.037,-0.147,100.86,92.3,40.575287,-3.533699,642.9,3,5,122.7,1.406
101.59,1,-0.035,-0.041,0.033,-0.045,-0.043,0.027,-1.575,-0.033,-0.147,100.86,92.3,40.575287,-3.533699,642.9,3,5,122.7,1.406
101.69,1,0.079,-0.02,0.022,0.003,-0.035,0.024,-1.575,-0.032,-0.148,100.86,92.3,40.575287,-3.533699,642.9,3,5,122.7,1.406
101.8,1,-0.027,-0.025,0.006,0.012,-0.025,0.014,-1.575,-0.032,-0.148,100.86,92.3,40.575287,-3.533699,642.9,3,5,122.7,1.406
101.89,1,0.025,-0.05,0.005,0.009,-0.034,0.013,-1.576,-0.027,-0.146,100.86,92.3,40.575287,-3.533699,642.9,3,5,122.7,1.406
101.99,1,-0.047,-0.102,0.012,-0.009,-0.068,0.014,-1.579,-0.026,-0.145,100.86,92.3,40.575287,-3.533699,642.9,3,5,122.7,1.406
102.09,1,-0.057,-0.073,-0.002,-0.033,-0.076,-0.002,-1.579,-0.023,-0.144,100.86,92.3,40.575287,-3.533699,642.9,3,5,122.7,1.406
102.19,1,-0.004,-0.048,0.048,-0.033,-0.069,0.024,-1.581,-0.019,-0.144,100.86,92.3,40.575287,-3.533699,642.9,3,5,122.7,1.406
102.29,1,0.008,-0.022,0.021,-0.003,-0.044,0.027,-1.581,-0.02,-0.144,100.86,92.3,40.575287,-3.533699,642.9,3,5,122.7,1.406
102.4,1,0.008,-0.011,0.011,0.004,-0.027,0.02,-1.582,-0.018,-0.144,101.86,92.4,40.575161,-3.533442,643.5,3,5,122.7,1.055
102.49,1,0.016,0.006,0.032,0.011,-0.005,0.023,-1.583,-0.018,-0.143,101.86,92.4,40.575161,-3.533442,643.5,3,5,122.7,1.055
102.6,1,-0.007,-0.0,0.024,0.003,-0.001,0.027,-1.585,-0.013,-0.143,101.86,92.4,40.575161,-3.533442,643.5,3,5,122.7,1.055
102.69,1,-0.034,-0.023,0.004,-0.015,-0.012,0.017,-1.586,-0.012,-0.143,101.86,92.4,40.575161,-3.533442,643.5,3,5,122.7,1.055
102.79,1,-0.0,-0.011,0.002,-0.015,-0.014,0.005,-1.588,-0.015,-0.143,101.86,92.4,40.575161,-3.533442,643.5,3,5,122.7,1.055
102.89,1,0.021,-0.034,0.003,0.006,-0.022,0.002,-1.59,-0.022,-0.143,101.86,92.4,40.575161,-3.533442,643.5,3,5,122.7,1.055
103.0,1,-0.013,-0.017,-0.007,0.0,-0.024,0.0,-1.589,-0.024,-0.143,101.86,92.4,40.575161,-3.533442,643.5,3,5,122.7,1.055
103.1,1,-0.009,0.001,-0.001,-0.011,-0.014,-0.004,-1.589,-0.024,-0.143,101.86,92.4,40.575161,-3.533442,643.5,3,5,122.7,1.055
103.2,1,-0.037,0.035,-0.0,-0.016,0.017,0.007,-1.59,-0.028,-0.144,101.86,92.4,40.575161,-3.533442,643.5,3,5,122.7,1.055
103.3,1,-0.017,0.044,-0.035,-0.023,0.028,-0.017,-1.59,-0.035,-0.145,101.86,92.4,40.575161,-3.533442,643.5,3,5,122.7,1.055
103.39,1,0.038,0.037,-0.016,0.001,0.035,-0.021,-1.588,-0.039,-0.147,102.93,92.8,40.575047,-3.533182,643.8,3,5,122.7,0.0
103.49,1,-0.008,0.019,-0.0,0.007,0.027,-0.006,-1.586,-0.042,-0.148,102.93,92.8,40.575047,-3.533182,643.8,3,5,122.7,0.0
103.59,1,-0.031,0.014,-0.008,-0.003,0.022,-0.013,-1.586,-0.04,-0.149,102.93,92.8,40.575047,-3.533182,643.8,3,5,122.7,0.0
103.7,1,-0.022,0.005,-0.004,-0.023,0.014,-0.008,-1.587,-0.039,-0.15,102.93,92.8,40.575047,-3.533182,643.8,3,5,122.7,0.0
103.8,1,-0.046,-0.009,-0.008,-0.033,0.002,-0.003,-1.59,-0.039,-0.152,102.93,92.8,40.575047,-3.533182,643.8,3,5,122.7,0.0
103.9,1,0.022,-0.015,-0.021,-0.014,-0.007,-0.018,-1.588,-0.044,-0.153,102.93,92.8,40.575047,-3.533182,643.8,3,5,122.7,0.0
104.0,1,-0.004,-0.012,-0.007,0.0,-0.012,-0.008,-1.587,-0.046,-0.154,102.93,92.8,40.575047,-3.533182,643.8,3,5,122.7,0.0
104.1,1,0.007,0.006,-0.024,0.004,-0.006,-0.016,-1.584,-0.048,-0.155,102.93,92.8,40.575047,-3.533182,643.8,3,5,122.7,0.0
104.2,1,0.0,0.005,-0.037,-0.005,0.006,-0.03,-1.581,-0.049,-0.156,102.93,92.8,40.575047,-3.533182,643.8,3,5,122.7,0.0
104.3,1,-0.033,0.008,-0.037,-0.006,0.007,-0.027,-1.578,-0.05,-0.157,102.93,92.8,40.575047,-3.533182,643.8,3,5,122.7,0.0
104.4,1,-0.039,0.009,-0.044,-0.03,0.004,-0.041,-1.574,-0.05,-0.157,103.91,93.7,40.574924,-3.532915,644.3,3,5,123.0,0.352
104.5,1,0.002,-0.02,-0.008,-0.017,-0.004,-0.027,-1.571,-0.045,-0.157,103.91,93.7,40.574924,-3.532915,644.3,3,5,123.0,0.352
104.6,1,0.003,-0.038,-0.024,-0.009,-0.02,-0.026,-1.57,-0.039,-0.156,103.91,93.7,40.574924,-3.532915,644.3,3,5,123.0,0.352
104.7,1,-0.018,-0.043,-0.035,-0.01,-0.032,-0.021,-1.567,-0.031,-0.155,103.91,93.7,40.574924,-3.532915,644.3,3,5,123.0,0.352
104.8,1,-0.063,-0.021,-0.033,-0.03,-0.028,-0.034,-1.563,-0.027,-0.155,103.91,93.7,40.574924,-3.532915,644.3,3,5,123.0,0.352
104.9,1,-0.035,-0.031,0.006,-0.044,-0.031,-0.021,-1.564,-0.025,-0.155,103.91,93.7,40.574924,-3.532915,644.3,3,5,123.0,0.352
105.0,1,0.024,-0.015,-0.01,-0.019,-0.026,-0.008,-1.563,-0.028,-0.154,103.91,93.7,40.574924,-3.532915,644.3,3,5,123.0,0.352
105.1,1,0.064,-0.017,-0.017,0.03,-0.019,-0.014,-1.559,-0.027,-0.154,103.91,93.7,40.574924,-3.532915,644.3,3,5,123.0,0.352
105.2,1,0.02,-0.023,-0.026,0.04,-0.022,-0.014,-1.556,-0.027,-0.154,103.91,93.7,40.574924,-3.532915,644.3,3,5,123.0,0.352
105.31,1,-0.043,-0.021,-0.011,-0.001,-0.02,-0.018,-1.555,-0.025,-0.153,103.91,93.7,40.574924,-3.532915,644.3,3,5,123.0,0.352
105.4,1,-0.044,-0.021,-0.008,-0.026,-0.02,-0.013,-1.556,-0.025,-0.153,104.87,93.5,40.574802,-3.532659,645.1,3,5,122.3,0.703
105.51,1,-0.022,0.011,-0.009,-0.035,-0.006,-0.013,-1.554,-0.026,-0.152,104.87,93.5,40.574802,-3.532659,645.1,3,5,122.3,0.703
105.6,1,0.024,0.002,-0.005,-0.004,-0.005,-0.004,-1.555,-0.027,-0.152,104.87,93.5,40.574802,-3.532659,645.1,3,5,122.3,0.703
105.71,1,0.01,-0.014,-0.018,0.014,-0.002,-0.014,-1.553,-0.028,-0.151,104.87,93.5,40.574802,-3.532659,645.1,3,5,122.3,0.703
105.8,1,-0.032,-0.021,-0.005,-0.012,-0.015,-0.009,-1.554,-0.028,-0.15,104.87,93.5,40.574802,-3.532659,645.1,3,5,122.3,0.703
105.9,1,-0.04,-0.032,-0.006,-0.025,-0.022,-0.008,-1.555,-0.025,-0.149,104.87,93.5,40.574802,-3.532659,645.1,3,5,122.3,0.703
106.01,1,-0.024,-0.051,0.019,-0.029,-0.032,0.005,-1.557,-0.019,-0.148,104.87,93.5,40.574802,-3.532659,645.1,3,5,122.3,0.703
106.1,1,0.002,-0.036,0.006,-0.019,-0.041,0.007,-1.557,-0.013,-0.146,104.87,93.5,40.574802,-3.532659,645.1,3,5,122.3,0.703
106.21,1,-0.002,-0.032,-0.0,-0.002,-0.034,0.007,-1.558,-0.009,-0.144,104.87,93.5,40.574802,-3.532659,645.1,3,5,122.3,0.703
106.31,1,-0.028,-0.059,-0.032,-0.013,-0.043,-0.014,-1.558,-0.006,-0.142,104.87,93.5,40.574802,-3.532659,645.1,3,5,122.3,0.703
106.41,1,-0.041,-0.068,0.013,-0.031,-0.059,-0.006,-1.558,-0.003,-0.139,105.87,93.1,40.574677,-3.5324,645.4,3,5,123.8,1.406
106.51,1,-0.028,-0.066,0.013,-0.031,-0.064,0.01,-1.558,-0.003,-0.136,105.87,93.1,40.574677,-3.5324,645.4,3,5,123.8,1.406
106.6,1,-0.002,-0.074,0.008,-0.016,-0.069,0.005,-1.557,-0.002,-0.133,105.87,93.1,40.574677,-3.5324,645.4,3,5,123.8,1.406
106.7,1,0.018,-0.049,0.003,-0.002,-0.06,0.007,-1.557,-0.002,-0.131,105.87,93.1,40.574677,-3.5324,645.4,3,5,123.8,1.406
106.8,1,0.001,-0.032,0.017,0.004,-0.048,0.013,-1.559,0.005,-0.129,105.87,93.1,40.574677,-3.5324,645.4,3,5,123.8,1.406
106.91,1,0.021,-0.029,0.006,0.011,-0.038,0.01,-1.559,0.008,-0.126,105.87,93.1,40.574677,-3.5324,645.4,3,5,123.8,1.406
107.0,1,0.013,-0.012,-0.013,0.014,-0.022,-0.003,-1.558,0.011,-0.124,105.87,93.1,40.574677,-3.5324,645.4,3,5,123.8,1.406
107.11,1,-0.02,-0.01,0.008,0.001,-0.017,-0.0,-1.559,0.013,-0.122,105.87,93.1,40.574677,-3.5324,645.4,3,5,123.8,1.406
107.21,1,-0.017,0.004,-0.017,-0.012,-0.005,-0.004,-1.561,0.014,-0.12,105.87,93.1,40.574677,-3.5324,645.4,3,5,123.8,1.406
107.33,1,-0.021,-0.038,0.006,-0.011,-0.016,-0.004,-1.561,0.014,-0.118,105.87,93.1,40.574677,-3.5324,645.4,3,5,123.8,1.406
107.41,1,-0.032,-0.017,-0.007,-0.036,-0.028,-0.003,-1.561,0.014,-0.117,106.89,92.5,40.574547,-3.532148,645.6,3,5,123.4,1.055
107.51,1,0.031,-0.028,0.031,-0.004,-0.017,0.011,-1.561,0.014,-0.115,106.89,92.5,40.574547,-3.532148,645.6,3,5,123.4,1.055
107.61,1,0.007,0.008,0.002,0.014,-0.016,0.01,-1.562,0.017,-0.113,106.89,92.5,40.574547,-3.532148,645.6,3,5,123.4,1.055
107.7,1,0.022,0.035,-0.004,0.008,0.01,0.005,-1.562,0.012,-0.111,106.89,92.5,40.574547,-3.532148,645.6,3,5,123.4,1.055
107.81,1,-0.013,0.01,-0.02,0.011,0.016,-0.008,-1.561,0.011,-0.109,106.89,92.5,40.574547,-3.532148,645.6,3,5,123.4,1.055
107.91,1,-0.049,0.011,-0.011,-0.017,0.012,-0.016,-1.561,0.01,-0.107,106.89,92.5,40.574547,-3.532148,645.6,3,5,123.4,1.055
108.01,1,-0.048,-0.003,0.014,-0.039,0.009,0.003,-1.563,0.014,-0.105,106.89,92.5,40.574547,-3.532148,645.6,3,5,123.4,1.055
108.11,1,-0.008,-0.023,-0.005,-0.03,-0.008,-0.003,-1.562,0.014,-0.103,106.89,92.5,40.574547,-3.532148,645.6,3,5,123.4,1.055
108.21,1,-0.016,0.018,-0.012,-0.018,-0.002,-0.003,-1.563,0.016,-0.101,106.89,92.5,40.574547,-3.532148,645.6,3,5,123.4,1.055
108.31,1,-0.007,0.014,0.008,-0.012,0.011,-0.004,-1.565,0.015,-0.099,106.89,92.5,40.574547,-3.532148,645.6,3,5,123.4,1.055
108.41,1,0.002,-0.007,0.006,-0.008,0.007,0.005,-1.566,0.016,-0.097,107.87,92.1,40.574425,-3.531887,646.9,3,5,122.3,1.406
108.51,1,0.005,-0.023,0.02,0.001,-0.011,0.012,-1.568,0.018,-0.094,107.87,92.1,40.574425,-3.531887,646.9,3,5,122.3,1.406
108.62,1,-0.03,-0.017,0.016,-0.011,-0.018,0.014,-1.569,0.02,-0.091,107.87,92.1,40.574425,-3.531887,646.9,3,5,122.3,1.406
108.71,1,-0.017,-0.029,0.023,-0.015,-0.019,0.021,-1.571,0.021,-0.089,107.87,92.1,40.574425,-3.531887,646.9,3,5,122.3,1.406
108.82,1,0.006,-0.007,0.021,-0.011,-0.021,0.021,-1.573,0.023,-0.086,107.87,92.1,40.574425,-3.531887,646.9,3,5,122.3,1.406
108.91,1,0.004,-0.002,0.015,0.004,-0.01,0.018,-1.575,0.023,-0.084,107.87,92.1,40.574425,-3.531887,646.9,3,5,122.3,1.406
109.01,1,-0.01,-0.017,0.004,-0.008,-0.009,0.013,-1.576,0.024,-0.081,107.87,92.1,40.574425,-3.531887,646.9,3,5,122.3,1.406
109.11,1,-0.018,-0.012,0.005,-0.011,-0.012,0.004,-1.577,0.025,-0.078,107.87,92.1,40.574425,-3.531887,646.9,3,5,122.3,1.406
109.21,1,-0.018,-0.011,0.011,-0.013,-0.01,0.014,-1.58,0.025,-0.076,107.87,92.1,40.574425,-3.531887,646.9,3,5,122.3,1.406
109.32,1,-0.003,-0.002,0.011,-0.008,-0.008,0.007,-1.579,0.025,-0.073,107.87,92.1,40.574425,-3.531887,646.9,3,5,122.3,1.406
109.41,1,0.007,-0.004,0.01,-0.006,-0.012,0.011,-1.58,0.027,-0.071,108.91,91.9,40.574295,-3.531616,646.8,3,5,121.3,2.109
109.52,1,-0.009,-0.012,-0.01,-0.002,-0.008,0.002,-1.581,0.029,-0.069,108.91,91.9,40.574295,-3.531616,646.8,3,5,121.3,2.109
109.63,1,-0.024,0.016,0.012,-0.01,0.001,0.001,-1.581,0.027,-0.067,108.91,91.9,40.574295,-3.531616,646.8,3,5,121.3,2.109
109.71,1,-0.039,0.026,0.001,-0.028,0.017,0.005,-1.583,0.021,-0.066,108.91,91.9,40.574295,-3.531616,646.8,3,5,121.3,2.109
109.81,1,-0.032,0.048,0.01,-0.035,0.03,0.005,-1.583,0.016,-0.066,108.91,91.9,40.574295,-3.531616,646.8,3,5,121.3,2.109
109.92,1,-0.024,0.042,0.008,-0.027,0.045,0.007,-1.585,0.011,-0.065,108.91,91.9,40.574295,-3.531616,646.8,3,5,121.3,2.109
110.02,1,0.008,0.044,0.005,-0.013,0.042,0.008,-1.587,0.008,-0.064,108.91,91.9,40.574295,-3.531616,646.8,3,5,121.3,2.109
110.11,1,0.023,0.034,0.014,0.008,0.038,0.009,-1.587,0.007,-0.064,108.91,91.9,40.574295,-3.531616,646.8,3,5,121.3,2.109
110.21,1,0.005,0.029,-0.01,0.008,0.032,0.004,-1.586,0.004,-0.064,108.91,91.9,40.574295,-3.531616,646.8,3,5,121.3,2.109
110.31,1,0.001,0.031,0.012,0.008,0.028,-0.001,-1.585,0.001,-0.063,108.91,91.9,40.574295,-3.531616,646.8,3,5,121.3,2.109
110.41,1,-0.016,0.03,0.016,-0.005,0.032,0.013,-1.586,0.0,-0.063,109.87,92.1,40.574169,-3.531352,647.6,3,5,119.9,2.461
110.52,1,-0.028,0.039,-0.013,-0.017,0.035,0.003,-1.587,0.0,-0.062,109.87,92.1,40.574169,-3.531352,647.6,3,5,119.9,2.461
110.61,1,-0.01,0.037,0.013,-0.018,0.045,0.003,-1.59,-0.004,-0.062,109.87,92.1,40.574169,-3.531352,647.6,3,5,119.9,2.461
110.71,1,0.005,0.022,-0.006,-0.008,0.028,0.001,-1.592,-0.005,-0.061,109.87,92.1,40.574169,-3.531352,647.6,3,5,119.9,2.461
110.81,1,-0.0,0.019,-0.014,-0.003,0.027,-0.006,-1.592,-0.009,-0.061,109.87,92.1,40.574169,-3.531352,647.6,3,5,119.9,2.461
110.91,1,-0.005,0.015,-0.003,0.006,0.017,-0.008,-1.591,-0.009,-0.06,109.87,92.1,40.574169,-3.531352,647.6,3,5,119.9,2.461
111.01,1,-0.016,-0.014,-0.007,-0.011,0.0,-0.008,-1.591,-0.01,-0.059,109.87,92.1,40.574169,-3.531352,647.6,3,5,119.9,2.461
111.11,1,-0.023,0.01,-0.009,-0.02,-0.0,-0.008,-1.59,-0.012,-0.059,109.87,92.1,40.574169,-3.531352,647.6,3,5,119.9,2.461
111.21,1,0.003,0.002,-0.007,-0.009,0.006,-0.005,-1.591,-0.011,-0.059,109.87,92.1,40.574169,-3.531352,647.6,3,5,119.9,2.461
111.31,1,0.033,0.024,-0.019,0.012,0.016,-0.01,-1.59,-0.011,-0.058,109.87,92.1,40.574169,-3.531352,647.6,3,5,119.9,2.461
111.42,1,-0.007,0.01,-0.017,0.008,0.013,-0.015,-1.586,-0.011,-0.056,110.87,92.8,40.574055,-3.531086,648.2,3,5,119.5,1.758
111.52,1,-0.032,-0.021,-0.009,-0.009,-0.001,-0.012,-1.587,-0.007,-0.054,110.87,92.8,40.574055,-3.531086,648.2,3,5,119.5,1.758
111.62,1,-0.008,-0.015,0.019,-0.014,-0.013,-0.002,-1.589,-0.007,-0.053,110.87,92.8,40.574055,-3.531086,648.2,3,5,119.5,1.758
111.72,1,-0.034,-0.013,-0.021,-0.024,-0.012,-0.006,-1.589,-0.005,-0.052,110.87,92.8,40.574055,-3.531086,648.2,3,5,119.5,1.758
111.82,1,-0.029,-0.006,-0.022,-0.033,-0.008,-0.013,-1.588,-0.005,-0.051,110.87,92.8,40.574055,-3.531086,648.2,3,5,119.5,1.758
111.93,1,-0.013,0.008,0.001,-0.02,-0.004,-0.008,-1.588,-0.004,-0.049,110.87,92.8,40.574055,-3.531086,648.2,3,5,119.5,1.758
112.02,1,-0.003,-0.006,-0.029,-0.01,-0.001,-0.017,-1.587,-0.004,-0.048,110.87,92.8,40.574055,-3.531086,648.2,3,5,119.5,1.758
112.12,1,-0.006,-0.004,-0.023,-0.01,-0.005,-0.022,-1.586,-0.003,-0.047,110.87,92.8,40.574055,-3.531086,648.2,3,5,119.5,1.758
112.22,1,-0.009,-0.012,-0.016,-0.003,-0.003,-0.022,-1.586,-0.003,-0.046,110.87,92.8,40.574055,-3.531086,648.2,3,5,119.5,1.758
112.32,1,-0.012,0.016,0.002,-0.011,-0.002,-0.005,-1.586,-0.0,-0.045,110.87,92.8,40.574055,-3.531086,648.2,3,5,119.5,1.758
112.42,1,0.002,0.006,-0.011,-0.007,0.004,-0.011,-1.582,-0.001,-0.044,111.86,92.8,40.573944,-3.530819,648.9,3,5,118.8,1.055
112.52,1,-0.011,0.005,-0.011,-0.005,0.007,-0.011,-1.581,0.001,-0.043,111.86,92.8,40.573944,-3.530819,648.9,3,5,118.8,1.055
112.63,1,-0.028,0.001,-0.019,-0.013,0.004,-0.012,-1.582,-0.0,-0.042,111.86,92.8,40.573944,-3.530819,648.9,3,5,118.8,1.055
112.73,1,-0.018,0.011,-0.016,-0.023,0.005,-0.015,-1.582,-0.002,-0.041,111.86,92.8,40.573944,-3.530819,648.9,3,5,118.8,1.055
112.82,1,-0.013,0.001,-0.012,-0.019,0.008,-0.016,-1.579,-0.001,-0.04,111.86,92.8,40.573944,-3.530819,648.9,3,5,118.8,1.055
112.92,1,0.003,0.016,-0.003,-0.003,0.009,-0.011,-1.578,0.002,-0.039,111.86,92.8,40.573944,-3.530819,648.9,3,5,118.8,1.055
113.02,1,0.008,0.013,-0.025,-0.002,0.008,-0.009,-1.577,-0.0,-0.038,111.86,92.8,40.573944,-3.530819,648.9,3,5,118.8,1.055
113.12,1,0.009,0.004,-0.012,0.008,0.01,-0.017,-1.575,-0.0,-0.037,111.86,92.8,40.573944,-3.530819,648.9,3,5,118.8,1.055
113.22,1,-0.009,0.008,-0.011,0.001,0.005,-0.014,-1.576,-0.001,-0.036,111.86,92.8,40.573944,-3.530819,648.9,3,5,118.8,1.055
113.32,1,-0.034,-0.0,0.001,-0.012,0.007,-0.01,-1.574,-0.003,-0.035,111.86,92.8,40.573944,-3.530819,648.9,3,5,118.8,1.055
113.42,1,-0.012,0.013,-0.007,-0.022,0.007,-0.004,-1.572,-0.003,-0.034,112.86,93.8,40.573826,-3.530558,649.1,3,5,118.8,0.703
113.52,1,-0.017,0.016,-0.053,-0.017,0.008,-0.024,-1.569,-0.001,-0.032,112.86,93.8,40.573826,-3.530558,649.1,3,5,118.8,0.703
113.63,1,-0.027,-0.017,0.004,-0.023,-0.0,-0.018,-1.568,-0.001,-0.031,112.86,93.8,40.573826,-3.530558,649.1,3,5,118.8,0.703
113.72,1,-0.006,0.009,0.003,-0.019,0.002,-0.006,-1.569,0.0,-0.03,112.86,93.8,40.573826,-3.530558,649.1,3,5,118.8,0.703
113.83,1,-0.005,-0.01,-0.003,-0.007,0.001,-0.002,-1.568,0.0,-0.029,112.86,93.8,40.573826,-3.530558,649.1,3,5,118.8,0.703
113.92,1,0.017,-0.009,-0.022,0.002,-0.006,-0.015,-1.565,-0.002,-0.028,112.86,93.8,40.573826,-3.530558,649.1,3,5,118.8,0.703
114.12,1,-0.016,0.02,0.001,-0.009,0.006,0.003,-1.566,-0.003,-0.027,112.86,93.8,40.573826,-3.530558,649.1,3,5,118.8,0.703
114.22,1,-0.017,0.011,-0.002,-0.008,0.012,0.002,-1.566,-0.002,-0.027,112.86,93.8,40.573826,-3.530558,649.1,3,5,118.8,0.703
114.32,1,-0.022,-0.015,0.007,-0.022,0.002,0.002,-1.567,-0.003,-0.026,112.86,93.8,40.573826,-3.530558,649.1,3,5,118.8,0.703
114.42,1,-0.026,-0.009,-0.005,-0.025,-0.007,-0.0,-1.568,-0.002,-0.025,112.86,93.8,40.573826,-3.530558,649.1,3,5,118.8,0.703
114.52,1,-0.001,0.001,0.004,-0.011,-0.003,0.002,-1.568,-0.0,-0.024,113.92,93.4,40.573715,-3.530291,650.0,3,5,118.1,0.703
114.62,1,0.026,0.003,-0.002,0.006,-0.002,-0.002,-1.568,0.004,-0.023,113.92,93.4,40.573715,-3.530291,650.0,3,5,118.1,0.703
114.72,1,0.002,-0.016,-0.007,0.007,-0.009,-0.004,-1.568,0.004,-0.021,113.92,93.4,40.573715,-3.530291,650.0,3,5,118.1,0.703
114.82,1,-0.034,-0.02,-0.011,-0.007,-0.011,-0.005,-1.569,0.006,-0.019,113.92,93.4,40.573715,-3.530291,650.0,3,5,118.1,0.703
114.92,1,-0.02,-0.043,0.009,-0.023,-0.023,0.001,-1.571,0.01,-0.017,113.92,93.4,40.573715,-3.530291,650.0,3,5,118.1,0.703
115.03,1,-0.036,-0.057,0.007,-0.025,-0.042,0.006,-1.571,0.015,-0.014,113.92,93.4,40.573715,-3.530291,650.0,3,5,118.1,0.703
115.14,1,-0.04,-0.056,-0.003,-0.038,-0.053,-0.005,-1.572,0.015,-0.012,113.92,93.4,40.573715,-3.530291,650.0,3,5,118.1,0.703
115.22,1,0.058,-0.023,0.069,0.009,-0.044,0.026,-1.574,0.015,-0.01,113.92,93.4,40.573715,-3.530291,650.0,3,5,118.1,0.703
115.32,1,0.067,0.003,0.005,0.04,-0.021,0.034,-1.574,0.015,-0.008,113.92,93.4,40.573715,-3.530291,650.0,3,5,118.1,0.703
115.42,1,0.018,0.0,-0.02,0.042,-0.003,0.001,-1.573,0.018,-0.006,113.92,93.4,40.573715,-3.530291,650.0,3,5,118.1,0.703
115.53,1,-0.023,-0.015,-0.01,-0.001,-0.007,-0.011,-1.576,0.019,-0.005,114.87,92.5,40.573601,-3.530035,650.8,3,5,117.4,1.406
115.63,1,-0.053,-0.015,0.003,-0.021,-0.015,0.001,-1.579,0.018,-0.002,114.87,92.5,40.573601,-3.530035,650.8,3,5,117.4,1.406
