Timestamp_Accel,SystemActivated,accelerometerXAxis,accelerometerYAxis,accelerometerZAxis,AccelX_KF,AccelY_KF,AccelZ_KF,gyroscopeXAxis,gyroscopeYAxis,gyroscopeZAxis,Timestamp_GPS,Speed,latitude,longitude,Altitude,VerticalAccuracy,HorizontalAccuracy,Course,Difcourse
10.85,0,-0.04,0.031,0.001,-0.015,0.014,-0.003,-1.637,-0.005,-0.203,10.84,0.0,40.505222,-3.353082,594.6,23,271,-1.0,-1.0
10.96,0,-0.035,0.003,-0.001,-0.038,0.009,0.001,-1.639,-0.007,-0.204,10.84,0.0,40.505222,-3.353082,594.6,23,271,-1.0,-1.0
11.05,0,-0.017,0.028,-0.018,-0.024,0.021,-0.007,-1.638,-0.008,-0.205,10.84,0.0,40.505222,-3.353082,594.6,23,271,-1.0,-1.0
11.15,0,-0.009,0.005,-0.015,-0.019,0.017,-0.012,-1.636,-0.01,-0.207,10.84,0.0,40.505222,-3.353082,594.6,23,271,-1.0,-1.0
11.25,1,0.019,0.015,-0.019,-0.003,0.007,-0.013,-1.634,-0.01,-0.208,10.84,0.0,40.505222,-3.353082,594.6,23,271,-1.0,-1.0
11.35,1,0.008,-0.022,-0.019,0.01,-0.006,-0.018,-1.631,-0.01,-0.209,10.84,0.0,40.505222,-3.353082,594.6,23,271,-1.0,-1.0
11.45,1,-0.028,-0.019,-0.009,-0.001,-0.004,-0.017,-1.631,-0.011,-0.21,10.84,0.0,40.505222,-3.353082,594.6,23,271,-1.0,-1.0
11.55,1,-0.013,0.019,-0.004,-0.023,-0.003,-0.01,-1.631,-0.015,-0.211,10.84,0.0,40.505222,-3.353082,594.6,23,271,-1.0,-1.0
11.65,1,-0.013,0.003,0.008,-0.009,0.002,0.002,-1.633,-0.019,-0.212,10.84,0.0,40.505222,-3.353082,594.6,23,271,-1.0,-1.0
11.75,1,0.025,-0.007,-0.019,0.004,0.002,-0.009,-1.632,-0.019,-0.213,10.84,0.0,40.505222,-3.353082,594.6,23,271,-1.0,-1.0
11.85,1,0.019,-0.009,0.004,0.008,-0.004,-0.004,-1.633,-0.017,-0.214,11.84,71.5,40.505733,-3.355593,577.8,16,10,275.3,177.891
11.95,1,-0.078,-0.0,-0.01,-0.014,-0.007,-0.004,-1.634,-0.019,-0.215,11.84,71.5,40.505733,-3.355593,577.8,16,10,275.3,177.891
12.05,1,-0.044,0.011,-0.019,-0.048,-0.002,-0.014,-1.635,-0.022,-0.216,11.84,71.5,40.505733,-3.355593,577.8,16,10,275.3,177.891
12.15,1,-0.013,0.026,-0.022,-0.029,0.02,-0.017,-1.634,-0.025,-0.217,11.84,71.5,40.505733,-3.355593,577.8,16,10,275.3,177.891
12.25,1,-0.035,0.027,-0.005,-0.036,0.025,-0.015,-1.635,-0.029,-0.218,11.84,71.5,40.505733,-3.355593,577.8,16,10,275.3,177.891
12.36,1,0.034,-0.016,-0.0,-0.003,0.007,-0.006,-1.636,-0.03,-0.219,11.84,71.5,40.505733,-3.355593,577.8,16,10,275.3,177.891
12.45,1,0.05,-0.048,-0.031,0.025,-0.014,-0.013,-1.634,-0.026,-0.22,11.84,71.5,40.505733,-3.355593,577.8,16,10,275.3,177.891
12.55,1,-0.0,-0.026,-0.041,0.017,-0.03,-0.03,-1.631,-0.025,-0.221,11.84,71.5,40.505733,-3.355593,577.8,16,10,275.3,177.891
12.65,1,-0.044,-0.015,-0.029,0.0,-0.028,-0.035,-1.629,-0.024,-0.223,11.84,71.5,40.505733,-3.355593,577.8,16,10,275.3,177.891
12.75,1,-0.046,-0.024,-0.033,-0.029,-0.022,-0.031,-1.627,-0.028,-0.223,11.84,71.5,40.505733,-3.355593,577.8,16,10,275.3,177.891
12.86,1,-0.013,0.015,-0.032,-0.036,-0.011,-0.031,-1.626,-0.03,-0.223,12.85,74.9,40.505779,-3.355771,595.7,4,5,274.9,0.352
12.95,1,0.018,0.011,-0.038,-0.002,0.012,-0.033,-1.624,-0.03,-0.223,12.85,74.9,40.505779,-3.355771,595.7,4,5,274.9,0.352
13.05,1,-0.006,-0.03,-0.015,-0.004,-0.01,-0.031,-1.622,-0.026,-0.223,12.85,74.9,40.505779,-3.355771,595.7,4,5,274.9,0.352
13.15,1,0.021,-0.017,-0.008,0.004,-0.019,-0.017,-1.623,-0.023,-0.223,12.85,74.9,40.505779,-3.355771,595.7,4,5,274.9,0.352
13.25,1,0.007,-0.046,-0.028,0.013,-0.028,-0.018,-1.621,-0.022,-0.223,12.85,74.9,40.505779,-3.355771,595.7,4,5,274.9,0.352
13.36,1,0.031,0.0,-0.034,0.022,-0.021,-0.03,-1.617,-0.023,-0.223,12.85,74.9,40.505779,-3.355771,595.7,4,5,274.9,0.352
13.46,1,-0.071,-0.018,-0.019,-0.016,-0.014,-0.022,-1.617,-0.023,-0.224,12.85,74.9,40.505779,-3.355771,595.7,4,5,274.9,0.352
13.56,1,-0.044,-0.011,-0.003,-0.045,-0.016,-0.018,-1.617,-0.024,-0.224,12.85,74.9,40.505779,-3.355771,595.7,4,5,274.9,0.352
13.66,1,-0.025,0.008,0.006,-0.038,-0.006,-0.004,-1.618,-0.027,-0.224,12.85,74.9,40.505779,-3.355771,595.7,4,5,274.9,0.352
13.76,1,-0.005,-0.0,-0.01,-0.011,0.003,-0.003,-1.617,-0.026,-0.224,12.85,74.9,40.505779,-3.355771,595.7,4,5,274.9,0.352
13.86,1,0.046,0.009,0.007,0.009,0.002,0.0,-1.615,-0.024,-0.224,13.85,76.8,40.505787,-3.35604,594.8,4,5,275.3,0.352
13.96,1,0.014,-0.044,0.035,0.026,-0.01,0.019,-1.619,-0.021,-0.224,13.85,76.8,40.505787,-3.35604,594.8,4,5,275.3,0.352
14.06,1,-0.025,-0.038,0.03,-0.008,-0.035,0.022,-1.621,-0.017,-0.224,13.85,76.8,40.505787,-3.35604,594.8,4,5,275.3,0.352
14.16,1,-0.011,-0.057,0.038,-0.014,-0.048,0.034,-1.622,-0.02,-0.224,13.85,76.8,40.505787,-3.35604,594.8,4,5,275.3,0.352
14.26,1,-0.07,-0.043,0.009,-0.021,-0.04,0.024,-1.622,-0.024,-0.224,13.85,76.8,40.505787,-3.35604,594.8,4,5,275.3,0.352
14.36,1,-0.047,-0.01,0.044,-0.056,-0.028,0.027,-1.624,-0.026,-0.224,13.85,76.8,40.505787,-3.35604,594.8,4,5,275.3,0.352
14.46,1,0.013,0.036,0.061,-0.024,0.006,0.048,-1.626,-0.027,-0.224,13.85,76.8,40.505787,-3.35604,594.8,4,5,275.3,0.352
14.57,1,-0.024,-0.016,0.048,-0.026,-0.001,0.047,-1.625,-0.026,-0.224,13.85,76.8,40.505787,-3.35604,594.8,4,5,275.3,0.352
14.66,1,0.065,-0.026,0.051,0.026,-0.019,0.048,-1.629,-0.026,-0.223,13.85,76.8,40.505787,-3.35604,594.8,4,5,275.3,0.352
14.76,1,0.042,-0.052,0.035,0.041,-0.03,0.046,-1.633,-0.025,-0.222,13.85,76.8,40.505787,-3.35604,594.8,4,5,275.3,0.352
14.86,1,0.007,-0.044,0.03,0.026,-0.047,0.036,-1.634,-0.021,-0.222,14.83,78.5,40.505779,-3.356309,594.3,4,5,276.0,1.055
14.96,1,-0.02,-0.033,0.046,0.004,-0.038,0.041,-1.638,-0.015,-0.221,14.83,78.5,40.505779,-3.356309,594.3,4,5,276.0,1.055
15.06,1,-0.055,-0.017,0.02,-0.028,-0.025,0.03,-1.639,-0.011,-0.22,14.83,78.5,40.505779,-3.356309,594.3,4,5,276.0,1.055
15.16,1,-0.053,-0.045,0.012,-0.036,-0.027,0.022,-1.642,-0.01,-0.219,14.83,78.5,40.505779,-3.356309,594.3,4,5,276.0,1.055
15.27,1,-0.044,-0.05,0.036,-0.056,-0.048,0.024,-1.644,-0.009,-0.217,14.83,78.5,40.505779,-3.356309,594.3,4,5,276.0,1.055
15.36,1,0.043,-0.058,0.031,-0.011,-0.052,0.033,-1.648,-0.002,-0.216,14.83,78.5,40.505779,-3.356309,594.3,4,5,276.0,1.055
15.46,1,0.027,-0.036,0.006,0.02,-0.043,0.021,-1.649,0.007,-0.214,14.83,78.5,40.505779,-3.356309,594.3,4,5,276.0,1.055
15.56,1,0.033,-0.063,0.001,0.028,-0.05,0.006,-1.65,0.013,-0.212,14.83,78.5,40.505779,-3.356309,594.3,4,5,276.0,1.055
15.66,1,-0.008,-0.033,0.018,0.017,-0.043,0.011,-1.653,0.017,-0.209,14.83,78.5,40.505779,-3.356309,594.3,4,5,276.0,1.055
15.78,1,-0.019,0.004,0.009,-0.011,-0.027,0.015,-1.654,0.018,-0.207,14.83,78.5,40.505779,-3.356309,594.3,4,5,276.0,1.055
15.87,1,0.017,0.012,-0.005,0.005,-0.0,0.005,-1.653,0.019,-0.205,15.83,81.4,40.505791,-3.35658,594.2,4,5,276.3,1.055
15.97,1,-0.007,-0.036,-0.007,0.002,-0.014,-0.002,-1.65,0.021,-0.203,15.83,81.4,40.505791,-3.35658,594.2,4,5,276.3,1.055
16.06,1,-0.023,-0.032,-0.006,-0.012,-0.031,-0.007,-1.649,0.025,-0.2,15.83,81.4,40.505791,-3.35658,594.2,4,5,276.3,1.055
16.16,1,0.001,-0.052,-0.006,-0.006,-0.04,-0.003,-1.649,0.03,-0.198,15.83,81.4,40.505791,-3.35658,594.2,4,5,276.3,1.055
16.26,1,-0.009,-0.047,-0.017,-0.008,-0.044,-0.012,-1.649,0.034,-0.196,15.83,81.4,40.505791,-3.35658,594.2,4,5,276.3,1.055
16.36,1,-0.029,-0.028,-0.012,-0.014,-0.034,-0.012,-1.649,0.034,-0.194,15.83,81.4,40.505791,-3.35658,594.2,4,5,276.3,1.055
16.47,1,-0.058,0.001,-0.015,-0.04,-0.022,-0.014,-1.648,0.033,-0.191,15.83,81.4,40.505791,-3.35658,594.2,4,5,276.3,1.055
16.56,1,-0.047,-0.036,-0.011,-0.049,-0.021,-0.012,-1.648,0.034,-0.189,15.83,81.4,40.505791,-3.35658,594.2,4,5,276.3,1.055
16.67,1,-0.048,-0.023,-0.012,-0.042,-0.026,-0.013,-1.648,0.034,-0.187,15.83,81.4,40.505791,-3.35658,594.2,4,5,276.3,1.055
16.77,1,-0.012,-0.039,-0.026,-0.032,-0.034,-0.016,-1.647,0.033,-0.185,15.83,81.4,40.505791,-3.35658,594.2,4,5,276.3,1.055
16.87,1,0.041,-0.02,-0.018,0.004,-0.027,-0.019,-1.645,0.035,-0.182,16.84,85.2,40.505806,-3.356857,593.6,4,5,276.3,0.352
16.97,1,-0.026,-0.004,-0.004,-0.006,-0.021,-0.014,-1.643,0.036,-0.18,16.84,85.2,40.505806,-3.356857,593.6,4,5,276.3,0.352
17.08,1,0.032,-0.008,-0.021,0.009,-0.005,-0.014,-1.644,0.038,-0.178,16.84,85.2,40.505806,-3.356857,593.6,4,5,276.3,0.352
17.18,1,0.03,-0.004,-0.008,0.025,-0.004,-0.013,-1.642,0.038,-0.176,16.84,85.2,40.505806,-3.356857,593.6,4,5,276.3,0.352
17.27,1,0.034,-0.018,-0.008,0.025,-0.01,-0.01,-1.64,0.042,-0.174,16.84,85.2,40.505806,-3.356857,593.6,4,5,276.3,0.352
17.37,1,-0.022,-0.023,-0.018,0.008,-0.025,-0.013,-1.638,0.047,-0.172,16.84,85.2,40.505806,-3.356857,593.6,4,5,276.3,0.352
17.47,1,0.002,-0.012,-0.007,-0.003,-0.012,-0.013,-1.637,0.048,-0.171,16.84,85.2,40.505806,-3.356857,593.6,4,5,276.3,0.352
17.57,1,-0.026,0.005,-0.008,-0.005,-0.009,-0.009,-1.635,0.047,-0.169,16.84,85.2,40.505806,-3.356857,593.6,4,5,276.3,0.352
17.68,1,-0.065,0.034,-0.019,-0.035,0.017,-0.015,-1.635,0.046,-0.168,16.84,85.2,40.505806,-3.356857,593.6,4,5,276.3,0.352
17.77,1,-0.059,0.037,-0.024,-0.056,0.023,-0.018,-1.635,0.047,-0.166,16.84,85.2,40.505806,-3.356857,593.6,4,5,276.3,0.352
17.87,1,-0.004,-0.028,-0.016,-0.035,0.007,-0.013,-1.635,0.05,-0.164,17.84,88.5,40.505821,-3.357152,591.5,6,5,275.6,0.703
17.97,1,0.014,-0.036,-0.007,-0.006,-0.016,-0.014,-1.635,0.051,-0.162,17.84,88.5,40.505821,-3.357152,591.5,6,5,275.6,0.703
18.07,1,-0.019,0.006,-0.018,-0.007,-0.019,-0.014,-1.636,0.048,-0.161,17.84,88.5,40.505821,-3.357152,591.5,6,5,275.6,0.703
18.17,1,-0.065,0.009,-0.029,-0.029,0.007,-0.023,-1.637,0.046,-0.16,17.84,88.5,40.505821,-3.357152,591.5,6,5,275.6,0.703
18.28,1,-0.058,0.021,-0.028,-0.057,0.021,-0.023,-1.638,0.044,-0.159,17.84,88.5,40.505821,-3.357152,591.5,6,5,275.6,0.703
18.38,1,-0.023,0.006,-0.011,-0.043,0.003,-0.02,-1.638,0.041,-0.158,17.84,88.5,40.505821,-3.357152,591.5,6,5,275.6,0.703
18.47,1,0.024,-0.004,-0.025,-0.01,0.001,-0.023,-1.636,0.038,-0.157,17.84,88.5,40.505821,-3.357152,591.5,6,5,275.6,0.703
18.57,1,0.026,0.033,-0.026,0.011,0.021,-0.021,-1.632,0.033,-0.156,17.84,88.5,40.505821,-3.357152,591.5,6,5,275.6,0.703
18.67,1,0.009,0.043,-0.026,0.025,0.024,-0.023,-1.627,0.028,-0.156,17.84,88.5,40.505821,-3.357152,591.5,6,5,275.6,0.703
18.77,1,-0.039,0.014,-0.046,-0.011,0.025,-0.039,-1.622,0.017,-0.156,17.84,88.5,40.505821,-3.357152,591.5,6,5,275.6,0.703
18.88,1,-0.038,0.047,-0.015,-0.034,0.033,-0.026,-1.62,0.013,-0.156,18.85,90.9,40.50584,-3.357451,591.5,6,5,274.9,1.406
18.97,1,-0.023,0.02,-0.03,-0.027,0.028,-0.026,-1.618,0.011,-0.156,18.85,90.9,40.50584,-3.357451,591.5,6,5,274.9,1.406
19.07,1,-0.019,0.035,-0.017,-0.023,0.033,-0.025,-1.615,0.007,-0.157,18.85,90.9,40.50584,-3.357451,591.5,6,5,274.9,1.406
19.17,1,0.024,0.051,-0.009,-0.008,0.038,-0.016,-1.614,0.0,-0.158,18.85,90.9,40.50584,-3.357451,591.5,6,5,274.9,1.406
19.28,1,0.055,0.05,-0.03,0.027,0.043,-0.015,-1.612,-0.004,-0.158,18.85,90.9,40.50584,-3.357451,591.5,6,5,274.9,1.406
19.38,1,0.016,0.034,-0.031,0.029,0.042,-0.035,-1.609,-0.003,-0.159,18.85,90.9,40.50584,-3.357451,591.5,6,5,274.9,1.406
19.49,1,0.002,-0.017,0.02,0.019,0.021,-0.004,-1.609,-0.001,-0.16,18.85,90.9,40.50584,-3.357451,591.5,6,5,274.9,1.406
19.59,1,-0.016,-0.018,-0.05,0.004,-0.01,-0.016,-1.608,-0.002,-0.16,18.85,90.9,40.50584,-3.357451,591.5,6,5,274.9,1.406
19.68,1,-0.072,0.017,-0.011,-0.036,0.004,-0.029,-1.608,-0.004,-0.161,18.85,90.9,40.50584,-3.357451,591.5,6,5,274.9,1.406
19.78,1,-0.062,0.021,-0.003,-0.058,0.016,-0.012,-1.609,-0.006,-0.162,18.85,90.9,40.50584,-3.357451,591.5,6,5,274.9,1.406
19.98,1,0.087,-0.006,-0.013,0.048,0.0,-0.007,-1.606,-0.005,-0.162,19.86,92.9,40.505859,-3.357759,591.4,6,5,274.2,1.406
20.08,1,-0.013,-0.014,-0.034,0.038,-0.002,-0.022,-1.605,-0.004,-0.162,19.86,92.9,40.505859,-3.357759,591.4,6,5,274.2,1.406
20.18,1,-0.092,-0.022,-0.008,-0.026,-0.022,-0.016,-1.605,-0.007,-0.163,19.86,92.9,40.505859,-3.357759,591.4,6,5,274.2,1.406
20.28,1,-0.05,0.037,-0.013,-0.06,0.004,-0.013,-1.605,-0.009,-0.163,19.86,92.9,40.505859,-3.357759,591.4,6,5,274.2,1.406
20.38,1,-0.027,0.011,-0.008,-0.036,0.013,-0.01,-1.606,-0.011,-0.164,19.86,92.9,40.505859,-3.357759,591.4,6,5,274.2,1.406
20.48,1,-0.071,0.024,-0.002,-0.056,0.021,-0.008,-1.607,-0.014,-0.164,19.86,92.9,40.505859,-3.357759,591.4,6,5,274.2,1.406
20.59,1,0.013,0.008,0.005,-0.027,0.02,0.002,-1.609,-0.012,-0.164,19.86,92.9,40.505859,-3.357759,591.4,6,5,274.2,1.406
20.69,1,-0.031,0.003,-0.03,-0.02,0.006,-0.014,-1.609,-0.011,-0.165,19.86,92.9,40.505859,-3.357759,591.4,6,5,274.2,1.406
20.79,1,0.012,0.014,-0.003,-0.017,0.008,-0.01,-1.611,-0.012,-0.165,19.86,92.9,40.505859,-3.357759,591.4,6,5,274.2,1.406
20.88,1,0.019,0.013,-0.026,0.014,0.011,-0.018,-1.607,-0.011,-0.166,19.86,92.9,40.505859,-3.357759,591.4,6,5,274.2,1.406
20.98,1,-0.02,-0.007,-0.012,-0.002,0.006,-0.017,-1.606,-0.011,-0.167,20.84,94.2,40.505878,-3.358068,591.5,6,5,274.9,0.703
21.08,1,0.004,0.013,0.008,-0.004,0.003,-0.003,-1.604,-0.014,-0.168,20.84,94.2,40.505878,-3.358068,591.5,6,5,274.9,0.703
21.18,1,-0.04,0.025,-0.036,-0.017,0.012,-0.014,-1.602,-0.016,-0.169,20.84,94.2,40.505878,-3.358068,591.5,6,5,274.9,0.703
21.29,1,-0.023,0.003,-0.001,-0.024,0.017,-0.018,-1.604,-0.017,-0.169,20.84,94.2,40.505878,-3.358068,591.5,6,5,274.9,0.703
21.38,1,-0.023,0.004,-0.009,-0.025,0.006,-0.006,-1.603,-0.019,-0.17,20.84,94.2,40.505878,-3.358068,591.5,6,5,274.9,0.703
21.48,1,-0.008,0.049,0.001,-0.017,0.02,-0.006,-1.603,-0.023,-0.17,20.84,94.2,40.505878,-3.358068,591.5,6,5,274.9,0.703
21.58,1,-0.017,-0.009,-0.015,-0.01,0.016,-0.006,-1.603,-0.024,-0.171,20.84,94.2,40.505878,-3.358068,591.5,6,5,274.9,0.703
21.68,1,-0.028,0.006,-0.012,-0.022,0.007,-0.013,-1.602,-0.023,-0.17,20.84,94.2,40.505878,-3.358068,591.5,6,5,274.9,0.703
21.78,1,-0.04,-0.023,-0.009,-0.029,-0.001,-0.011,-1.601,-0.023,-0.17,20.84,94.2,40.505878,-3.358068,591.5,6,5,274.9,0.703
21.89,1,-0.035,-0.037,0.003,-0.035,-0.025,-0.005,-1.601,-0.022,-0.17,20.84,94.2,40.505878,-3.358068,591.5,6,5,274.9,0.703
21.98,1,-0.026,-0.031,0.018,-0.035,-0.029,0.006,-1.602,-0.02,-0.169,21.86,95.5,40.505901,-3.358378,591.6,6,5,275.3,1.055
22.09,1,-0.002,-0.007,-0.005,-0.018,-0.023,0.008,-1.6,-0.017,-0.168,21.86,95.5,40.505901,-3.358378,591.6,6,5,275.3,1.055
22.18,1,-0.03,-0.002,-0.003,-0.019,-0.006,-0.001,-1.6,-0.019,-0.167,21.86,95.5,40.505901,-3.358378,591.6,6,5,275.3,1.055
22.29,1,-0.049,-0.046,0.01,-0.032,-0.021,0.006,-1.601,-0.013,-0.165,21.86,95.5,40.505901,-3.358378,591.6,6,5,275.3,1.055
22.38,1,0.005,-0.061,0.005,-0.022,-0.045,0.001,-1.599,-0.008,-0.163,21.86,95.5,40.505901,-3.358378,591.6,6,5,275.3,1.055
22.49,1,0.044,-0.059,-0.018,0.012,-0.054,-0.0,-1.598,-0.005,-0.161,21.86,95.5,40.505901,-3.358378,591.6,6,5,275.3,1.055
22.59,1,-0.042,-0.053,-0.018,0.001,-0.056,-0.021,-1.595,-0.004,-0.159,21.86,95.5,40.505901,-3.358378,591.6,6,5,275.3,1.055
22.69,1,-0.01,-0.023,-0.002,-0.02,-0.046,-0.003,-1.596,-0.003,-0.157,21.86,95.5,40.505901,-3.358378,591.6,6,5,275.3,1.055
22.79,1,-0.002,-0.036,-0.018,-0.006,-0.027,-0.017,-1.596,-0.003,-0.154,21.86,95.5,40.505901,-3.358378,591.6,6,5,275.3,1.055
22.89,1,-0.029,-0.068,0.009,-0.023,-0.057,-0.002,-1.598,0.002,-0.151,21.86,95.5,40.505901,-3.358378,591.6,6,5,275.3,1.055
22.99,1,-0.004,-0.041,-0.017,-0.011,-0.043,-0.009,-1.599,0.008,-0.147,22.84,96.6,40.505924,-3.358699,591.5,6,5,275.6,0.703
23.1,1,0.006,-0.069,0.014,-0.003,-0.057,0.006,-1.601,0.017,-0.144,22.84,96.6,40.505924,-3.358699,591.5,6,5,275.6,0.703
23.2,1,-0.04,-0.032,-0.011,-0.014,-0.05,-0.002,-1.599,0.021,-0.14,22.84,96.6,40.505924,-3.358699,591.5,6,5,275.6,0.703
23.29,1,-0.037,-0.063,0.015,-0.029,-0.047,0.002,-1.6,0.029,-0.136,22.84,96.6,40.505924,-3.358699,591.5,6,5,275.6,0.703
23.39,1,-0.011,-0.062,0.015,-0.023,-0.06,0.012,-1.601,0.038,-0.133,22.84,96.6,40.505924,-3.358699,591.5,6,5,275.6,0.703
23.49,1,-0.016,-0.041,0.007,-0.02,-0.053,0.008,-1.602,0.042,-0.128,22.84,96.6,40.505924,-3.358699,591.5,6,5,275.6,0.703
23.59,1,0.006,-0.074,0.026,-0.007,-0.06,0.015,-1.604,0.046,-0.124,22.84,96.6,40.505924,-3.358699,591.5,6,5,275.6,0.703
23.7,1,0.017,-0.042,0.015,0.008,-0.055,0.017,-1.605,0.053,-0.12,22.84,96.6,40.505924,-3.358699,591.5,6,5,275.6,0.703
23.79,1,-0.01,-0.04,-0.003,0.002,-0.046,0.011,-1.608,0.055,-0.116,22.84,96.6,40.505924,-3.358699,591.5,6,5,275.6,0.703
23.89,1,-0.051,-0.046,0.01,-0.021,-0.041,0.004,-1.608,0.057,-0.112,22.84,96.6,40.505924,-3.358699,591.5,6,5,275.6,0.703
23.99,1,-0.026,-0.031,-0.016,-0.035,-0.043,-0.002,-1.607,0.06,-0.108,23.83,98.2,40.505943,-3.359024,591.8,4,5,275.3,0.352
24.1,1,-0.024,-0.03,-0.005,-0.026,-0.031,-0.008,-1.607,0.061,-0.104,23.83,98.2,40.505943,-3.359024,591.8,4,5,275.3,0.352
24.19,1,-0.025,-0.044,-0.0,-0.026,-0.039,-0.001,-1.608,0.065,-0.1,23.83,98.2,40.505943,-3.359024,591.8,4,5,275.3,0.352
24.29,1,-0.007,-0.031,0.005,-0.018,-0.042,0.001,-1.609,0.068,-0.095,23.83,98.2,40.505943,-3.359024,591.8,4,5,275.3,0.352
24.4,1,-0.017,-0.02,-0.01,-0.013,-0.023,-0.004,-1.609,0.068,-0.091,23.83,98.2,40.505943,-3.359024,591.8,4,5,275.3,0.352
24.49,1,-0.036,-0.03,-0.003,-0.021,-0.028,-0.004,-1.609,0.071,-0.087,23.83,98.2,40.505943,-3.359024,591.8,4,5,275.3,0.352
24.59,1,-0.066,-0.03,-0.01,-0.048,-0.03,-0.004,-1.609,0.073,-0.083,23.83,98.2,40.505943,-3.359024,591.8,4,5,275.3,0.352
24.69,1,-0.03,-0.022,0.016,-0.043,-0.024,-0.0,-1.611,0.073,-0.08,23.83,98.2,40.505943,-3.359024,591.8,4,5,275.3,0.352
24.8,1,-0.019,0.035,-0.016,-0.027,-0.004,-0.003,-1.61,0.073,-0.077,23.83,98.2,40.505943,-3.359024,591.8,4,5,275.3,0.352
24.9,1,0.021,0.005,0.02,-0.01,0.012,0.004,-1.61,0.072,-0.074,23.83,98.2,40.505943,-3.359024,591.8,4,5,275.3,0.352
24.99,1,0.047,0.019,-0.018,0.024,0.009,-0.0,-1.608,0.071,-0.071,24.81,98.2,40.505966,-3.359347,587.4,4,5,272.8,2.812
25.09,1,-0.012,0.014,-0.012,0.014,0.014,-0.01,-1.606,0.069,-0.068,24.81,98.2,40.505966,-3.359347,587.4,4,5,272.8,2.812
25.19,1,-0.003,0.02,-0.013,-0.0,0.016,-0.008,-1.605,0.069,-0.065,24.81,98.2,40.505966,-3.359347,587.4,4,5,272.8,2.812
25.29,1,-0.037,-0.011,-0.007,-0.014,0.012,-0.013,-1.604,0.069,-0.061,24.81,98.2,40.505966,-3.359347,587.4,4,5,272.8,2.812
25.4,1,0.013,0.001,-0.011,-0.012,-0.003,-0.01,-1.603,0.071,-0.058,24.81,98.2,40.505966,-3.359347,587.4,4,5,272.8,2.812
25.5,1,-0.028,-0.011,-0.03,-0.005,-0.001,-0.017,-1.601,0.07,-0.055,24.81,98.2,40.505966,-3.359347,587.4,4,5,272.8,2.812
25.61,1,-0.077,-0.042,-0.021,-0.047,-0.02,-0.025,-1.601,0.068,-0.051,24.81,98.2,40.505966,-3.359347,587.4,4,5,272.8,2.812
25.7,1,-0.046,-0.025,0.008,-0.051,-0.033,-0.005,-1.605,0.066,-0.047,24.81,98.2,40.505966,-3.359347,587.4,4,5,272.8,2.812
25.8,1,-0.006,0.04,-0.037,-0.025,0.004,-0.02,-1.603,0.062,-0.044,24.81,98.2,40.505966,-3.359347,587.4,4,5,272.8,2.812
25.91,1,-0.035,-0.028,0.009,-0.031,0.0,-0.008,-1.603,0.064,-0.041,24.81,98.2,40.505966,-3.359347,587.4,4,5,272.8,2.812
26.0,1,-0.006,0.023,-0.029,-0.028,-0.004,-0.015,-1.602,0.066,-0.038,25.88,101.8,40.50597,-3.359687,584.9,4,5,271.4,3.867
26.11,1,-0.01,0.036,-0.009,-0.011,0.026,-0.016,-1.603,0.067,-0.035,25.88,101.8,40.50597,-3.359687,584.9,4,5,271.4,3.867
26.2,1,-0.005,0.001,-0.006,-0.008,0.011,-0.009,-1.602,0.067,-0.032,25.88,101.8,40.50597,-3.359687,584.9,4,5,271.4,3.867
26.3,1,-0.026,0.014,-0.015,-0.012,0.016,-0.01,-1.599,0.066,-0.029,25.88,101.8,40.50597,-3.359687,584.9,4,5,271.4,3.867
26.4,1,-0.043,0.023,-0.023,-0.028,0.015,-0.017,-1.597,0.062,-0.027,25.88,101.8,40.50597,-3.359687,584.9,4,5,271.4,3.867
26.51,1,-0.065,0.029,-0.045,-0.049,0.022,-0.027,-1.592,0.057,-0.026,25.88,101.8,40.50597,-3.359687,584.9,4,5,271.4,3.867
26.61,1,-0.059,0.035,-0.038,-0.054,0.032,-0.037,-1.59,0.055,-0.024,25.88,101.8,40.50597,-3.359687,584.9,4,5,271.4,3.867
26.71,1,-0.029,0.026,-0.042,-0.048,0.03,-0.043,-1.587,0.056,-0.022,25.88,101.8,40.50597,-3.359687,584.9,4,5,271.4,3.867
26.81,1,-0.013,0.027,-0.029,-0.028,0.028,-0.034,-1.585,0.053,-0.02,25.88,101.8,40.50597,-3.359687,584.9,4,5,271.4,3.867
26.9,1,-0.01,0.029,-0.032,-0.019,0.025,-0.033,-1.583,0.05,-0.018,25.88,101.8,40.50597,-3.359687,584.9,4,5,271.4,3.867
27.0,1,-0.015,0.059,-0.054,-0.009,0.042,-0.038,-1.579,0.047,-0.016,26.83,100.7,40.50597,-3.360019,584.3,4,5,270.0,2.812
27.11,1,0.011,0.045,-0.013,-0.004,0.05,-0.034,-1.577,0.047,-0.015,26.83,100.7,40.50597,-3.360019,584.3,4,5,270.0,2.812
27.2,1,-0.038,-0.013,-0.075,-0.012,0.033,-0.043,-1.573,0.046,-0.013,26.83,100.7,40.50597,-3.360019,584.3,4,5,270.0,2.812
27.31,1,-0.037,0.036,-0.011,-0.037,0.019,-0.044,-1.572,0.045,-0.012,26.83,100.7,40.50597,-3.360019,584.3,4,5,270.0,2.812
27.4,1,-0.007,-0.005,-0.025,-0.022,0.01,-0.02,-1.572,0.045,-0.01,26.83,100.7,40.50597,-3.360019,584.3,4,5,270.0,2.812
27.5,1,-0.007,0.036,-0.039,-0.015,0.016,-0.037,-1.569,0.04,-0.009,26.83,100.7,40.50597,-3.360019,584.3,4,5,270.0,2.812
27.6,1,-0.059,0.02,-0.021,-0.023,0.019,-0.028,-1.568,0.036,-0.008,26.83,100.7,40.50597,-3.360019,584.3,4,5,270.0,2.812
27.71,1,-0.111,0.044,0.018,-0.071,0.03,-0.01,-1.569,0.03,-0.007,26.83,100.7,40.50597,-3.360019,584.3,4,5,270.0,2.812
27.81,1,-0.09,0.03,0.008,-0.088,0.035,0.009,-1.572,0.026,-0.005,26.83,100.7,40.50597,-3.360019,584.3,4,5,270.0,2.812
27.9,1,0.002,-0.01,0.021,-0.059,0.012,0.009,-1.574,0.027,-0.003,26.83,100.7,40.50597,-3.360019,584.3,4,5,270.0,2.812
28.0,1,0.078,0.004,0.008,0.014,0.014,0.017,-1.576,0.026,-0.002,27.86,100.8,40.505966,-3.360353,582.7,4,5,268.2,3.164
28.1,1,0.006,-0.03,-0.008,0.033,-0.01,-0.001,-1.575,0.027,0.001,27.86,100.8,40.505966,-3.360353,582.7,4,5,268.2,3.164
28.2,1,-0.03,-0.045,0.027,0.0,-0.036,0.013,-1.578,0.03,0.005,27.86,100.8,40.505966,-3.360353,582.7,4,5,268.2,3.164
28.31,1,-0.036,-0.057,0.011,-0.023,-0.046,0.015,-1.578,0.034,0.01,27.86,100.8,40.505966,-3.360353,582.7,4,5,268.2,3.164
28.41,1,-0.028,-0.074,0.016,-0.028,-0.055,0.013,-1.578,0.039,0.014,27.86,100.8,40.505966,-3.360353,582.7,4,5,268.2,3.164
28.52,1,-0.015,-0.037,-0.006,-0.025,-0.055,0.007,-1.579,0.042,0.017,27.86,100.8,40.505966,-3.360353,582.7,4,5,268.2,3.164
28.61,1,-0.005,-0.014,-0.001,-0.012,-0.034,-0.001,-1.58,0.042,0.02,27.86,100.8,40.505966,-3.360353,582.7,4,5,268.2,3.164
28.71,1,-0.019,-0.015,0.013,-0.013,-0.02,0.004,-1.581,0.042,0.023,27.86,100.8,40.505966,-3.360353,582.7,4,5,268.2,3.164
28.81,1,-0.002,-0.014,0.014,-0.013,-0.018,0.011,-1.582,0.043,0.026,27.86,100.8,40.505966,-3.360353,582.7,4,5,268.2,3.164
28.91,1,0.035,-0.024,0.012,0.011,-0.018,0.016,-1.583,0.042,0.029,27.86,100.8,40.505966,-3.360353,582.7,4,5,268.2,3.164
29.01,1,-0.004,0.019,-0.024,0.013,-0.003,-0.004,-1.582,0.041,0.031,28.85,99.8,40.505959,-3.360683,581.5,4,5,267.2,2.812
29.11,1,0.001,-0.033,0.052,0.002,-0.015,0.012,-1.584,0.039,0.034,28.85,99.8,40.505959,-3.360683,581.5,4,5,267.2,2.812
29.21,1,-0.003,0.064,-0.017,0.005,0.014,0.012,-1.584,0.033,0.037,28.85,99.8,40.505959,-3.360683,581.5,4,5,267.2,2.812
29.31,1,-0.058,0.028,0.011,-0.027,0.033,0.002,-1.584,0.03,0.039,28.85,99.8,40.505959,-3.360683,581.5,4,5,267.2,2.812
29.41,1,-0.001,0.021,0.005,-0.029,0.025,0.01,-1.585,0.032,0.042,28.85,99.8,40.505959,-3.360683,581.5,4,5,267.2,2.812
29.52,1,0.018,0.01,-0.003,-0.001,0.021,0.001,-1.584,0.031,0.045,28.85,99.8,40.505959,-3.360683,581.5,4,5,267.2,2.812
29.61,1,-0.002,-0.052,0.023,0.006,-0.012,0.01,-1.584,0.031,0.048,28.85,99.8,40.505959,-3.360683,581.5,4,5,267.2,2.812
29.71,1,0.006,-0.021,0.025,0.002,-0.027,0.021,-1.583,0.03,0.05,28.85,99.8,40.505959,-3.360683,581.5,4,5,267.2,2.812
29.81,1,-0.052,-0.006,0.006,-0.012,-0.012,0.012,-1.584,0.024,0.052,28.85,99.8,40.505959,-3.360683,581.5,4,5,267.2,2.812
30.01,1,-0.013,0.002,0.011,-0.023,-0.004,0.008,-1.587,0.018,0.057,28.85,99.8,40.505959,-3.360683,581.5,4,5,267.2,2.812
30.12,1,0.004,-0.004,0.004,-0.012,-0.008,0.012,-1.587,0.02,0.059,29.87,99.6,40.505939,-3.361017,582.0,4,5,266.1,2.109
30.21,1,0.019,0.011,0.008,0.008,0.006,0.005,-1.585,0.02,0.062,29.87,99.6,40.505939,-3.361017,582.0,4,5,266.1,2.109
30.32,1,0.032,0.013,0.011,0.022,0.006,0.013,-1.587,0.019,0.064,29.87,99.6,40.505939,-3.361017,582.0,4,5,266.1,2.109
30.41,1,0.011,-0.004,-0.021,0.029,-0.004,-0.003,-1.587,0.016,0.066,29.87,99.6,40.505939,-3.361017,582.0,4,5,266.1,2.109
30.51,1,-0.097,0.008,0.005,-0.029,0.006,-0.007,-1.585,0.016,0.069,29.87,99.6,40.505939,-3.361017,582.0,4,5,266.1,2.109
30.61,1,-0.005,0.025,0.025,-0.051,0.021,0.01,-1.585,0.015,0.071,29.87,99.6,40.505939,-3.361017,582.0,4,5,266.1,2.109
30.71,1,-0.043,0.04,0.007,-0.013,0.035,0.018,-1.585,0.014,0.073,29.87,99.6,40.505939,-3.361017,582.0,4,5,266.1,2.109
30.81,1,-0.045,-0.036,0.027,-0.061,-0.001,0.013,-1.585,0.015,0.075,29.87,99.6,40.505939,-3.361017,582.0,4,5,266.1,2.109
30.92,1,0.077,0.03,-0.015,0.011,0.002,0.007,-1.585,0.019,0.077,29.87,99.6,40.505939,-3.361017,582.0,4,5,266.1,2.109
31.01,1,0.009,0.0,0.021,0.027,0.014,0.008,-1.585,0.02,0.078,29.87,99.6,40.505939,-3.361017,582.0,4,5,266.1,2.109
31.12,1,-0.01,0.012,0.005,0.003,0.006,0.009,-1.585,0.02,0.08,30.84,99.7,40.505913,-3.361342,581.7,4,5,264.0,3.164
31.22,1,-0.03,0.024,0.003,-0.01,0.019,0.006,-1.586,0.017,0.082,30.84,99.7,40.505913,-3.361342,581.7,4,5,264.0,3.164
31.32,1,-0.043,-0.003,-0.003,-0.032,0.01,0.0,-1.586,0.016,0.084,30.84,99.7,40.505913,-3.361342,581.7,4,5,264.0,3.164
31.42,1,-0.019,0.015,0.014,-0.028,0.009,0.004,-1.587,0.015,0.085,30.84,99.7,40.505913,-3.361342,581.7,4,5,264.0,3.164
31.52,1,0.021,0.023,0.012,-0.007,0.014,0.01,-1.588,0.013,0.087,30.84,99.7,40.505913,-3.361342,581.7,4,5,264.0,3.164
31.62,1,0.024,0.021,0.001,0.014,0.021,0.008,-1.588,0.013,0.089,30.84,99.7,40.505913,-3.361342,581.7,4,5,264.0,3.164
31.72,1,0.012,0.004,0.005,0.015,0.013,0.006,-1.587,0.016,0.091,30.84,99.7,40.505913,-3.361342,581.7,4,5,264.0,3.164
31.82,1,-0.039,-0.004,0.035,-0.0,0.003,0.018,-1.588,0.016,0.092,30.84,99.7,40.505913,-3.361342,581.7,4,5,264.0,3.164
31.93,1,-0.005,-0.004,0.015,-0.02,0.0,0.021,-1.589,0.015,0.095,30.84,99.7,40.505913,-3.361342,581.7,4,5,264.0,3.164
32.02,1,0.036,0.003,-0.031,0.005,-0.0,-0.001,-1.587,0.013,0.096,30.84,99.7,40.505913,-3.361342,581.7,4,5,264.0,3.164
32.13,1,-0.044,0.028,-0.012,-0.002,0.013,-0.015,-1.584,0.009,0.098,31.84,99.9,40.505882,-3.361666,581.1,4,5,262.6,3.516
32.22,1,-0.072,0.012,0.003,-0.045,0.01,-0.005,-1.587,0.006,0.1,31.84,99.9,40.505882,-3.361666,581.1,4,5,262.6,3.516
32.32,1,0.024,0.01,0.016,-0.019,0.011,0.001,-1.587,0.007,0.102,31.84,99.9,40.505882,-3.361666,581.1,4,5,262.6,3.516
32.42,1,0.014,-0.026,-0.007,-0.0,0.004,0.005,-1.585,0.016,0.105,31.84,99.9,40.505882,-3.361666,581.1,4,5,262.6,3.516
32.53,1,-0.034,-0.047,-0.008,-0.002,-0.028,-0.003,-1.585,0.02,0.109,31.84,99.9,40.505882,-3.361666,581.1,4,5,262.6,3.516
32.63,1,-0.033,-0.06,0.036,-0.026,-0.046,0.01,-1.588,0.024,0.113,31.84,99.9,40.505882,-3.361666,581.1,4,5,262.6,3.516
32.72,1,0.03,-0.059,-0.019,-0.007,-0.056,0.009,-1.588,0.028,0.117,31.84,99.9,40.505882,-3.361666,581.1,4,5,262.6,3.516
32.82,1,-0.038,-0.068,-0.013,-0.004,-0.059,-0.008,-1.586,0.03,0.121,31.84,99.9,40.505882,-3.361666,581.1,4,5,262.6,3.516
32.92,1,-0.055,-0.059,0.004,-0.037,-0.057,-0.008,-1.587,0.029,0.125,31.84,99.9,40.505882,-3.361666,581.1,4,5,262.6,3.516
33.02,1,-0.001,-0.056,0.024,-0.03,-0.059,0.014,-1.591,0.031,0.129,31.84,99.9,40.505882,-3.361666,581.1,4,5,262.6,3.516
33.13,1,0.076,-0.02,0.013,0.021,-0.044,0.013,-1.592,0.035,0.133,32.84,100.1,40.505844,-3.361984,581.6,4,5,261.2,2.812
33.22,1,0.021,-0.022,-0.033,0.043,-0.029,-0.006,-1.591,0.036,0.137,32.84,100.1,40.505844,-3.361984,581.6,4,5,261.2,2.812
33.33,1,-0.037,-0.059,0.002,-0.005,-0.042,-0.011,-1.592,0.04,0.141,32.84,100.1,40.505844,-3.361984,581.6,4,5,261.2,2.812
33.42,1,-0.016,-0.04,0.004,-0.017,-0.048,0.0,-1.592,0.045,0.145,32.84,100.1,40.505844,-3.361984,581.6,4,5,261.2,2.812
33.52,1,0.004,-0.038,-0.014,-0.01,-0.04,-0.007,-1.591,0.048,0.149,32.84,100.1,40.505844,-3.361984,581.6,4,5,261.2,2.812
33.62,1,-0.007,-0.027,-0.02,-0.006,-0.033,-0.01,-1.591,0.05,0.153,32.84,100.1,40.505844,-3.361984,581.6,4,5,261.2,2.812
33.73,1,-0.009,-0.017,-0.006,-0.006,-0.027,-0.013,-1.592,0.051,0.157,32.84,100.1,40.505844,-3.361984,581.6,4,5,261.2,2.812
33.82,1,0.011,-0.033,-0.007,0.002,-0.025,-0.008,-1.591,0.052,0.161,32.84,100.1,40.505844,-3.361984,581.6,4,5,261.2,2.812
33.93,1,-0.003,-0.002,-0.002,0.004,-0.018,-0.004,-1.591,0.052,0.164,32.84,100.1,40.505844,-3.361984,581.6,4,5,261.2,2.812
34.02,1,-0.006,0.024,0.005,-0.008,0.003,-0.001,-1.592,0.049,0.167,32.84,100.1,40.505844,-3.361984,581.6,4,5,261.2,2.812
34.12,1,-0.009,-0.004,0.018,-0.011,0.007,0.01,-1.591,0.046,0.169,33.88,99.9,40.505802,-3.362305,582.6,6,5,259.5,3.164
34.23,1,-0.006,0.013,0.009,-0.005,0.002,0.009,-1.592,0.044,0.171,33.88,99.9,40.505802,-3.362305,582.6,6,5,259.5,3.164
34.33,1,-0.027,0.031,0.007,-0.009,0.018,0.007,-1.594,0.042,0.173,33.88,99.9,40.505802,-3.362305,582.6,6,5,259.5,3.164
34.43,1,-0.012,0.05,0.009,-0.017,0.034,0.008,-1.595,0.039,0.175,33.88,99.9,40.505802,-3.362305,582.6,6,5,259.5,3.164
34.54,1,-0.026,0.023,-0.023,-0.018,0.039,-0.003,-1.594,0.037,0.177,33.88,99.9,40.505802,-3.362305,582.6,6,5,259.5,3.164
34.63,1,-0.031,-0.015,-0.017,-0.026,0.013,-0.014,-1.593,0.037,0.179,33.88,99.9,40.505802,-3.362305,582.6,6,5,259.5,3.164
34.73,1,-0.008,0.022,0.012,-0.017,0.01,-0.006,-1.594,0.034,0.181,33.88,99.9,40.505802,-3.362305,582.6,6,5,259.5,3.164
34.83,1,0.013,0.025,-0.004,0.0,0.015,0.002,-1.593,0.032,0.182,33.88,99.9,40.505802,-3.362305,582.6,6,5,259.5,3.164
34.93,1,-0.005,0.005,-0.008,0.002,0.01,-0.003,-1.593,0.029,0.184,33.88,99.9,40.505802,-3.362305,582.6,6,5,259.5,3.164
35.03,1,-0.047,0.039,0.006,-0.025,0.023,-0.002,-1.594,0.025,0.185,33.88,99.9,40.505802,-3.362305,582.6,6,5,259.5,3.164
35.13,1,0.002,0.024,-0.001,-0.019,0.027,0.004,-1.594,0.021,0.186,34.83,100.3,40.505749,-3.362632,582.7,6,5,257.0,4.219
35.23,1,0.001,0.047,-0.011,-0.009,0.036,-0.007,-1.592,0.017,0.186,34.83,100.3,40.505749,-3.362632,582.7,6,5,257.0,4.219
35.33,1,0.002,0.05,0.008,0.0,0.043,-0.003,-1.59,0.013,0.186,34.83,100.3,40.505749,-3.362632,582.7,6,5,257.0,4.219
35.43,1,-0.049,0.054,-0.027,-0.02,0.047,-0.009,-1.589,0.006,0.186,34.83,100.3,40.505749,-3.362632,582.7,6,5,257.0,4.219
35.53,1,-0.013,0.029,-0.004,-0.023,0.043,-0.014,-1.587,0.003,0.186,34.83,100.3,40.505749,-3.362632,582.7,6,5,257.0,4.219
35.63,1,-0.015,0.043,0.001,-0.018,0.04,-0.003,-1.586,-0.001,0.186,34.83,100.3,40.505749,-3.362632,582.7,6,5,257.0,4.219
35.74,1,-0.032,0.022,0.008,-0.024,0.034,-0.0,-1.587,-0.003,0.187,34.83,100.3,40.505749,-3.362632,582.7,6,5,257.0,4.219
35.83,1,-0.038,0.043,0.001,-0.028,0.03,0.007,-1.587,-0.006,0.186,34.83,100.3,40.505749,-3.362632,582.7,6,5,257.0,4.219
35.93,1,-0.031,0.082,-0.006,-0.032,0.056,-0.006,-1.588,-0.012,0.186,34.83,100.3,40.505749,-3.362632,582.7,6,5,257.0,4.219
36.03,1,-0.003,0.009,0.013,-0.024,0.047,0.008,-1.589,-0.015,0.186,34.83,100.3,40.505749,-3.362632,582.7,6,5,257.0,4.219
36.13,1,0.036,0.013,0.005,0.002,0.022,0.007,-1.59,-0.017,0.186,35.82,100.8,40.50568,-3.362952,583.0,6,5,254.9,4.57
36.23,1,0.051,0.034,-0.018,0.035,0.027,-0.006,-1.588,-0.016,0.186,35.82,100.8,40.50568,-3.362952,583.0,6,5,254.9,4.57
36.34,1,-0.031,0.009,0.004,0.014,0.022,-0.002,-1.588,-0.013,0.186,35.82,100.8,40.50568,-3.362952,583.0,6,5,254.9,4.57
36.43,1,-0.061,0.026,0.005,-0.025,0.022,0.001,-1.59,-0.013,0.186,35.82,100.8,40.50568,-3.362952,583.0,6,5,254.9,4.57
36.53,1,-0.021,0.001,0.014,-0.04,0.013,0.008,-1.591,-0.012,0.187,35.82,100.8,40.50568,-3.362952,583.0,6,5,254.9,4.57
36.63,1,0.014,0.013,0.009,-0.013,0.007,0.011,-1.591,-0.01,0.188,35.82,100.8,40.50568,-3.362952,583.0,6,5,254.9,4.57
36.73,1,0.013,-0.005,0.013,0.008,0.004,0.01,-1.592,-0.009,0.189,35.82,100.8,40.50568,-3.362952,583.0,6,5,254.9,4.57
36.83,1,-0.022,-0.001,-0.01,-0.004,0.002,0.004,-1.592,-0.008,0.19,35.82,100.8,40.50568,-3.362952,583.0,6,5,254.9,4.57
36.94,1,0.048,0.016,0.013,0.01,0.004,0.004,-1.591,-0.009,0.191,35.82,100.8,40.50568,-3.362952,583.0,6,5,254.9,4.57
37.03,1,0.011,0.016,0.004,0.027,0.016,0.005,-1.591,-0.008,0.192,35.82,100.8,40.50568,-3.362952,583.0,6,5,254.9,4.57
37.14,1,-0.024,-0.016,0.002,-0.001,-0.004,0.005,-1.59,-0.005,0.193,36.82,100.7,40.505604,-3.363269,584.3,6,5,253.5,3.516
37.24,1,-0.01,0.003,0.007,-0.01,-0.004,0.005,-1.589,-0.005,0.194,36.82,100.7,40.505604,-3.363269,584.3,6,5,253.5,3.516
37.34,1,-0.025,-0.001,0.01,-0.019,0.002,0.005,-1.589,-0.004,0.195,36.82,100.7,40.505604,-3.363269,584.3,6,5,253.5,3.516
37.44,1,0.012,0.012,0.008,-0.006,0.008,0.008,-1.588,-0.005,0.196,36.82,100.7,40.505604,-3.363269,584.3,6,5,253.5,3.516
37.54,1,-0.032,-0.006,0.012,-0.013,0.002,0.006,-1.589,-0.004,0.196,36.82,100.7,40.505604,-3.363269,584.3,6,5,253.5,3.516
37.64,1,0.009,0.017,0.018,-0.01,0.008,0.015,-1.591,-0.002,0.197,36.82,100.7,40.505604,-3.363269,584.3,6,5,253.5,3.516
37.74,1,0.014,0.006,0.019,0.007,0.01,0.017,-1.591,-0.0,0.198,36.82,100.7,40.505604,-3.363269,584.3,6,5,253.5,3.516
37.84,1,-0.044,-0.021,0.002,-0.012,-0.003,0.009,-1.592,-0.001,0.198,36.82,100.7,40.505604,-3.363269,584.3,6,5,253.5,3.516
37.94,1,-0.048,-0.02,0.01,-0.042,-0.02,0.01,-1.593,-0.001,0.2,36.82,100.7,40.505604,-3.363269,584.3,6,5,253.5,3.516
38.04,1,0.018,-0.047,0.001,-0.019,-0.024,0.008,-1.593,0.002,0.201,36.82,100.7,40.505604,-3.363269,584.3,6,5,253.5,3.516
38.15,1,0.01,-0.066,0.003,0.008,-0.047,0.004,-1.593,0.008,0.205,37.82,101.6,40.505527,-3.363596,584.4,6,5,252.8,2.109
38.24,1,-0.008,-0.109,-0.006,-0.0,-0.079,0.001,-1.592,0.017,0.21,37.82,101.6,40.505527,-3.363596,584.4,6,5,252.8,2.109
38.34,1,0.031,-0.075,0.006,0.013,-0.083,-0.0,-1.592,0.026,0.216,37.82,101.6,40.505527,-3.363596,584.4,6,5,252.8,2.109
38.44,1,-0.009,-0.071,-0.005,0.011,-0.078,0.0,-1.593,0.031,0.22,37.82,101.6,40.505527,-3.363596,584.4,6,5,252.8,2.109
38.54,1,-0.018,-0.041,0.004,-0.012,-0.064,-0.0,-1.592,0.035,0.224,37.82,101.6,40.505527,-3.363596,584.4,6,5,252.8,2.109
38.64,1,-0.002,-0.041,-0.009,-0.006,-0.045,-0.001,-1.591,0.038,0.227,37.82,101.6,40.505527,-3.363596,584.4,6,5,252.8,2.109
38.75,1,-0.012,-0.03,0.014,-0.01,-0.042,0.001,-1.591,0.041,0.23,37.82,101.6,40.505527,-3.363596,584.4,6,5,252.8,2.109
38.84,1,0.005,-0.011,0.005,-0.004,-0.025,0.007,-1.591,0.042,0.233,37.82,101.6,40.505527,-3.363596,584.4,6,5,252.8,2.109
38.94,1,-0.003,-0.008,0.018,0.002,-0.015,0.008,-1.591,0.041,0.236,37.82,101.6,40.505527,-3.363596,584.4,6,5,252.8,2.109
39.04,1,0.013,0.014,0.002,-0.001,-0.004,0.01,-1.591,0.043,0.238,37.82,101.6,40.505527,-3.363596,584.4,6,5,252.8,2.109
39.15,1,0.01,0.027,-0.011,0.014,0.017,-0.002,-1.589,0.042,0.24,38.83,102.3,40.505444,-3.363924,585.2,6,5,251.4,2.109
39.24,1,-0.044,-0.007,0.016,-0.006,0.007,0.003,-1.589,0.044,0.243,38.83,102.3,40.505444,-3.363924,585.2,6,5,251.4,2.109
39.35,1,-0.057,0.001,0.014,-0.043,-0.003,0.011,-1.592,0.043,0.245,38.83,102.3,40.505444,-3.363924,585.2,6,5,251.4,2.109
39.44,1,-0.025,0.03,0.011,-0.036,0.016,0.013,-1.592,0.041,0.246,38.83,102.3,40.505444,-3.363924,585.2,6,5,251.4,2.109
39.54,1,0.002,0.022,0.014,-0.019,0.024,0.01,-1.592,0.04,0.247,38.83,102.3,40.505444,-3.363924,585.2,6,5,251.4,2.109
39.64,1,0.034,0.037,-0.003,0.006,0.025,0.009,-1.593,0.038,0.248,38.83,102.3,40.505444,-3.363924,585.2,6,5,251.4,2.109
39.74,1,-0.039,0.039,-0.008,-0.003,0.034,0.003,-1.593,0.036,0.249,38.83,102.3,40.505444,-3.363924,585.2,6,5,251.4,2.109
39.96,1,0.001,0.005,-0.008,-0.012,0.01,-0.007,-1.593,0.035,0.252,38.83,102.3,40.505444,-3.363924,585.2,6,5,251.4,2.109
40.05,1,0.008,0.054,0.009,-0.005,0.029,-0.0,-1.592,0.033,0.253,38.83,102.3,40.505444,-3.363924,585.2,6,5,251.4,2.109
40.15,1,0.007,0.044,0.009,-0.0,0.039,0.009,-1.593,0.03,0.254,38.83,102.3,40.505444,-3.363924,585.2,6,5,251.4,2.109
40.25,1,-0.001,0.028,0.003,0.007,0.035,0.005,-1.592,0.027,0.255,39.82,102.8,40.505344,-3.364238,585.4,4,5,248.9,3.867
40.35,1,-0.062,0.024,-0.005,-0.027,0.028,-0.001,-1.592,0.027,0.255,39.82,102.8,40.505344,-3.364238,585.4,4,5,248.9,3.867
40.45,1,-0.048,0.031,0.005,-0.047,0.028,0.001,-1.592,0.025,0.256,39.82,102.8,40.505344,-3.364238,585.4,4,5,248.9,3.867
40.56,1,0.017,0.057,0.011,-0.017,0.042,0.008,-1.592,0.019,0.256,39.82,102.8,40.505344,-3.364238,585.4,4,5,248.9,3.867
40.65,1,-0.001,0.048,-0.006,0.002,0.051,-0.001,-1.592,0.017,0.256,39.82,102.8,40.505344,-3.364238,585.4,4,5,248.9,3.867
40.75,1,-0.003,0.015,0.015,-0.004,0.033,0.005,-1.592,0.019,0.256,39.82,102.8,40.505344,-3.364238,585.4,4,5,248.9,3.867
40.85,1,0.033,0.027,-0.004,0.014,0.027,0.009,-1.594,0.019,0.257,39.82,102.8,40.505344,-3.364238,585.4,4,5,248.9,3.867
40.95,1,-0.006,0.029,0.009,0.006,0.026,0.003,-1.593,0.019,0.257,39.82,102.8,40.505344,-3.364238,585.4,4,5,248.9,3.867
41.05,1,-0.048,0.042,0.004,-0.019,0.036,0.002,-1.593,0.018,0.257,39.82,102.8,40.505344,-3.364238,585.4,4,5,248.9,3.867
41.16,1,-0.02,0.034,0.016,-0.028,0.036,0.011,-1.594,0.016,0.257,39.82,102.8,40.505344,-3.364238,585.4,4,5,248.9,3.867
41.25,1,0.026,0.025,-0.015,-0.005,0.031,-0.0,-1.593,0.015,0.257,40.82,103.8,40.505241,-3.364546,586.8,4,5,246.4,4.922
41.35,1,0.013,0.029,-0.009,0.012,0.028,-0.007,-1.592,0.012,0.257,40.82,103.8,40.505241,-3.364546,586.8,4,5,246.4,4.922
41.45,1,0.0,0.03,-0.005,0.011,0.03,-0.007,-1.591,0.01,0.257,40.82,103.8,40.505241,-3.364546,586.8,4,5,246.4,4.922
41.55,1,-0.02,0.03,-0.008,-0.004,0.031,-0.005,-1.591,0.009,0.257,40.82,103.8,40.505241,-3.364546,586.8,4,5,246.4,4.922
41.65,1,-0.045,0.022,-0.014,-0.03,0.027,-0.01,-1.591,0.007,0.257,40.82,103.8,40.505241,-3.364546,586.8,4,5,246.4,4.922
41.76,1,-0.022,0.032,0.014,-0.031,0.026,-0.002,-1.592,0.006,0.257,40.82,103.8,40.505241,-3.364546,586.8,4,5,246.4,4.922
41.85,1,0.008,0.018,-0.011,-0.01,0.027,0.0,-1.591,0.003,0.257,40.82,103.8,40.505241,-3.364546,586.8,4,5,246.4,4.922
41.95,1,0.015,0.014,-0.017,0.006,0.018,-0.011,-1.59,0.002,0.257,40.82,103.8,40.505241,-3.364546,586.8,4,5,246.4,4.922
42.05,1,-0.022,-0.017,0.001,-0.001,0.002,-0.007,-1.589,0.003,0.257,40.82,103.8,40.505241,-3.364546,586.8,4,5,246.4,4.922
42.15,1,0.012,0.028,-0.019,-0.004,0.007,-0.008,-1.588,0.004,0.257,40.82,103.8,40.505241,-3.364546,586.8,4,5,246.4,4.922
42.25,1,-0.001,0.024,-0.017,0.004,0.021,-0.018,-1.586,0.002,0.257,41.82,104.6,40.505131,-3.364869,587.7,4,5,245.0,3.867
42.36,1,-0.022,0.002,-0.003,-0.009,0.012,-0.008,-1.584,0.003,0.257,41.82,104.6,40.505131,-3.364869,587.7,4,5,245.0,3.867
42.46,1,-0.032,0.023,0.001,-0.02,0.014,-0.008,-1.584,0.001,0.257,41.82,104.6,40.505131,-3.364869,587.7,4,5,245.0,3.867
42.55,1,-0.01,0.008,0.02,-0.024,0.017,0.009,-1.585,0.002,0.257,41.82,104.6,40.505131,-3.364869,587.7,4,5,245.0,3.867
42.66,1,0.023,0.002,-0.008,-0.001,0.005,0.004,-1.584,0.002,0.257,41.82,104.6,40.505131,-3.364869,587.7,4,5,245.0,3.867
42.76,1,0.003,0.032,-0.023,0.006,0.019,-0.009,-1.582,0.004,0.257,41.82,104.6,40.505131,-3.364869,587.7,4,5,245.0,3.867
42.85,1,-0.006,-0.005,0.01,0.003,0.008,-0.009,-1.58,0.002,0.256,41.82,104.6,40.505131,-3.364869,587.7,4,5,245.0,3.867
42.96,1,-0.013,0.032,-0.007,-0.006,0.015,-0.001,-1.58,0.0,0.256,41.82,104.6,40.505131,-3.364869,587.7,4,5,245.0,3.867
43.06,1,-0.027,0.035,-0.02,-0.017,0.026,-0.01,-1.579,-0.003,0.256,41.82,104.6,40.505131,-3.364869,587.7,4,5,245.0,3.867
43.16,1,0.019,0.005,0.037,-0.013,0.024,0.004,-1.579,-0.003,0.256,41.82,104.6,40.505131,-3.364869,587.7,4,5,245.0,3.867
43.26,1,0.027,0.002,-0.028,0.016,0.008,0.007,-1.578,-0.001,0.256,42.85,105.4,40.505013,-3.365184,588.3,4,5,243.6,2.812
43.36,1,0.003,-0.0,-0.005,0.017,0.005,-0.014,-1.577,-0.001,0.256,42.85,105.4,40.505013,-3.365184,588.3,4,5,243.6,2.812
43.46,1,-0.056,-0.018,-0.01,-0.014,-0.008,-0.006,-1.577,-0.002,0.256,42.85,105.4,40.505013,-3.365184,588.3,4,5,243.6,2.812
43.57,1,-0.026,0.023,0.003,-0.033,0.005,-0.005,-1.578,-0.003,0.256,42.85,105.4,40.505013,-3.365184,588.3,4,5,243.6,2.812
43.67,1,0.006,0.024,0.003,-0.009,0.017,0.001,-1.577,-0.003,0.256,42.85,105.4,40.505013,-3.365184,588.3,4,5,243.6,2.812
43.76,1,0.001,0.001,0.002,-0.012,0.009,0.0,-1.576,0.001,0.256,42.85,105.4,40.505013,-3.365184,588.3,4,5,243.6,2.812
43.86,1,0.02,-0.002,0.022,-0.001,0.0,0.009,-1.576,0.005,0.256,42.85,105.4,40.505013,-3.365184,588.3,4,5,243.6,2.812
43.96,1,0.002,0.009,-0.011,0.02,0.01,0.007,-1.576,0.006,0.256,42.85,105.4,40.505013,-3.365184,588.3,4,5,243.6,2.812
44.06,1,-0.046,-0.017,0.008,-0.015,-0.005,-0.001,-1.576,0.008,0.256,42.85,105.4,40.505013,-3.365184,588.3,4,5,243.6,2.812
44.17,1,0.015,0.027,0.004,-0.013,0.01,0.004,-1.576,0.009,0.256,42.85,105.4,40.505013,-3.365184,588.3,4,5,243.6,2.812
44.26,1,-0.02,0.01,-0.0,-0.01,0.016,0.002,-1.576,0.011,0.257,43.82,105.7,40.504887,-3.365495,588.7,4,5,242.6,2.461
44.36,1,-0.02,0.007,-0.007,-0.013,0.003,0.001,-1.575,0.015,0.257,43.82,105.7,40.504887,-3.365495,588.7,4,5,242.6,2.461
44.46,1,-0.029,0.026,0.004,-0.02,0.017,-0.006,-1.574,0.016,0.257,43.82,105.7,40.504887,-3.365495,588.7,4,5,242.6,2.461
44.56,1,-0.014,0.003,0.003,-0.028,0.011,0.004,-1.576,0.019,0.257,43.82,105.7,40.504887,-3.365495,588.7,4,5,242.6,2.461
44.66,1,0.027,0.027,0.003,-0.004,0.012,0.001,-1.575,0.021,0.257,43.82,105.7,40.504887,-3.365495,588.7,4,5,242.6,2.461
44.76,1,0.013,0.008,0.009,0.018,0.021,0.006,-1.575,0.022,0.257,43.82,105.7,40.504887,-3.365495,588.7,4,5,242.6,2.461
44.86,1,0.005,-0.033,0.016,0.014,-0.003,0.009,-1.575,0.027,0.258,43.82,105.7,40.504887,-3.365495,588.7,4,5,242.6,2.461
44.96,1,-0.015,-0.022,-0.008,-0.0,-0.019,0.008,-1.575,0.03,0.258,43.82,105.7,40.504887,-3.365495,588.7,4,5,242.6,2.461
45.06,1,-0.015,0.003,-0.015,-0.008,-0.008,-0.008,-1.574,0.031,0.259,43.82,105.7,40.504887,-3.365495,588.7,4,5,242.6,2.461
45.16,1,-0.04,-0.023,0.011,-0.033,-0.021,-0.002,-1.575,0.036,0.259,43.82,105.7,40.504887,-3.365495,588.7,4,5,242.6,2.461
45.26,1,0.008,-0.003,0.018,-0.016,-0.009,0.012,-1.576,0.038,0.26,44.83,106.1,40.504765,-3.365789,589.0,6,5,241.5,2.109
45.36,1,0.007,0.002,-0.007,-0.001,-0.002,0.004,-1.576,0.04,0.261,44.83,106.1,40.504765,-3.365789,589.0,6,5,241.5,2.109
45.46,1,0.017,0.006,0.011,0.011,0.002,0.005,-1.575,0.041,0.262,44.83,106.1,40.504765,-3.365789,589.0,6,5,241.5,2.109
45.56,1,-0.003,-0.031,0.003,0.012,-0.005,0.003,-1.575,0.041,0.262,44.83,106.1,40.504765,-3.365789,589.0,6,5,241.5,2.109
45.66,1,-0.031,-0.009,0.018,-0.015,-0.016,0.013,-1.577,0.043,0.263,44.83,106.1,40.504765,-3.365789,589.0,6,5,241.5,2.109
45.76,1,-0.022,0.002,-0.008,-0.021,-0.007,0.004,-1.577,0.046,0.264,44.83,106.1,40.504765,-3.365789,589.0,6,5,241.5,2.109
45.86,1,-0.005,0.026,0.006,-0.006,0.01,-0.001,-1.578,0.047,0.264,44.83,106.1,40.504765,-3.365789,589.0,6,5,241.5,2.109
45.98,1,0.014,-0.005,-0.003,-0.004,0.004,0.004,-1.578,0.049,0.264,44.83,106.1,40.504765,-3.365789,589.0,6,5,241.5,2.109
46.08,1,-0.009,0.014,-0.005,-0.0,0.006,-0.004,-1.577,0.049,0.264,44.83,106.1,40.504765,-3.365789,589.0,6,5,241.5,2.109
46.17,1,-0.033,0.008,0.006,-0.017,0.012,0.002,-1.578,0.05,0.264,44.83,106.1,40.504765,-3.365789,589.0,6,5,241.5,2.109
46.27,1,0.003,0.01,0.023,-0.017,0.005,0.011,-1.578,0.05,0.263,45.82,106.4,40.504631,-3.366088,588.6,6,5,239.8,2.812
46.37,1,0.032,0.032,-0.002,0.011,0.019,0.007,-1.577,0.051,0.262,45.82,106.4,40.504631,-3.366088,588.6,6,5,239.8,2.812
46.47,1,-0.024,0.038,0.007,0.004,0.029,0.008,-1.578,0.051,0.262,45.82,106.4,40.504631,-3.366088,588.6,6,5,239.8,2.812
46.57,1,-0.017,0.057,0.012,-0.015,0.048,0.006,-1.578,0.049,0.261,45.82,106.4,40.504631,-3.366088,588.6,6,5,239.8,2.812
46.67,1,0.001,0.013,-0.006,-0.002,0.036,0.008,-1.578,0.051,0.26,45.82,106.4,40.504631,-3.366088,588.6,6,5,239.8,2.812
46.77,1,-0.051,-0.01,-0.038,-0.016,0.01,-0.019,-1.573,0.053,0.259,45.82,106.4,40.504631,-3.366088,588.6,6,5,239.8,2.812
46.87,1,-0.011,0.019,-0.013,-0.036,0.01,-0.017,-1.573,0.054,0.258,45.82,106.4,40.504631,-3.366088,588.6,6,5,239.8,2.812
46.98,1,0.039,0.069,-0.029,0.005,0.033,-0.022,-1.57,0.051,0.257,45.82,106.4,40.504631,-3.366088,588.6,6,5,239.8,2.812
47.07,1,-0.003,0.058,-0.027,0.015,0.056,-0.029,-1.567,0.051,0.255,45.82,106.4,40.504631,-3.366088,588.6,6,5,239.8,2.812
47.18,1,0.003,0.028,-0.025,0.0,0.043,-0.027,-1.565,0.052,0.253,45.82,106.4,40.504631,-3.366088,588.6,6,5,239.8,2.812
47.28,1,0.022,0.045,-0.018,0.007,0.038,-0.021,-1.564,0.053,0.251,46.85,107.5,40.504482,-3.366389,588.1,6,5,238.4,3.164
47.37,1,-0.018,0.015,-0.032,0.009,0.035,-0.025,-1.562,0.05,0.249,46.85,107.5,40.504482,-3.366389,588.1,6,5,238.4,3.164
47.47,1,-0.007,0.047,-0.031,-0.011,0.032,-0.031,-1.559,0.049,0.247,46.85,107.5,40.504482,-3.366389,588.1,6,5,238.4,3.164
47.57,1,0.014,0.062,-0.017,-0.001,0.049,-0.023,-1.557,0.047,0.246,46.85,107.5,40.504482,-3.366389,588.1,6,5,238.4,3.164
47.67,1,-0.017,0.038,-0.02,0.007,0.049,-0.02,-1.555,0.047,0.244,46.85,107.5,40.504482,-3.366389,588.1,6,5,238.4,3.164
47.78,1,-0.036,0.033,0.0,-0.025,0.036,-0.014,-1.554,0.046,0.242,46.85,107.5,40.504482,-3.366389,588.1,6,5,238.4,3.164
47.87,1,-0.004,0.032,-0.021,-0.017,0.036,-0.014,-1.553,0.048,0.24,46.85,107.5,40.504482,-3.366389,588.1,6,5,238.4,3.164
47.97,1,-0.035,0.017,0.016,-0.022,0.026,-0.002,-1.553,0.048,0.237,46.85,107.5,40.504482,-3.366389,588.1,6,5,238.4,3.164
48.07,1,0.011,0.011,-0.007,-0.013,0.018,-0.002,-1.553,0.046,0.235,46.85,107.5,40.504482,-3.366389,588.1,6,5,238.4,3.164
48.18,1,0.005,0.041,0.004,0.002,0.024,0.004,-1.553,0.045,0.233,46.85,107.5,40.504482,-3.366389,588.1,6,5,238.4,3.164
48.27,1,0.004,0.044,-0.004,-0.004,0.033,0.005,-1.553,0.043,0.231,47.83,107.8,40.504349,-3.366696,588.1,6,5,237.3,2.461
48.38,1,-0.022,0.019,0.002,0.001,0.038,-0.007,-1.552,0.04,0.229,47.83,107.8,40.504349,-3.366696,588.1,6,5,237.3,2.461
48.48,1,-0.035,0.012,0.002,-0.026,0.019,0.001,-1.552,0.039,0.226,47.83,107.8,40.504349,-3.366696,588.1,6,5,237.3,2.461
48.57,1,-0.009,0.015,0.012,-0.02,0.014,0.006,-1.552,0.037,0.224,47.83,107.8,40.504349,-3.366696,588.1,6,5,237.3,2.461
48.67,1,-0.004,0.021,-0.001,-0.01,0.021,0.005,-1.553,0.034,0.222,47.83,107.8,40.504349,-3.366696,588.1,6,5,237.3,2.461
48.77,1,-0.044,-0.016,0.003,-0.019,0.013,0.003,-1.554,0.032,0.22,47.83,107.8,40.504349,-3.366696,588.1,6,5,237.3,2.461
48.87,1,-0.044,-0.003,0.009,-0.036,-0.006,0.006,-1.556,0.031,0.218,47.83,107.8,40.504349,-3.366696,588.1,6,5,237.3,2.461
48.98,1,0.067,0.059,-0.006,0.0,0.02,0.001,-1.557,0.029,0.216,47.83,107.8,40.504349,-3.366696,588.1,6,5,237.3,2.461
49.07,1,0.001,0.028,0.001,0.011,0.028,0.001,-1.557,0.027,0.214,47.83,107.8,40.504349,-3.366696,588.1,6,5,237.3,2.461
49.18,1,0.029,0.034,-0.003,0.016,0.036,-0.006,-1.557,0.028,0.212,47.83,107.8,40.504349,-3.366696,588.1,6,5,237.3,2.461
49.28,1,-0.032,0.028,0.006,0.006,0.029,0.002,-1.559,0.027,0.21,48.84,107.0,40.504204,-3.366992,587.5,4,5,237.3,1.055
49.38,1,-0.004,-0.009,-0.0,-0.016,0.011,0.002,-1.559,0.024,0.208,48.84,107.0,40.504204,-3.366992,587.5,4,5,237.3,1.055
49.48,1,-0.015,-0.011,-0.007,-0.001,-0.0,-0.001,-1.559,0.023,0.206,48.84,107.0,40.504204,-3.366992,587.5,4,5,237.3,1.055
49.59,1,-0.008,0.028,0.009,-0.016,0.011,-0.0,-1.559,0.022,0.204,48.84,107.0,40.504204,-3.366992,587.5,4,5,237.3,1.055
49.69,1,0.005,-0.015,0.009,0.002,0.007,0.007,-1.559,0.022,0.202,48.84,107.0,40.504204,-3.366992,587.5,4,5,237.3,1.055
49.78,1,-0.011,-0.003,0.0,-0.011,-0.011,0.006,-1.559,0.024,0.201,48.84,107.0,40.504204,-3.366992,587.5,4,5,237.3,1.055
49.98,1,0.01,-0.008,0.019,0.01,-0.002,0.013,-1.557,0.023,0.198,48.84,107.0,40.504204,-3.366992,587.5,4,5,237.3,1.055
50.08,1,0.027,-0.005,-0.029,0.018,-0.002,-0.003,-1.556,0.025,0.197,48.84,107.0,40.504204,-3.366992,587.5,4,5,237.3,1.055
50.18,1,-0.001,-0.027,0.018,0.013,-0.009,-0.001,-1.555,0.027,0.196,48.84,107.0,40.504204,-3.366992,587.5,4,5,237.3,1.055
50.28,1,0.008,-0.017,0.013,0.002,-0.018,0.01,-1.558,0.029,0.195,48.84,107.0,40.504204,-3.366992,587.5,4,5,237.3,1.055
50.38,1,0.029,-0.012,-0.014,0.012,-0.017,0.001,-1.557,0.028,0.194,49.83,106.7,40.504051,-3.36729,587.6,4,5,237.3,0.0
50.48,1,0.0,-0.012,0.027,0.013,-0.012,0.011,-1.558,0.026,0.193,49.83,106.7,40.504051,-3.36729,587.6,4,5,237.3,0.0
50.58,1,-0.02,-0.021,0.006,0.003,-0.016,0.006,-1.558,0.027,0.191,49.83,106.7,40.504051,-3.36729,587.6,4,5,237.3,0.0
50.69,1,-0.034,-0.012,0.001,-0.023,-0.017,0.004,-1.557,0.027,0.19,49.83,106.7,40.504051,-3.36729,587.6,4,5,237.3,0.0
50.78,1,-0.022,-0.007,-0.001,-0.022,-0.01,0.005,-1.558,0.026,0.189,49.83,106.7,40.504051,-3.36729,587.6,4,5,237.3,0.0
50.89,1,-0.012,0.012,0.004,-0.012,0.002,-0.0,-1.557,0.026,0.188,49.83,106.7,40.504051,-3.36729,587.6,4,5,237.3,0.0
50.99,1,0.01,0.009,0.004,-0.005,0.006,0.005,-1.556,0.027,0.186,49.83,106.7,40.504051,-3.36729,587.6,4,5,237.3,0.0
51.08,1,-0.002,-0.008,-0.007,-0.0,-0.007,-0.001,-1.555,0.027,0.185,49.83,106.7,40.504051,-3.36729,587.6,4,5,237.3,0.0
51.18,1,-0.023,-0.007,0.018,-0.011,-0.002,0.006,-1.557,0.028,0.183,49.83,106.7,40.504051,-3.36729,587.6,4,5,237.3,0.0
51.29,1,0.044,0.015,-0.018,0.007,0.002,-0.001,-1.556,0.027,0.182,49.83,106.7,40.504051,-3.36729,587.6,4,5,237.3,0.0
51.39,1,-0.009,-0.013,0.001,0.01,-0.0,-0.005,-1.555,0.028,0.18,50.82,106.6,40.503906,-3.367582,587.5,4,5,237.0,0.352
51.48,1,-0.029,0.014,0.018,-0.009,0.004,0.005,-1.556,0.028,0.179,50.82,106.6,40.503906,-3.367582,587.5,4,5,237.0,0.352
51.58,1,-0.013,-0.008,0.008,-0.023,0.006,0.011,-1.557,0.029,0.177,50.82,106.6,40.503906,-3.367582,587.5,4,5,237.0,0.352
51.68,1,0.001,0.011,-0.003,-0.008,-0.0,0.004,-1.556,0.027,0.176,50.82,106.6,40.503906,-3.367582,587.5,4,5,237.0,0.352
51.78,1,-0.031,0.006,-0.018,-0.015,0.002,-0.008,-1.557,0.025,0.174,50.82,106.6,40.503906,-3.367582,587.5,4,5,237.0,0.352
51.89,1,-0.014,0.011,0.03,-0.017,0.01,0.005,-1.558,0.024,0.173,50.82,106.6,40.503906,-3.367582,587.5,4,5,237.0,0.352
51.99,1,0.006,-0.012,-0.008,-0.007,0.004,0.009,-1.558,0.023,0.171,50.82,106.6,40.503906,-3.367582,587.5,4,5,237.0,0.352
52.09,1,-0.037,-0.015,-0.02,-0.012,-0.008,-0.008,-1.557,0.022,0.169,50.82,106.6,40.503906,-3.367582,587.5,4,5,237.0,0.352
52.18,1,-0.039,0.01,0.001,-0.033,-0.004,-0.009,-1.558,0.021,0.167,50.82,106.6,40.503906,-3.367582,587.5,4,5,237.0,0.352
52.29,1,-0.051,-0.004,-0.007,-0.04,-0.002,-0.005,-1.56,0.019,0.166,50.82,106.6,40.503906,-3.367582,587.5,4,5,237.0,0.352
52.39,1,-0.052,0.01,-0.004,-0.041,0.006,-0.001,-1.56,0.016,0.164,51.85,107.1,40.503754,-3.367875,587.1,4,5,237.0,0.352
52.49,1,0.047,0.033,0.004,-0.015,0.019,-0.003,-1.557,0.015,0.161,51.85,107.1,40.503754,-3.367875,587.1,4,5,237.0,0.352
52.59,1,0.123,0.001,0.051,0.062,0.015,0.021,-1.556,0.014,0.16,51.85,107.1,40.503754,-3.367875,587.1,4,5,237.0,0.352
52.69,1,0.105,0.006,-0.039,0.096,0.006,0.002,-1.553,0.011,0.157,51.85,107.1,40.503754,-3.367875,587.1,4,5,237.0,0.352
52.79,1,-0.005,0.026,0.02,0.053,0.013,0.0,-1.556,0.008,0.155,51.85,107.1,40.503754,-3.367875,587.1,4,5,237.0,0.352
52.89,1,-0.047,0.046,-0.011,-0.001,0.03,-0.003,-1.558,0.007,0.153,51.85,107.1,40.503754,-3.367875,587.1,4,5,237.0,0.352
52.99,1,-0.071,0.009,-0.007,-0.053,0.023,-0.001,-1.557,0.007,0.151,51.85,107.1,40.503754,-3.367875,587.1,4,5,237.0,0.352
53.09,1,-0.046,0.006,-0.011,-0.052,0.013,-0.008,-1.557,0.006,0.148,51.85,107.1,40.503754,-3.367875,587.1,4,5,237.0,0.352
53.2,1,-0.007,0.024,-0.002,-0.027,0.015,-0.008,-1.559,0.003,0.146,51.85,107.1,40.503754,-3.367875,587.1,4,5,237.0,0.352
53.3,1,-0.042,-0.004,-0.01,-0.03,0.01,-0.008,-1.56,0.001,0.144,51.85,107.1,40.503754,-3.367875,587.1,4,5,237.0,0.352
53.39,1,-0.048,0.011,0.01,-0.039,0.007,0.001,-1.562,-0.0,0.142,52.83,107.1,40.503605,-3.368169,587.7,6,5,237.0,0.0
53.49,1,-0.035,-0.003,-0.012,-0.04,0.005,-0.002,-1.561,-0.002,0.14,52.83,107.1,40.503605,-3.368169,587.7,6,5,237.0,0.0
53.59,1,-0.011,0.005,-0.01,-0.024,0.003,-0.008,-1.56,-0.002,0.138,52.83,107.1,40.503605,-3.368169,587.7,6,5,237.0,0.0
53.7,1,0.01,-0.006,-0.015,-0.011,-0.001,-0.01,-1.56,-0.002,0.136,52.83,107.1,40.503605,-3.368169,587.7,6,5,237.0,0.0
53.8,1,-0.009,0.002,-0.01,-0.004,-0.0,-0.009,-1.559,-0.003,0.134,52.83,107.1,40.503605,-3.368169,587.7,6,5,237.0,0.0
53.89,1,-0.025,0.011,-0.013,-0.014,0.008,-0.015,-1.559,-0.004,0.132,52.83,107.1,40.503605,-3.368169,587.7,6,5,237.0,0.0
53.99,1,-0.059,-0.0,-0.013,-0.035,0.002,-0.01,-1.558,-0.006,0.13,52.83,107.1,40.503605,-3.368169,587.7,6,5,237.0,0.0
54.09,1,-0.03,0.002,-0.013,-0.04,0.003,-0.013,-1.557,-0.006,0.128,52.83,107.1,40.503605,-3.368169,587.7,6,5,237.0,0.0
54.19,1,-0.03,-0.002,-0.02,-0.033,0.001,-0.017,-1.555,-0.006,0.126,52.83,107.1,40.503605,-3.368169,587.7,6,5,237.0,0.0
54.29,1,0.011,0.015,-0.005,-0.018,0.004,-0.014,-1.555,-0.006,0.124,52.83,107.1,40.503605,-3.368169,587.7,6,5,237.0,0.0
54.4,1,-0.062,-0.003,-0.016,-0.021,0.003,-0.011,-1.556,-0.01,0.121,53.82,107.2,40.503468,-3.368454,588.6,4,5,236.2,0.703
54.5,1,-0.057,0.018,-0.0,-0.049,0.008,-0.012,-1.555,-0.014,0.119,53.82,107.2,40.503468,-3.368454,588.6,4,5,236.2,0.703
54.59,1,-0.001,0.022,0.003,-0.034,0.018,0.001,-1.556,-0.014,0.117,53.82,107.2,40.503468,-3.368454,588.6,4,5,236.2,0.703
54.7,1,-0.016,0.01,0.013,-0.018,0.016,0.005,-1.558,-0.015,0.114,53.82,107.2,40.503468,-3.368454,588.6,4,5,236.2,0.703
54.8,1,-0.002,-0.02,-0.012,-0.009,-0.002,0.001,-1.558,-0.012,0.112,53.82,107.2,40.503468,-3.368454,588.6,4,5,236.2,0.703
54.9,1,-0.037,-0.005,-0.022,-0.018,-0.005,-0.012,-1.559,-0.011,0.109,53.82,107.2,40.503468,-3.368454,588.6,4,5,236.2,0.703
55.0,1,-0.004,0.0,0.016,-0.016,-0.007,-0.003,-1.559,-0.013,0.107,53.82,107.2,40.503468,-3.368454,588.6,4,5,236.2,0.703
55.1,1,-0.016,0.019,-0.014,-0.013,0.008,-0.003,-1.56,-0.014,0.104,53.82,107.2,40.503468,-3.368454,588.6,4,5,236.2,0.703
55.2,1,0.001,0.009,-0.012,-0.012,0.011,-0.008,-1.558,-0.014,0.102,53.82,107.2,40.503468,-3.368454,588.6,4,5,236.2,0.703
55.29,1,0.004,-0.019,-0.001,0.003,-0.002,-0.007,-1.558,-0.012,0.1,53.82,107.2,40.503468,-3.368454,588.6,4,5,236.2,0.703
55.4,1,0.018,-0.011,0.006,0.004,-0.01,-0.002,-1.558,-0.011,0.099,54.82,107.9,40.503323,-3.368756,588.7,4,5,237.3,1.055
55.5,1,-0.008,-0.029,-0.001,0.006,-0.016,0.002,-1.558,-0.01,0.097,54.82,107.9,40.503323,-3.368756,588.7,4,5,237.3,1.055
55.61,1,-0.015,-0.03,0.006,-0.013,-0.028,0.001,-1.558,-0.01,0.095,54.82,107.9,40.503323,-3.368756,588.7,4,5,237.3,1.055
55.71,1,0.002,-0.012,-0.002,-0.003,-0.018,0.001,-1.558,-0.008,0.094,54.82,107.9,40.503323,-3.368756,588.7,4,5,237.3,1.055
55.8,1,-0.027,-0.023,0.008,-0.013,-0.02,0.003,-1.559,-0.007,0.093,54.82,107.9,40.503323,-3.368756,588.7,4,5,237.3,1.055
55.9,1,-0.004,-0.048,-0.002,-0.013,-0.034,0.002,-1.559,-0.003,0.093,54.82,107.9,40.503323,-3.368756,588.7,4,5,237.3,1.055
56.0,1,0.016,-0.037,-0.009,-0.0,-0.038,0.001,-1.557,0.001,0.092,54.82,107.9,40.503323,-3.368756,588.7,4,5,237.3,1.055
56.1,1,-0.009,-0.054,0.002,0.002,-0.041,-0.005,-1.557,0.003,0.092,54.82,107.9,40.503323,-3.368756,588.7,4,5,237.3,1.055
56.2,1,-0.007,-0.036,-0.006,-0.005,-0.045,-0.003,-1.558,0.006,0.092,54.82,107.9,40.503323,-3.368756,588.7,4,5,237.3,1.055
56.31,1,-0.004,-0.037,0.006,-0.006,-0.036,-0.0,-1.558,0.008,0.091,54.82,107.9,40.503323,-3.368756,588.7,4,5,237.3,1.055
56.4,1,-0.023,-0.003,0.001,-0.013,-0.023,0.002,-1.559,0.01,0.091,55.84,107.4,40.503178,-3.369054,586.5,4,5,237.7,1.406
56.5,1,-0.011,-0.028,0.009,-0.014,-0.022,0.007,-1.56,0.011,0.09,55.84,107.4,40.503178,-3.369054,586.5,4,5,237.7,1.406
56.6,1,0.004,-0.02,-0.0,-0.006,-0.025,0.005,-1.56,0.012,0.089,55.84,107.4,40.503178,-3.369054,586.5,4,5,237.7,1.406
56.7,1,0.022,0.001,-0.018,0.014,-0.013,-0.005,-1.559,0.011,0.088,55.84,107.4,40.503178,-3.369054,586.5,4,5,237.7,1.406
56.8,1,-0.025,-0.018,-0.013,-0.01,-0.012,-0.017,-1.559,0.01,0.087,55.84,107.4,40.503178,-3.369054,586.5,4,5,237.7,1.406
56.9,1,-0.015,-0.01,-0.003,-0.009,-0.01,-0.007,-1.558,0.01,0.086,55.84,107.4,40.503178,-3.369054,586.5,4,5,237.7,1.406
57.0,1,-0.055,-0.023,0.01,-0.03,-0.016,0.0,-1.557,0.011,0.086,55.84,107.4,40.503178,-3.369054,586.5,4,5,237.7,1.406
57.1,1,-0.001,-0.027,0.005,-0.023,-0.022,0.002,-1.558,0.012,0.085,55.84,107.4,40.503178,-3.369054,586.5,4,5,237.7,1.406
57.2,1,0.024,-0.008,0.001,0.004,-0.015,0.005,-1.558,0.011,0.084,55.84,107.4,40.503178,-3.369054,586.5,4,5,237.7,1.406
57.31,1,0.001,-0.014,0.008,0.004,-0.014,0.003,-1.559,0.011,0.083,55.84,107.4,40.503178,-3.369054,586.5,4,5,237.7,1.406
57.4,1,-0.022,-0.006,0.017,-0.01,-0.014,0.011,-1.56,0.011,0.083,56.83,107.3,40.503033,-3.36935,586.0,4,5,237.3,0.352
57.5,1,-0.034,-0.011,-0.001,-0.022,-0.011,0.009,-1.561,0.013,0.082,56.83,107.3,40.503033,-3.36935,586.0,4,5,237.3,0.352
57.6,1,-0.015,-0.023,-0.01,-0.017,-0.016,-0.005,-1.56,0.014,0.081,56.83,107.3,40.503033,-3.36935,586.0,4,5,237.3,0.352
57.7,1,-0.007,-0.024,0.014,-0.013,-0.022,0.005,-1.561,0.015,0.081,56.83,107.3,40.503033,-3.36935,586.0,4,5,237.3,0.352
57.8,1,-0.045,-0.009,0.001,-0.027,-0.011,0.0,-1.561,0.015,0.08,56.83,107.3,40.503033,-3.36935,586.0,4,5,237.3,0.352
57.9,1,0.015,-0.001,0.006,-0.017,-0.01,0.008,-1.562,0.014,0.079,56.83,107.3,40.503033,-3.36935,586.0,4,5,237.3,0.352
58.0,1,0.0,-0.011,0.016,0.009,-0.005,0.008,-1.563,0.012,0.079,56.83,107.3,40.503033,-3.36935,586.0,4,5,237.3,0.352
58.11,1,-0.03,-0.017,0.002,-0.017,-0.016,0.01,-1.564,0.012,0.078,56.83,107.3,40.503033,-3.36935,586.0,4,5,237.3,0.352
58.2,1,0.03,-0.003,0.009,-0.002,-0.009,0.009,-1.566,0.012,0.078,56.83,107.3,40.503033,-3.36935,586.0,4,5,237.3,0.352
58.3,1,-0.003,-0.004,0.003,0.006,-0.007,0.004,-1.566,0.012,0.077,56.83,107.3,40.503033,-3.36935,586.0,4,5,237.3,0.352
58.41,1,0.018,-0.013,0.017,0.012,-0.008,0.011,-1.567,0.013,0.076,57.83,107.2,40.50288,-3.369659,586.7,4,5,237.7,0.352
58.51,1,-0.014,0.005,0.002,0.004,-0.006,0.009,-1.568,0.013,0.075,57.83,107.2,40.50288,-3.369659,586.7,4,5,237.7,0.352
58.61,1,-0.01,0.012,-0.002,-0.013,0.003,0.001,-1.568,0.012,0.074,57.83,107.2,40.50288,-3.369659,586.7,4,5,237.7,0.352
58.71,1,-0.006,0.008,0.003,-0.008,0.011,0.003,-1.568,0.011,0.073,57.83,107.2,40.50288,-3.369659,586.7,4,5,237.7,0.352
58.82,1,-0.023,-0.026,0.001,-0.017,-0.006,-0.001,-1.568,0.012,0.072,57.83,107.2,40.50288,-3.369659,586.7,4,5,237.7,0.352
58.91,1,0.026,-0.01,-0.005,-0.001,-0.014,-0.002,-1.568,0.012,0.071,57.83,107.2,40.50288,-3.369659,586.7,4,5,237.7,0.352
59.01,1,0.033,0.016,0.006,0.027,0.0,0.003,-1.569,0.01,0.07,57.83,107.2,40.50288,-3.369659,586.7,4,5,237.7,0.352
59.11,1,-0.029,-0.008,0.001,0.004,-0.003,0.003,-1.569,0.009,0.069,57.83,107.2,40.50288,-3.369659,586.7,4,5,237.7,0.352
59.21,1,0.007,0.012,-0.004,-0.004,0.003,0.0,-1.568,0.007,0.068,57.83,107.2,40.50288,-3.369659,586.7,4,5,237.7,0.352
59.32,1,-0.022,-0.005,-0.013,-0.007,0.004,-0.007,-1.567,0.007,0.066,57.83,107.2,40.50288,-3.369659,586.7,4,5,237.7,0.352
59.41,1,-0.008,0.005,0.003,-0.012,0.003,-0.006,-1.567,0.006,0.065,58.83,107.3,40.502735,-3.369954,587.1,4,5,237.7,0.352
59.51,1,-0.006,-0.014,0.011,-0.014,0.0,0.005,-1.569,0.006,0.064,58.83,107.3,40.502735,-3.369954,587.1,4,5,237.7,0.352
59.61,1,-0.048,-0.003,-0.019,-0.028,-0.012,-0.003,-1.569,0.006,0.063,58.83,107.3,40.502735,-3.369954,587.1,4,5,237.7,0.352
59.72,1,-0.014,0.016,0.003,-0.021,0.007,-0.005,-1.57,0.004,0.062,58.83,107.3,40.502735,-3.369954,587.1,4,5,237.7,0.352
59.82,1,-0.028,-0.005,0.013,-0.023,0.005,0.005,-1.572,0.005,0.061,58.83,107.3,40.502735,-3.369954,587.1,4,5,237.7,0.352
60.02,1,-0.011,-0.007,-0.004,-0.019,-0.005,-0.0,-1.57,0.004,0.059,58.83,107.3,40.502735,-3.369954,587.1,4,5,237.7,0.352
60.11,1,0.012,-0.011,0.024,-0.006,-0.006,0.005,-1.57,0.003,0.058,58.83,107.3,40.502735,-3.369954,587.1,4,5,237.7,0.352
60.21,1,0.018,0.004,0.005,0.009,-0.008,0.011,-1.571,0.003,0.057,58.83,107.3,40.502735,-3.369954,587.1,4,5,237.7,0.352
60.31,1,0.022,0.003,-0.004,0.018,0.003,0.004,-1.571,0.004,0.056,58.83,107.3,40.502735,-3.369954,587.1,4,5,237.7,0.352
60.41,1,-0.007,-0.025,-0.008,0.01,-0.007,-0.003,-1.571,0.007,0.056,58.83,107.3,40.502735,-3.369954,587.1,4,5,237.7,0.352
60.51,1,-0.005,-0.026,-0.01,-0.0,-0.02,-0.006,-1.571,0.01,0.056,59.9,107.9,40.502583,-3.370259,587.4,4,5,237.3,0.352
60.61,1,-0.034,-0.03,-0.007,-0.015,-0.026,-0.008,-1.57,0.013,0.057,59.9,107.9,40.502583,-3.370259,587.4,4,5,237.3,0.352
60.71,1,-0.024,-0.042,0.006,-0.031,-0.035,-0.002,-1.57,0.016,0.057,59.9,107.9,40.502583,-3.370259,587.4,4,5,237.3,0.352
60.81,1,0.032,-0.008,-0.013,0.005,-0.023,-0.005,-1.57,0.02,0.058,59.9,107.9,40.502583,-3.370259,587.4,4,5,237.3,0.352
60.92,1,-0.038,-0.043,-0.008,-0.01,-0.03,-0.009,-1.569,0.023,0.058,59.9,107.9,40.502583,-3.370259,587.4,4,5,237.3,0.352
61.02,1,-0.035,-0.032,-0.006,-0.024,-0.034,-0.005,-1.57,0.025,0.058,59.9,107.9,40.502583,-3.370259,587.4,4,5,237.3,0.352
61.12,1,-0.038,-0.022,-0.0,-0.036,-0.027,-0.005,-1.57,0.026,0.059,59.9,107.9,40.502583,-3.370259,587.4,4,5,237.3,0.352
61.22,1,-0.002,-0.018,0.012,-0.025,-0.024,0.005,-1.57,0.028,0.059,59.9,107.9,40.502583,-3.370259,587.4,4,5,237.3,0.352
61.32,1,-0.021,-0.012,-0.019,-0.013,-0.018,-0.005,-1.57,0.028,0.059,59.9,107.9,40.502583,-3.370259,587.4,4,5,237.3,0.352
61.42,1,-0.021,-0.007,0.017,-0.018,-0.011,0.001,-1.571,0.029,0.06,59.9,107.9,40.502583,-3.370259,587.4,4,5,237.3,0.352
61.52,1,-0.006,-0.018,0.005,-0.016,-0.012,0.006,-1.571,0.029,0.06,60.82,108.2,40.502434,-3.370551,587.6,4,5,237.3,0.352
61.62,1,0.004,-0.004,0.009,-0.002,-0.009,0.006,-1.57,0.029,0.059,60.82,108.2,40.502434,-3.370551,587.6,4,5,237.3,0.352
61.72,1,-0.002,0.014,-0.006,-0.004,0.001,0.002,-1.569,0.03,0.059,60.82,108.2,40.502434,-3.370551,587.6,4,5,237.3,0.352
61.82,1,0.01,0.009,0.002,0.006,0.005,0.001,-1.569,0.029,0.059,60.82,108.2,40.502434,-3.370551,587.6,4,5,237.3,0.352
61.92,1,-0.021,-0.002,0.009,-0.003,0.005,0.002,-1.57,0.028,0.058,60.82,108.2,40.502434,-3.370551,587.6,4,5,237.3,0.352
62.02,1,-0.038,-0.01,-0.014,-0.027,-0.003,0.0,-1.57,0.028,0.058,60.82,108.2,40.502434,-3.370551,587.6,4,5,237.3,0.352
62.12,1,-0.013,0.009,0.007,-0.03,-0.005,-0.002,-1.569,0.028,0.058,60.82,108.2,40.502434,-3.370551,587.6,4,5,237.3,0.352
62.22,1,0.003,0.002,-0.008,-0.007,0.008,-0.003,-1.569,0.024,0.057,60.82,108.2,40.502434,-3.370551,587.6,4,5,237.3,0.352
62.33,1,-0.007,0.036,0.011,-0.005,0.018,0.002,-1.568,0.025,0.056,60.82,108.2,40.502434,-3.370551,587.6,4,5,237.3,0.352
62.43,1,-0.006,0.011,-0.021,-0.004,0.014,-0.007,-1.567,0.024,0.056,60.82,108.2,40.502434,-3.370551,587.6,4,5,237.3,0.352
62.52,1,-0.0,0.019,-0.004,-0.002,0.018,-0.005,-1.567,0.023,0.055,61.86,108.3,40.502304,-3.370844,588.1,4,5,237.3,0.0
62.62,1,-0.045,0.034,0.004,-0.017,0.027,-0.005,-1.567,0.02,0.053,61.86,108.3,40.502304,-3.370844,588.1,4,5,237.3,0.0
62.72,1,-0.037,0.047,0.009,-0.034,0.035,0.002,-1.569,0.02,0.052,61.86,108.3,40.502304,-3.370844,588.1,4,5,237.3,0.0
62.82,1,-0.019,0.013,0.012,-0.027,0.03,0.009,-1.569,0.019,0.05,61.86,108.3,40.502304,-3.370844,588.1,4,5,237.3,0.0
62.92,1,0.005,0.005,0.001,-0.014,0.016,0.007,-1.57,0.018,0.049,61.86,108.3,40.502304,-3.370844,588.1,4,5,237.3,0.0
63.02,1,0.007,0.011,-0.011,0.002,0.009,-0.001,-1.57,0.016,0.048,61.86,108.3,40.502304,-3.370844,588.1,4,5,237.3,0.0
63.12,1,0.04,-0.023,0.041,0.017,-0.005,0.016,-1.572,0.015,0.047,61.86,108.3,40.502304,-3.370844,588.1,4,5,237.3,0.0
63.22,1,-0.011,0.004,-0.022,0.022,-0.011,0.003,-1.572,0.008,0.045,61.86,108.3,40.502304,-3.370844,588.1,4,5,237.3,0.0
63.33,1,-0.048,0.05,-0.01,-0.029,0.027,-0.006,-1.571,0.008,0.043,61.86,108.3,40.502304,-3.370844,588.1,4,5,237.3,0.0
63.42,1,0.015,0.036,-0.001,-0.013,0.039,-0.007,-1.57,0.01,0.042,61.86,108.3,40.502304,-3.370844,588.1,4,5,237.3,0.0
63.52,1,-0.001,-0.015,0.015,-0.005,0.014,0.003,-1.568,0.01,0.041,62.84,108.4,40.502148,-3.371142,587.5,4,5,236.6,0.703
63.62,1,0.004,0.0,0.008,-0.004,-0.004,0.012,-1.568,0.006,0.04,62.84,108.4,40.502148,-3.371142,587.5,4,5,236.6,0.703
63.72,1,-0.009,0.017,-0.009,0.003,0.008,-0.004,-1.566,0.005,0.039,62.84,108.4,40.502148,-3.371142,587.5,4,5,236.6,0.703
63.82,1,-0.007,0.004,-0.002,-0.005,0.016,-0.002,-1.568,0.005,0.039,62.84,108.4,40.502148,-3.371142,587.5,4,5,236.6,0.703
63.92,1,-0.007,-0.009,0.012,-0.008,-0.001,0.005,-1.568,0.006,0.038,62.84,108.4,40.502148,-3.371142,587.5,4,5,236.6,0.703
64.02,1,0.012,-0.019,-0.03,0.004,-0.012,-0.005,-1.566,0.008,0.038,62.84,108.4,40.502148,-3.371142,587.5,4,5,236.6,0.703
64.12,1,-0.028,0.003,-0.021,-0.008,-0.008,-0.019,-1.563,0.007,0.037,62.84,108.4,40.502148,-3.371142,587.5,4,5,236.6,0.703
64.22,1,-0.014,-0.007,-0.032,-0.016,-0.004,-0.022,-1.561,0.006,0.037,62.84,108.4,40.502148,-3.371142,587.5,4,5,236.6,0.703
64.32,1,-0.009,-0.008,-0.028,-0.014,-0.008,-0.029,-1.558,0.006,0.036,62.84,108.4,40.502148,-3.371142,587.5,4,5,236.6,0.703
64.42,1,0.006,-0.019,-0.018,-0.006,-0.011,-0.025,-1.556,0.005,0.036,62.84,108.4,40.502148,-3.371142,587.5,4,5,236.6,0.703
64.53,1,-0.039,-0.006,-0.024,-0.018,-0.011,-0.022,-1.554,0.004,0.035,63.83,108.9,40.501991,-3.371443,587.1,4,5,237.0,0.352
64.63,1,0.018,0.026,-0.022,-0.011,0.001,-0.023,-1.554,0.005,0.035,63.83,108.9,40.501991,-3.371443,587.1,4,5,237.0,0.352
64.73,1,-0.025,-0.019,-0.006,0.001,0.007,-0.018,-1.552,0.007,0.034,63.83,108.9,40.501991,-3.371443,587.1,4,5,237.0,0.352
64.83,1,-0.04,0.013,-0.001,-0.021,-0.0,-0.007,-1.551,0.01,0.034,63.83,108.9,40.501991,-3.371443,587.1,4,5,237.0,0.352
64.93,1,-0.003,0.001,0.011,-0.023,0.002,0.003,-1.549,0.009,0.034,63.83,108.9,40.501991,-3.371443,587.1,4,5,237.0,0.352
65.03,1,-0.008,-0.004,0.022,-0.012,-0.0,0.013,-1.551,0.011,0.033,63.83,108.9,40.501991,-3.371443,587.1,4,5,237.0,0.352
65.13,1,0.019,-0.014,0.017,-0.0,-0.008,0.012,-1.551,0.011,0.033,63.83,108.9,40.501991,-3.371443,587.1,4,5,237.0,0.352
65.23,1,0.027,0.012,0.009,0.013,-0.002,0.017,-1.554,0.01,0.032,63.83,108.9,40.501991,-3.371443,587.1,4,5,237.0,0.352
65.33,1,0.013,0.004,0.012,0.021,0.006,0.01,-1.554,0.007,0.031,63.83,108.9,40.501991,-3.371443,587.1,4,5,237.0,0.352
65.43,1,-0.025,0.004,0.021,-0.001,0.006,0.015,-1.555,0.004,0.03,63.83,108.9,40.501991,-3.371443,587.1,4,5,237.0,0.352
65.53,1,0.008,0.025,0.022,-0.007,0.008,0.02,-1.556,0.006,0.03,64.83,108.9,40.501839,-3.371743,587.2,4,5,237.0,0.352
65.63,1,0.031,0.021,0.004,0.019,0.022,0.015,-1.555,0.007,0.029,64.83,108.9,40.501839,-3.371743,587.2,4,5,237.0,0.352
65.74,1,-0.042,0.001,-0.005,-0.002,0.011,0.001,-1.556,0.005,0.028,64.83,108.9,40.501839,-3.371743,587.2,4,5,237.0,0.352
65.83,1,-0.049,0.022,0.019,-0.037,0.014,0.008,-1.558,0.004,0.027,64.83,108.9,40.501839,-3.371743,587.2,4,5,237.0,0.352
65.93,1,0.005,0.014,0.017,-0.021,0.018,0.018,-1.56,0.004,0.027,64.83,108.9,40.501839,-3.371743,587.2,4,5,237.0,0.352
66.03,1,-0.017,-0.008,0.009,-0.008,0.005,0.009,-1.559,0.004,0.026,64.83,108.9,40.501839,-3.371743,587.2,4,5,237.0,0.352
66.14,1,-0.009,0.046,0.0,-0.01,0.018,0.006,-1.559,0.002,0.025,64.83,108.9,40.501839,-3.371743,587.2,4,5,237.0,0.352
66.23,1,-0.038,-0.018,0.028,-0.02,0.008,0.016,-1.56,0.003,0.025,64.83,108.9,40.501839,-3.371743,587.2,4,5,237.0,0.352
66.33,1,0.002,0.001,0.015,-0.021,-0.002,0.017,-1.561,0.005,0.024,64.83,108.9,40.501839,-3.371743,587.2,4,5,237.0,0.352
66.43,1,0.033,0.008,0.006,0.004,0.003,0.012,-1.562,0.005,0.024,64.83,108.9,40.501839,-3.371743,587.2,4,5,237.0,0.352
66.54,1,0.005,0.012,-0.006,0.019,0.009,0.006,-1.562,0.006,0.024,65.89,108.7,40.501701,-3.372048,586.8,4,5,237.3,0.352
66.63,1,-0.039,-0.017,0.006,-0.014,0.001,-0.0,-1.563,0.006,0.023,65.89,108.7,40.501701,-3.372048,586.8,4,5,237.3,0.352
66.73,1,-0.025,-0.016,-0.014,-0.024,-0.011,-0.001,-1.561,0.008,0.023,65.89,108.7,40.501701,-3.372048,586.8,4,5,237.3,0.352
66.83,1,0.008,-0.004,-0.002,-0.01,-0.013,-0.007,-1.561,0.008,0.023,65.89,108.7,40.501701,-3.372048,586.8,4,5,237.3,0.352
66.94,1,-0.006,0.02,-0.003,-0.005,0.006,-0.004,-1.561,0.01,0.023,65.89,108.7,40.501701,-3.372048,586.8,4,5,237.3,0.352
67.04,1,0.003,0.003,0.021,-0.005,0.01,0.009,-1.562,0.011,0.023,65.89,108.7,40.501701,-3.372048,586.8,4,5,237.3,0.352
67.14,1,0.004,-0.023,-0.005,0.003,-0.006,0.005,-1.562,0.011,0.023,65.89,108.7,40.501701,-3.372048,586.8,4,5,237.3,0.352
67.23,1,-0.012,-0.006,-0.003,-0.005,-0.013,-0.003,-1.562,0.012,0.022,65.89,108.7,40.501701,-3.372048,586.8,4,5,237.3,0.352
67.34,1,0.001,0.003,-0.007,-0.003,-0.006,-0.001,-1.563,0.01,0.022,65.89,108.7,40.501701,-3.372048,586.8,4,5,237.3,0.352
67.44,1,0.008,0.01,0.012,0.0,0.006,-0.002,-1.563,0.009,0.022,65.89,108.7,40.501701,-3.372048,586.8,4,5,237.3,0.352
67.54,1,0.034,-0.013,-0.005,0.011,-0.005,0.004,-1.563,0.008,0.022,66.82,109.1,40.50156,-3.372342,587.3,4,5,237.3,0.352
67.64,1,-0.005,-0.011,-0.008,0.02,-0.003,-0.005,-1.562,0.008,0.022,66.82,109.1,40.50156,-3.372342,587.3,4,5,237.3,0.352
67.74,1,-0.021,-0.005,0.008,-0.006,-0.01,0.0,-1.563,0.01,0.022,66.82,109.1,40.50156,-3.372342,587.3,4,5,237.3,0.352
67.84,1,-0.064,-0.012,0.01,-0.029,-0.007,0.008,-1.563,0.01,0.022,66.82,109.1,40.50156,-3.372342,587.3,4,5,237.3,0.352
67.94,1,-0.043,0.003,0.001,-0.045,-0.006,0.004,-1.562,0.011,0.022,66.82,109.1,40.50156,-3.372342,587.3,4,5,237.3,0.352
68.04,1,0.008,-0.011,0.002,-0.019,-0.002,0.001,-1.564,0.012,0.022,66.82,109.1,40.50156,-3.372342,587.3,4,5,237.3,0.352
68.15,1,-0.039,-0.022,0.002,-0.025,-0.016,0.003,-1.564,0.014,0.022,66.82,109.1,40.50156,-3.372342,587.3,4,5,237.3,0.352
68.24,1,-0.002,-0.014,0.015,-0.021,-0.016,0.007,-1.565,0.016,0.022,66.82,109.1,40.50156,-3.372342,587.3,4,5,237.3,0.352
68.35,1,-0.006,-0.011,-0.013,-0.009,-0.012,0.004,-1.564,0.017,0.022,66.82,109.1,40.50156,-3.372342,587.3,4,5,237.3,0.352
68.44,1,-0.004,-0.013,0.002,-0.008,-0.013,-0.002,-1.563,0.018,0.023,66.82,109.1,40.50156,-3.372342,587.3,4,5,237.3,0.352
68.54,1,-0.019,-0.008,-0.011,-0.007,-0.011,-0.004,-1.563,0.017,0.023,67.82,109.1,40.501419,-3.372643,589.2,4,5,237.7,0.352
68.64,1,-0.033,0.004,0.014,-0.022,-0.004,-0.0,-1.563,0.016,0.022,67.82,109.1,40.501419,-3.372643,589.2,4,5,237.7,0.352
68.74,1,0.029,-0.019,0.008,-0.006,-0.011,0.008,-1.564,0.015,0.022,67.82,109.1,40.501419,-3.372643,589.2,4,5,237.7,0.352
68.85,1,0.068,-0.007,-0.009,0.034,-0.006,-0.001,-1.563,0.013,0.022,67.82,109.1,40.501419,-3.372643,589.2,4,5,237.7,0.352
68.94,1,0.045,-0.012,-0.018,0.049,-0.016,-0.006,-1.563,0.015,0.021,67.82,109.1,40.501419,-3.372643,589.2,4,5,237.7,0.352
69.04,1,-0.039,0.007,0.013,0.013,0.0,-0.004,-1.563,0.013,0.02,67.82,109.1,40.501419,-3.372643,589.2,4,5,237.7,0.352
69.14,1,-0.068,-0.009,0.002,-0.034,-0.003,0.004,-1.565,0.008,0.019,67.82,109.1,40.501419,-3.372643,589.2,4,5,237.7,0.352
69.24,1,-0.06,0.038,-0.011,-0.051,0.02,-0.004,-1.564,0.007,0.018,67.82,109.1,40.501419,-3.372643,589.2,4,5,237.7,0.352
69.35,1,0.017,0.043,0.006,-0.031,0.026,-0.003,-1.565,0.008,0.017,67.82,109.1,40.501419,-3.372643,589.2,4,5,237.7,0.352
69.44,1,0.05,0.02,0.035,0.021,0.02,0.017,-1.565,0.006,0.016,67.82,109.1,40.501419,-3.372643,589.2,4,5,237.7,0.352
69.54,1,-0.029,0.01,0.007,0.007,0.021,0.013,-1.565,0.0,0.014,68.82,109.2,40.501278,-3.372936,589.0,4,5,237.3,0.352
69.64,1,-0.029,0.031,0.006,-0.025,0.02,0.012,-1.567,-0.003,0.013,68.82,109.2,40.501278,-3.372936,589.0,4,5,237.3,0.352
69.74,1,0.006,0.045,0.008,-0.008,0.039,0.009,-1.567,-0.008,0.011,68.82,109.2,40.501278,-3.372936,589.0,4,5,237.3,0.352
69.95,1,-0.028,0.01,0.0,-0.032,0.014,0.003,-1.567,-0.01,0.008,68.82,109.2,40.501278,-3.372936,589.0,4,5,237.3,0.352
70.04,1,0.021,0.02,0.003,-0.011,0.018,-0.001,-1.566,-0.012,0.007,68.82,109.2,40.501278,-3.372936,589.0,4,5,237.3,0.352
70.14,1,0.005,0.007,-0.008,0.006,0.014,-0.001,-1.567,-0.013,0.006,68.82,109.2,40.501278,-3.372936,589.0,4,5,237.3,0.352
70.24,1,-0.011,-0.008,-0.006,0.001,0.004,-0.006,-1.566,-0.014,0.006,68.82,109.2,40.501278,-3.372936,589.0,4,5,237.3,0.352
70.34,1,-0.012,-0.027,0.007,-0.012,-0.012,-0.002,-1.567,-0.013,0.005,68.82,109.2,40.501278,-3.372936,589.0,4,5,237.3,0.352
70.44,1,-0.014,0.012,0.005,-0.01,-0.007,0.006,-1.568,-0.011,0.005,68.82,109.2,40.501278,-3.372936,589.0,4,5,237.3,0.352
70.56,1,-0.021,-0.019,0.006,-0.017,-0.007,0.003,-1.568,-0.01,0.004,68.82,109.2,40.501278,-3.372936,589.0,4,5,237.3,0.352
70.65,1,-0.057,-0.014,-0.014,-0.024,-0.017,0.001,-1.57,-0.008,0.004,69.83,109.5,40.501129,-3.373243,589.1,4,5,236.6,1.055
70.76,1,-0.037,-0.028,0.026,-0.048,-0.018,0.006,-1.574,-0.006,0.004,69.83,109.5,40.501129,-3.373243,589.1,4,5,236.6,1.055
70.85,1,0.051,-0.019,-0.018,-0.007,-0.024,-0.003,-1.573,-0.007,0.004,69.83,109.5,40.501129,-3.373243,589.1,4,5,236.6,1.055
70.95,1,-0.014,-0.018,0.0,0.014,-0.016,-0.005,-1.574,-0.004,0.004,69.83,109.5,40.501129,-3.373243,589.1,4,5,236.6,1.055
71.05,1,-0.014,-0.075,-0.007,-0.01,-0.042,-0.002,-1.574,0.002,0.004,69.83,109.5,40.501129,-3.373243,589.1,4,5,236.6,1.055
71.15,1,0.022,-0.043,0.007,-0.002,-0.049,0.002,-1.575,0.005,0.005,69.83,109.5,40.501129,-3.373243,589.1,4,5,236.6,1.055
71.25,1,-0.007,-0.03,-0.002,0.006,-0.042,-0.002,-1.574,0.006,0.006,69.83,109.5,40.501129,-3.373243,589.1,4,5,236.6,1.055
71.36,1,-0.033,-0.051,0.003,-0.016,-0.039,0.001,-1.573,0.009,0.008,69.83,109.5,40.501129,-3.373243,589.1,4,5,236.6,1.055
71.45,1,-0.01,-0.064,-0.026,-0.014,-0.056,-0.009,-1.573,0.013,0.009,69.83,109.5,40.501129,-3.373243,589.1,4,5,236.6,1.055
71.55,1,0.003,-0.054,0.016,-0.011,-0.053,-0.007,-1.576,0.018,0.01,69.83,109.5,40.501129,-3.373243,589.1,4,5,236.6,1.055
71.65,1,0.012,-0.037,-0.006,-0.001,-0.056,0.006,-1.577,0.019,0.012,70.91,109.9,40.500977,-3.373546,586.3,4,5,237.7,1.055
71.76,1,0.015,-0.01,0.022,0.019,-0.024,0.003,-1.579,0.017,0.013,70.91,109.9,40.500977,-3.373546,586.3,4,5,237.7,1.055
71.85,1,-0.049,-0.023,-0.009,-0.019,-0.025,0.005,-1.583,0.017,0.013,70.91,109.9,40.500977,-3.373546,586.3,4,5,237.7,1.055
71.96,1,-0.005,-0.02,-0.016,-0.027,-0.027,-0.009,-1.581,0.017,0.014,70.91,109.9,40.500977,-3.373546,586.3,4,5,237.7,1.055
72.05,1,0.063,0.004,-0.011,0.023,-0.004,-0.008,-1.579,0.019,0.014,70.91,109.9,40.500977,-3.373546,586.3,4,5,237.7,1.055
72.15,1,-0.016,0.009,-0.005,0.019,0.001,-0.01,-1.578,0.017,0.013,70.91,109.9,40.500977,-3.373546,586.3,4,5,237.7,1.055
72.25,1,-0.014,0.004,-0.008,-0.004,0.003,-0.008,-1.577,0.014,0.012,70.91,109.9,40.500977,-3.373546,586.3,4,5,237.7,1.055
72.35,1,0.016,0.025,-0.007,0.005,0.013,-0.007,-1.576,0.011,0.012,70.91,109.9,40.500977,-3.373546,586.3,4,5,237.7,1.055
72.45,1,-0.032,0.026,-0.012,-0.005,0.021,-0.011,-1.573,0.009,0.012,70.91,109.9,40.500977,-3.373546,586.3,4,5,237.7,1.055
72.56,1,-0.05,-0.007,-0.003,-0.035,0.014,-0.008,-1.573,0.01,0.012,70.91,109.9,40.500977,-3.373546,586.3,4,5,237.7,1.055
72.65,1,0.0,-0.016,0.005,-0.023,-0.008,0.001,-1.573,0.012,0.012,71.9,109.9,40.500832,-3.373848,586.3,4,5,237.7,1.055
72.75,1,0.012,-0.005,-0.009,-0.007,-0.006,-0.004,-1.572,0.01,0.011,71.9,109.9,40.500832,-3.373848,586.3,4,5,237.7,1.055
72.85,1,0.002,0.01,0.013,0.003,0.0,0.002,-1.573,0.009,0.011,71.9,109.9,40.500832,-3.373848,586.3,4,5,237.7,1.055
72.96,1,-0.031,0.009,0.001,-0.015,0.006,0.006,-1.574,0.006,0.011,71.9,109.9,40.500832,-3.373848,586.3,4,5,237.7,1.055
73.05,1,0.038,0.011,0.002,0.003,0.007,0.005,-1.573,0.005,0.01,71.9,109.9,40.500832,-3.373848,586.3,4,5,237.7,1.055
73.16,1,-0.041,-0.018,-0.004,-0.0,-0.004,-0.001,-1.573,0.005,0.01,71.9,109.9,40.500832,-3.373848,586.3,4,5,237.7,1.055
73.25,1,-0.035,0.013,-0.001,-0.033,0.004,-0.006,-1.572,0.005,0.01,71.9,109.9,40.500832,-3.373848,586.3,4,5,237.7,1.055
73.35,1,0.012,0.002,-0.0,-0.009,0.004,0.002,-1.573,0.006,0.01,71.9,109.9,40.500832,-3.373848,586.3,4,5,237.7,1.055
73.45,1,0.012,-0.035,-0.02,0.01,-0.01,-0.008,-1.571,0.009,0.01,71.9,109.9,40.500832,-3.373848,586.3,4,5,237.7,1.055
73.56,1,-0.017,-0.015,0.006,-0.004,-0.02,-0.006,-1.572,0.01,0.011,71.9,109.9,40.500832,-3.373848,586.3,4,5,237.7,1.055
73.66,1,0.005,-0.02,-0.003,0.0,-0.018,-0.004,-1.572,0.009,0.011,72.83,110.1,40.500675,-3.374163,587.0,4,5,237.0,0.703
73.76,1,-0.017,-0.006,-0.0,-0.007,-0.013,0.001,-1.572,0.01,0.012,72.83,110.1,40.500675,-3.374163,587.0,4,5,237.0,0.703
73.86,1,-0.01,-0.018,-0.0,-0.014,-0.014,-0.002,-1.571,0.012,0.012,72.83,110.1,40.500675,-3.374163,587.0,4,5,237.0,0.703
73.96,1,-0.01,-0.018,-0.004,-0.01,-0.013,-0.002,-1.571,0.012,0.012,72.83,110.1,40.500675,-3.374163,587.0,4,5,237.0,0.703
74.06,1,-0.011,-0.001,-0.003,-0.018,-0.013,-0.005,-1.57,0.012,0.012,72.83,110.1,40.500675,-3.374163,587.0,4,5,237.0,0.703
74.16,1,-0.003,-0.008,0.008,-0.001,-0.005,0.004,-1.571,0.009,0.012,72.83,110.1,40.500675,-3.374163,587.0,4,5,237.0,0.703
74.26,1,0.014,-0.014,-0.005,0.001,-0.01,0.002,-1.571,0.01,0.013,72.83,110.1,40.500675,-3.374163,587.0,4,5,237.0,0.703
74.37,1,-0.008,-0.004,0.001,-0.001,-0.01,-0.002,-1.57,0.009,0.013,72.83,110.1,40.500675,-3.374163,587.0,4,5,237.0,0.703
74.46,1,-0.036,-0.028,-0.006,-0.011,-0.013,0.003,-1.571,0.011,0.014,72.83,110.1,40.500675,-3.374163,587.0,4,5,237.0,0.703
74.56,1,-0.068,-0.038,-0.001,-0.041,-0.025,-0.009,-1.573,0.012,0.014,72.83,110.1,40.500675,-3.374163,587.0,4,5,237.0,0.703
74.66,1,-0.027,-0.011,-0.004,-0.044,-0.021,-0.003,-1.573,0.015,0.014,73.87,110.7,40.500523,-3.37447,587.2,4,5,237.7,0.703
74.76,1,-0.022,0.023,0.001,-0.031,-0.004,-0.001,-1.574,0.015,0.014,73.87,110.7,40.500523,-3.37447,587.2,4,5,237.7,0.703
74.86,1,-0.014,-0.032,-0.001,-0.016,-0.011,0.002,-1.574,0.016,0.014,73.87,110.7,40.500523,-3.37447,587.2,4,5,237.7,0.703
74.97,1,-0.003,0.001,0.011,-0.017,-0.011,0.003,-1.573,0.017,0.014,73.87,110.7,40.500523,-3.37447,587.2,4,5,237.7,0.703
75.07,1,0.016,0.029,-0.012,-0.001,0.006,-0.002,-1.573,0.016,0.014,73.87,110.7,40.500523,-3.37447,587.2,4,5,237.7,0.703
75.16,1,0.006,0.016,0.017,0.008,0.018,0.004,-1.573,0.018,0.014,73.87,110.7,40.500523,-3.37447,587.2,4,5,237.7,0.703
75.26,1,0.014,0.01,-0.013,0.012,0.017,0.0,-1.572,0.017,0.014,73.87,110.7,40.500523,-3.37447,587.2,4,5,237.7,0.703
75.36,1,-0.001,-0.019,0.005,-0.005,-0.006,-0.002,-1.57,0.02,0.014,73.87,110.7,40.500523,-3.37447,587.2,4,5,237.7,0.703
75.46,1,0.045,0.026,-0.006,0.029,0.006,-0.002,-1.569,0.02,0.014,73.87,110.7,40.500523,-3.37447,587.2,4,5,237.7,0.703
75.57,1,-0.015,-0.021,0.007,0.016,0.003,0.001,-1.569,0.017,0.014,73.87,110.7,40.500523,-3.37447,587.2,4,5,237.7,0.703
75.66,1,-0.018,-0.009,0.005,-0.015,-0.01,0.005,-1.57,0.013,0.014,74.83,110.6,40.500374,-3.374767,586.4,4,5,237.0,0.703
75.76,1,0.017,0.005,-0.0,0.007,-0.004,0.002,-1.569,0.012,0.014,74.83,110.6,40.500374,-3.374767,586.4,4,5,237.0,0.703
75.86,1,-0.044,-0.029,0.004,-0.017,-0.012,0.002,-1.569,0.013,0.015,74.83,110.6,40.500374,-3.374767,586.4,4,5,237.0,0.703
75.96,1,0.023,-0.013,-0.004,-0.005,-0.018,0.004,-1.568,0.014,0.015,74.83,110.6,40.500374,-3.374767,586.4,4,5,237.0,0.703
76.06,1,-0.003,-0.016,0.002,0.009,-0.01,-0.001,-1.569,0.015,0.016,74.83,110.6,40.500374,-3.374767,586.4,4,5,237.0,0.703
76.18,1,-0.038,-0.016,0.003,-0.017,-0.017,0.002,-1.57,0.015,0.016,74.83,110.6,40.500374,-3.374767,586.4,4,5,237.0,0.703
76.27,1,-0.039,-0.007,-0.001,-0.033,-0.013,-0.002,-1.569,0.015,0.016,74.83,110.6,40.500374,-3.374767,586.4,4,5,237.0,0.703
76.36,1,-0.03,-0.009,-0.007,-0.031,-0.008,-0.002,-1.569,0.015,0.017,74.83,110.6,40.500374,-3.374767,586.4,4,5,237.0,0.703
76.47,1,-0.026,0.027,-0.008,-0.029,0.006,-0.007,-1.567,0.014,0.017,74.83,110.6,40.500374,-3.374767,586.4,4,5,237.0,0.703
76.56,1,-0.033,0.007,-0.013,-0.03,0.005,-0.008,-1.567,0.013,0.017,74.83,110.6,40.500374,-3.374767,586.4,4,5,237.0,0.703
76.67,1,0.003,0.001,-0.018,-0.015,0.004,-0.013,-1.565,0.011,0.017,75.84,111.1,40.500237,-3.37508,586.1,4,5,237.0,0.703
76.78,1,-0.007,0.028,-0.013,-0.007,0.013,-0.015,-1.564,0.009,0.016,75.84,111.1,40.500237,-3.37508,586.1,4,5,237.0,0.703
76.87,1,-0.03,0.022,-0.017,-0.017,0.025,-0.015,-1.562,0.007,0.016,75.84,111.1,40.500237,-3.37508,586.1,4,5,237.0,0.703
76.97,1,-0.007,0.015,-0.015,-0.019,0.017,-0.015,-1.561,0.006,0.015,75.84,111.1,40.500237,-3.37508,586.1,4,5,237.0,0.703
77.07,1,-0.001,0.018,-0.019,-0.008,0.018,-0.018,-1.56,0.005,0.014,75.84,111.1,40.500237,-3.37508,586.1,4,5,237.0,0.703
77.17,1,-0.021,0.03,-0.013,-0.017,0.024,-0.016,-1.559,0.002,0.013,75.84,111.1,40.500237,-3.37508,586.1,4,5,237.0,0.703
77.27,1,-0.005,0.044,-0.016,-0.01,0.03,-0.014,-1.558,-0.001,0.011,75.84,111.1,40.500237,-3.37508,586.1,4,5,237.0,0.703
77.37,1,-0.012,0.028,-0.007,-0.006,0.036,-0.013,-1.557,-0.006,0.01,75.84,111.1,40.500237,-3.37508,586.1,4,5,237.0,0.703
77.47,1,-0.019,0.042,-0.017,-0.013,0.035,-0.012,-1.556,-0.01,0.008,75.84,111.1,40.500237,-3.37508,586.1,4,5,237.0,0.703
77.57,1,-0.026,0.037,-0.005,-0.024,0.035,-0.009,-1.555,-0.013,0.007,75.84,111.1,40.500237,-3.37508,586.1,4,5,237.0,0.703
77.67,1,0.047,0.016,0.011,0.002,0.033,-0.004,-1.553,-0.015,0.006,76.82,111.5,40.500084,-3.375378,587.5,4,5,236.6,0.352
77.77,1,0.044,-0.005,-0.012,0.034,0.015,-0.0,-1.553,-0.017,0.004,76.82,111.5,40.500084,-3.375378,587.5,4,5,236.6,0.352
77.87,1,-0.045,0.03,-0.004,0.01,0.013,-0.005,-1.552,-0.019,0.003,76.82,111.5,40.500084,-3.375378,587.5,4,5,236.6,0.352
77.98,1,0.01,0.017,-0.009,-0.008,0.019,-0.008,-1.553,-0.019,0.001,76.82,111.5,40.500084,-3.375378,587.5,4,5,236.6,0.352
78.07,1,-0.069,0.016,-0.011,-0.024,0.018,-0.006,-1.553,-0.019,-0.0,76.82,111.5,40.500084,-3.375378,587.5,4,5,236.6,0.352
78.17,1,-0.035,0.02,0.008,-0.049,0.018,-0.005,-1.553,-0.02,-0.002,76.82,111.5,40.500084,-3.375378,587.5,4,5,236.6,0.352
78.27,1,0.034,0.033,-0.004,-0.006,0.023,0.001,-1.554,-0.021,-0.003,76.82,111.5,40.500084,-3.375378,587.5,4,5,236.6,0.352
78.38,1,0.01,0.009,0.007,0.01,0.02,0.0,-1.554,-0.023,-0.005,76.82,111.5,40.500084,-3.375378,587.5,4,5,236.6,0.352
78.47,1,0.027,0.011,0.005,0.015,0.011,0.006,-1.553,-0.024,-0.006,76.82,111.5,40.500084,-3.375378,587.5,4,5,236.6,0.352
78.58,1,0.013,0.008,0.005,0.019,0.014,0.004,-1.553,-0.026,-0.007,76.82,111.5,40.500084,-3.375378,587.5,4,5,236.6,0.352
78.68,1,0.004,0.006,0.001,0.015,0.01,0.003,-1.552,-0.026,-0.009,77.84,112.0,40.499924,-3.375682,588.9,4,5,237.0,0.352
78.77,1,-0.045,-0.028,0.012,-0.013,-0.006,0.006,-1.552,-0.027,-0.009,77.84,112.0,40.499924,-3.375682,588.9,4,5,237.0,0.352
78.87,1,-0.023,0.002,-0.016,-0.026,-0.01,-0.003,-1.551,-0.028,-0.01,77.84,112.0,40.499924,-3.375682,588.9,4,5,237.0,0.352
78.97,1,-0.023,-0.014,-0.0,-0.022,-0.006,-0.002,-1.551,-0.028,-0.01,77.84,112.0,40.499924,-3.375682,588.9,4,5,237.0,0.352
79.08,1,-0.01,-0.005,0.013,-0.021,-0.003,0.0,-1.552,-0.027,-0.01,77.84,112.0,40.499924,-3.375682,588.9,4,5,237.0,0.352
79.18,1,0.018,-0.036,-0.003,0.003,-0.019,0.008,-1.552,-0.027,-0.01,77.84,112.0,40.499924,-3.375682,588.9,4,5,237.0,0.352
79.28,1,-0.035,-0.04,-0.006,-0.012,-0.033,-0.005,-1.551,-0.028,-0.01,77.84,112.0,40.499924,-3.375682,588.9,4,5,237.0,0.352
79.37,1,-0.001,-0.037,0.013,-0.013,-0.037,0.002,-1.553,-0.023,-0.01,77.84,112.0,40.499924,-3.375682,588.9,4,5,237.0,0.352
79.47,1,-0.002,-0.037,-0.006,0.0,-0.034,0.006,-1.554,-0.022,-0.009,77.84,112.0,40.499924,-3.375682,588.9,4,5,237.0,0.352
79.58,1,-0.058,-0.032,-0.014,-0.03,-0.035,-0.005,-1.552,-0.021,-0.009,77.84,112.0,40.499924,-3.375682,588.9,4,5,237.0,0.352
79.68,1,-0.038,-0.034,0.001,-0.047,-0.041,-0.006,-1.552,-0.019,-0.009,78.84,110.8,40.499783,-3.376001,585.8,4,5,237.3,0.703
79.78,1,0.001,-0.015,0.005,-0.02,-0.023,-0.002,-1.552,-0.018,-0.008,78.84,110.8,40.499783,-3.376001,585.8,4,5,237.3,0.703
79.88,1,0.046,-0.012,0.014,0.013,-0.018,0.006,-1.552,-0.018,-0.008,78.84,110.8,40.499783,-3.376001,585.8,4,5,237.3,0.703
79.98,1,0.02,-0.034,-0.008,0.023,-0.023,0.004,-1.551,-0.017,-0.008,78.84,110.8,40.499783,-3.376001,585.8,4,5,237.3,0.703
80.08,1,0.023,-0.019,0.011,0.021,-0.023,0.002,-1.551,-0.014,-0.007,78.84,110.8,40.499783,-3.376001,585.8,4,5,237.3,0.703
80.18,1,0.012,-0.009,0.008,0.019,-0.014,0.006,-1.551,-0.011,-0.007,78.84,110.8,40.499783,-3.376001,585.8,4,5,237.3,0.703
80.28,1,-0.022,-0.035,0.011,0.003,-0.022,0.01,-1.551,-0.008,-0.006,78.84,110.8,40.499783,-3.376001,585.8,4,5,237.3,0.703
80.39,1,-0.033,-0.029,-0.008,-0.015,-0.029,0.001,-1.55,-0.004,-0.006,78.84,110.8,40.499783,-3.376001,585.8,4,5,237.3,0.703
80.48,1,-0.046,-0.008,-0.021,-0.034,-0.016,-0.009,-1.55,-0.003,-0.005,78.84,110.8,40.499783,-3.376001,585.8,4,5,237.3,0.703
80.58,1,-0.061,-0.013,0.011,-0.052,-0.019,-0.002,-1.551,-0.001,-0.005,78.84,110.8,40.499783,-3.376001,585.8,4,5,237.3,0.703
80.68,1,-0.006,-0.014,0.002,-0.033,-0.017,0.002,-1.551,0.001,-0.004,79.9,110.3,40.499634,-3.37631,587.4,4,5,238.0,1.055
80.78,1,0.008,-0.012,0.002,-0.007,-0.016,0.001,-1.551,0.001,-0.004,79.9,110.3,40.499634,-3.37631,587.4,4,5,238.0,1.055
80.88,1,0.034,-0.022,-0.016,0.01,-0.01,-0.006,-1.55,0.002,-0.004,79.9,110.3,40.499634,-3.37631,587.4,4,5,238.0,1.055
80.99,1,-0.016,-0.004,-0.004,0.009,-0.011,-0.006,-1.55,0.002,-0.004,79.9,110.3,40.499634,-3.37631,587.4,4,5,238.0,1.055
81.08,1,0.001,-0.0,0.003,-0.008,-0.006,-0.003,-1.55,0.001,-0.004,79.9,110.3,40.499634,-3.37631,587.4,4,5,238.0,1.055
81.18,1,-0.043,0.008,-0.005,-0.016,-0.002,0.002,-1.55,-0.003,-0.004,79.9,110.3,40.499634,-3.37631,587.4,4,5,238.0,1.055
81.28,1,-0.032,-0.008,-0.005,-0.026,-0.002,-0.006,-1.549,-0.005,-0.004,79.9,110.3,40.499634,-3.37631,587.4,4,5,238.0,1.055
81.38,1,-0.035,0.007,0.009,-0.034,0.004,-0.001,-1.55,-0.006,-0.004,79.9,110.3,40.499634,-3.37631,587.4,4,5,238.0,1.055
81.49,1,-0.006,0.007,0.011,-0.026,0.005,0.007,-1.551,-0.007,-0.004,79.9,110.3,40.499634,-3.37631,587.4,4,5,238.0,1.055
81.59,1,0.032,-0.007,-0.016,0.006,-0.001,-0.004,-1.55,-0.005,-0.004,79.9,110.3,40.499634,-3.37631,587.4,4,5,238.0,1.055
81.68,1,0.022,0.008,0.014,0.017,0.001,0.004,-1.551,-0.003,-0.005,80.88,110.7,40.499485,-3.376618,586.3,4,5,237.7,0.352
81.78,1,-0.021,-0.02,0.005,0.009,-0.005,0.006,-1.551,-0.003,-0.005,80.88,110.7,40.499485,-3.376618,586.3,4,5,237.7,0.352
81.88,1,-0.017,-0.045,-0.008,-0.017,-0.026,-0.0,-1.55,-0.003,-0.005,80.88,110.7,40.499485,-3.376618,586.3,4,5,237.7,0.352
81.98,1,-0.0,0.0,0.008,-0.002,-0.018,-0.001,-1.55,-0.003,-0.004,80.88,110.7,40.499485,-3.376618,586.3,4,5,237.7,0.352
82.09,1,-0.035,-0.022,-0.001,-0.018,-0.015,0.0,-1.551,-0.001,-0.004,80.88,110.7,40.499485,-3.376618,586.3,4,5,237.7,0.352
82.19,1,-0.011,-0.006,0.017,-0.015,-0.014,0.01,-1.552,0.001,-0.004,80.88,110.7,40.499485,-3.376618,586.3,4,5,237.7,0.352
82.29,1,-0.008,-0.002,-0.013,-0.013,-0.01,-0.0,-1.552,0.004,-0.003,80.88,110.7,40.499485,-3.376618,586.3,4,5,237.7,0.352
82.38,1,-0.012,-0.014,-0.004,-0.019,-0.007,-0.004,-1.553,0.005,-0.003,80.88,110.7,40.499485,-3.376618,586.3,4,5,237.7,0.352
82.48,1,-0.037,-0.01,0.016,-0.02,-0.007,0.007,-1.555,0.009,-0.003,80.88,110.7,40.499485,-3.376618,586.3,4,5,237.7,0.352
82.58,1,-0.049,-0.014,0.015,-0.04,-0.007,0.01,-1.556,0.01,-0.003,80.88,110.7,40.499485,-3.376618,586.3,4,5,237.7,0.352
82.69,1,0.051,0.03,-0.001,0.001,0.003,0.009,-1.555,0.01,-0.003,81.84,109.8,40.49934,-3.376915,585.5,4,5,237.3,0.703
82.79,1,0.066,0.018,-0.003,0.035,0.013,-0.003,-1.554,0.011,-0.003,81.84,109.8,40.49934,-3.376915,585.5,4,5,237.3,0.703
82.89,1,-0.016,-0.013,-0.008,0.026,0.002,-0.001,-1.554,0.013,-0.002,81.84,109.8,40.49934,-3.376915,585.5,4,5,237.3,0.703
82.99,1,-0.083,-0.03,0.014,-0.024,-0.011,0.004,-1.553,0.011,-0.002,81.84,109.8,40.49934,-3.376915,585.5,4,5,237.3,0.703
83.09,1,-0.034,0.008,0.011,-0.052,-0.014,0.008,-1.551,0.008,-0.002,81.84,109.8,40.49934,-3.376915,585.5,4,5,237.3,0.703
83.19,1,-0.014,-0.003,-0.014,-0.024,0.001,-0.001,-1.551,0.01,-0.002,81.84,109.8,40.49934,-3.376915,585.5,4,5,237.3,0.703
83.29,1,-0.04,-0.032,0.018,-0.036,-0.016,0.002,-1.552,0.014,-0.002,81.84,109.8,40.49934,-3.376915,585.5,4,5,237.3,0.703
83.39,1,0.004,-0.017,0.004,-0.012,-0.017,0.011,-1.553,0.015,-0.001,81.84,109.8,40.49934,-3.376915,585.5,4,5,237.3,0.703
83.49,1,0.016,-0.008,-0.001,-0.006,-0.011,-0.003,-1.554,0.014,-0.001,81.84,109.8,40.49934,-3.376915,585.5,4,5,237.3,0.703
83.59,1,0.018,-0.016,0.011,0.015,-0.019,0.01,-1.555,0.016,-0.001,81.84,109.8,40.49934,-3.376915,585.5,4,5,237.3,0.703
83.69,1,-0.061,-0.015,0.003,-0.019,-0.012,0.005,-1.556,0.019,-0.0,82.83,109.9,40.499191,-3.377216,585.5,4,5,237.3,0.352
83.79,1,-0.007,-0.025,-0.012,-0.029,-0.021,-0.001,-1.556,0.023,0.0,82.83,109.9,40.499191,-3.377216,585.5,4,5,237.3,0.352
83.9,1,0.061,0.002,0.012,0.015,-0.011,0.006,-1.557,0.024,0.001,82.83,109.9,40.499191,-3.377216,585.5,4,5,237.3,0.352
83.99,1,0.049,-0.003,0.005,0.044,-0.002,0.001,-1.557,0.025,0.002,82.83,109.9,40.499191,-3.377216,585.5,4,5,237.3,0.352
84.09,1,-0.059,-0.044,-0.01,0.006,-0.026,-0.002,-1.557,0.025,0.003,82.83,109.9,40.499191,-3.377216,585.5,4,5,237.3,0.352
84.19,1,-0.115,-0.008,0.001,-0.059,-0.02,-0.002,-1.557,0.022,0.003,82.83,109.9,40.499191,-3.377216,585.5,4,5,237.3,0.352
84.29,1,-0.034,-0.015,0.007,-0.065,-0.019,0.002,-1.558,0.024,0.004,82.83,109.9,40.499191,-3.377216,585.5,4,5,237.3,0.352
84.39,1,0.007,-0.014,-0.018,-0.031,-0.012,-0.007,-1.558,0.026,0.004,82.83,109.9,40.499191,-3.377216,585.5,4,5,237.3,0.352
84.49,1,0.032,0.028,0.003,0.005,0.0,-0.001,-1.558,0.025,0.004,82.83,109.9,40.499191,-3.377216,585.5,4,5,237.3,0.352
84.59,1,0.027,0.02,0.003,0.017,0.015,-0.001,-1.559,0.027,0.004,82.83,109.9,40.499191,-3.377216,585.5,4,5,237.3,0.352
84.69,1,0.017,-0.007,-0.008,0.027,0.013,-0.002,-1.557,0.024,0.004,83.84,109.4,40.499039,-3.377527,585.6,4,5,237.3,0.0
84.79,1,-0.025,-0.02,-0.011,0.002,-0.012,-0.009,-1.557,0.022,0.004,83.84,109.4,40.499039,-3.377527,585.6,4,5,237.3,0.0
84.89,1,-0.031,0.035,-0.007,-0.013,0.013,-0.006,-1.557,0.019,0.003,83.84,109.4,40.499039,-3.377527,585.6,4,5,237.3,0.0
84.99,1,-0.075,-0.006,0.002,-0.049,0.007,-0.005,-1.557,0.021,0.003,83.84,109.4,40.499039,-3.377527,585.6,4,5,237.3,0.0
85.1,1,0.011,0.016,0.005,-0.028,0.006,0.003,-1.558,0.02,0.002,83.84,109.4,40.499039,-3.377527,585.6,4,5,237.3,0.0
85.2,1,0.022,0.023,-0.021,0.004,0.019,-0.01,-1.556,0.019,0.002,83.84,109.4,40.499039,-3.377527,585.6,4,5,237.3,0.0
85.29,1,0.002,-0.007,0.009,0.004,0.009,-0.002,-1.558,0.019,0.002,83.84,109.4,40.499039,-3.377527,585.6,4,5,237.3,0.0
85.39,1,-0.022,-0.014,0.008,-0.003,-0.006,0.004,-1.559,0.019,0.001,83.84,109.4,40.499039,-3.377527,585.6,4,5,237.3,0.0
85.49,1,-0.021,-0.017,-0.025,-0.018,-0.009,-0.007,-1.558,0.017,0.001,83.84,109.4,40.499039,-3.377527,585.6,4,5,237.3,0.0
85.59,1,-0.006,0.01,-0.007,-0.01,-0.006,-0.011,-1.556,0.018,0.001,83.84,109.4,40.499039,-3.377527,585.6,4,5,237.3,0.0
85.71,1,-0.036,0.021,-0.012,-0.022,0.011,-0.012,-1.556,0.016,0.001,84.89,109.3,40.498882,-3.377829,585.8,4,5,236.6,0.703
85.8,1,-0.074,0.0,0.01,-0.046,0.009,-0.002,-1.556,0.017,0.001,84.89,109.3,40.498882,-3.377829,585.8,4,5,236.6,0.703
85.9,1,-0.02,-0.04,0.021,-0.046,-0.017,0.011,-1.558,0.021,0.002,84.89,109.3,40.498882,-3.377829,585.8,4,5,236.6,0.703
86.0,1,0.013,-0.029,-0.012,-0.014,-0.027,0.005,-1.558,0.024,0.003,84.89,109.3,40.498882,-3.377829,585.8,4,5,236.6,0.703
86.1,1,0.007,-0.016,-0.005,0.002,-0.022,-0.004,-1.558,0.026,0.004,84.89,109.3,40.498882,-3.377829,585.8,4,5,236.6,0.703
86.2,1,-0.017,-0.008,0.011,-0.003,-0.015,-0.001,-1.558,0.027,0.005,84.89,109.3,40.498882,-3.377829,585.8,4,5,236.6,0.703
86.3,1,0.012,-0.046,-0.005,-0.004,-0.026,0.001,-1.557,0.03,0.006,84.89,109.3,40.498882,-3.377829,585.8,4,5,236.6,0.703
86.4,1,-0.004,-0.028,-0.0,0.004,-0.029,-0.0,-1.556,0.031,0.007,84.89,109.3,40.498882,-3.377829,585.8,4,5,236.6,0.703
86.51,1,-0.026,-0.022,0.009,-0.015,-0.025,0.003,-1.555,0.033,0.008,84.89,109.3,40.498882,-3.377829,585.8,4,5,236.6,0.703
86.6,1,0.003,-0.008,0.0,-0.009,-0.021,0.006,-1.556,0.033,0.008,84.89,109.3,40.498882,-3.377829,585.8,4,5,236.6,0.703
86.7,1,0.016,0.041,0.006,0.005,0.007,0.005,-1.556,0.03,0.008,85.85,109.6,40.49873,-3.378129,585.2,4,5,236.6,0.703
86.8,1,0.031,0.012,-0.008,0.019,0.017,-0.003,-1.556,0.028,0.008,85.85,109.6,40.49873,-3.378129,585.2,4,5,236.6,0.703
86.9,1,0.001,0.005,0.006,0.016,0.014,-0.002,-1.555,0.025,0.007,85.85,109.6,40.49873,-3.378129,585.2,4,5,236.6,0.703
87.0,1,-0.052,0.019,-0.001,-0.02,0.014,0.001,-1.555,0.024,0.007,85.85,109.6,40.49873,-3.378129,585.2,4,5,236.6,0.703
87.11,1,-0.042,0.027,0.006,-0.037,0.02,0.003,-1.555,0.023,0.006,85.85,109.6,40.49873,-3.378129,585.2,4,5,236.6,0.703
87.2,1,-0.019,-0.0,0.002,-0.031,0.01,0.003,-1.555,0.024,0.006,85.85,109.6,40.49873,-3.378129,585.2,4,5,236.6,0.703
87.3,1,-0.005,0.006,-0.013,-0.014,0.009,-0.003,-1.555,0.024,0.006,85.85,109.6,40.49873,-3.378129,585.2,4,5,236.6,0.703
87.4,1,-0.029,0.016,0.011,-0.017,0.01,-0.0,-1.555,0.024,0.006,85.85,109.6,40.49873,-3.378129,585.2,4,5,236.6,0.703
87.51,1,-0.056,0.005,0.006,-0.04,0.012,0.009,-1.555,0.025,0.006,85.85,109.6,40.49873,-3.378129,585.2,4,5,236.6,0.703
87.6,1,0.01,-0.006,0.004,-0.023,0.001,0.002,-1.556,0.024,0.007,85.85,109.6,40.49873,-3.378129,585.2,4,5,236.6,0.703
87.71,1,-0.034,-0.006,-0.025,-0.018,0.002,-0.006,-1.555,0.024,0.007,86.89,108.2,40.498581,-3.378422,584.8,4,5,236.6,0.0
87.8,1,-0.035,-0.016,0.017,-0.03,-0.013,-0.006,-1.556,0.019,0.006,86.89,108.2,40.498581,-3.378422,584.8,4,5,236.6,0.0
87.9,1,0.029,0.003,0.012,-0.006,-0.008,0.01,-1.557,0.015,0.006,86.89,108.2,40.498581,-3.378422,584.8,4,5,236.6,0.0
88.0,1,0.06,0.045,-0.0,0.028,0.019,0.008,-1.556,0.01,0.006,86.89,108.2,40.498581,-3.378422,584.8,4,5,236.6,0.0
88.11,1,-0.011,-0.005,0.0,0.02,0.014,-0.001,-1.555,0.011,0.005,86.89,108.2,40.498581,-3.378422,584.8,4,5,236.6,0.0
88.2,1,-0.017,-0.011,0.005,0.001,-0.003,0.006,-1.555,0.014,0.005,86.89,108.2,40.498581,-3.378422,584.8,4,5,236.6,0.0
88.3,1,-0.061,-0.013,0.012,-0.03,-0.009,0.005,-1.555,0.013,0.005,86.89,108.2,40.498581,-3.378422,584.8,4,5,236.6,0.0
88.4,1,-0.013,0.002,-0.014,-0.037,-0.007,-0.0,-1.554,0.013,0.005,86.89,108.2,40.498581,-3.378422,584.8,4,5,236.6,0.0
88.51,1,0.026,0.0,0.001,-0.002,0.005,-0.003,-1.553,0.013,0.005,86.89,108.2,40.498581,-3.378422,584.8,4,5,236.6,0.0
88.6,1,-0.03,-0.023,-0.017,-0.006,-0.01,-0.01,-1.552,0.014,0.006,86.89,108.2,40.498581,-3.378422,584.8,4,5,236.6,0.0
88.71,1,-0.035,-0.047,0.027,-0.028,-0.03,0.006,-1.554,0.018,0.007,87.86,108.8,40.498428,-3.378714,584.9,4,5,236.2,0.352
88.81,1,0.016,-0.015,-0.004,-0.005,-0.034,0.007,-1.553,0.018,0.007,87.86,108.8,40.498428,-3.378714,584.9,4,5,236.2,0.352
88.92,1,-0.004,-0.035,-0.005,0.001,-0.021,-0.002,-1.553,0.02,0.008,87.86,108.8,40.498428,-3.378714,584.9,4,5,236.2,0.352
89.02,1,0.001,-0.028,-0.0,-0.004,-0.034,-0.001,-1.554,0.021,0.009,87.86,108.8,40.498428,-3.378714,584.9,4,5,236.2,0.352
89.11,1,-0.003,-0.016,0.012,0.001,-0.022,0.006,-1.553,0.023,0.01,87.86,108.8,40.498428,-3.378714,584.9,4,5,236.2,0.352
89.21,1,0.008,-0.017,-0.006,-0.0,-0.02,0.001,-1.552,0.024,0.011,87.86,108.8,40.498428,-3.378714,584.9,4,5,236.2,0.352
89.31,1,-0.006,-0.005,0.008,0.01,-0.009,0.005,-1.552,0.026,0.011,87.86,108.8,40.498428,-3.378714,584.9,4,5,236.2,0.352
89.41,1,-0.055,-0.019,-0.001,-0.03,-0.016,0.001,-1.553,0.028,0.012,87.86,108.8,40.498428,-3.378714,584.9,4,5,236.2,0.352
89.51,1,0.011,-0.0,0.01,-0.021,-0.012,0.005,-1.554,0.028,0.013,87.86,108.8,40.498428,-3.378714,584.9,4,5,236.2,0.352
89.61,1,0.001,-0.012,0.008,-0.001,-0.003,0.004,-1.554,0.027,0.013,87.86,108.8,40.498428,-3.378714,584.9,4,5,236.2,0.352
89.71,1,0.012,-0.008,-0.005,-0.0,-0.017,0.004,-1.553,0.029,0.014,88.88,108.5,40.498283,-3.379005,584.9,4,5,236.2,0.352
89.81,1,0.006,0.006,0.006,0.012,0.003,0.002,-1.553,0.028,0.014,88.88,108.5,40.498283,-3.379005,584.9,4,5,236.2,0.352
90.01,1,0.005,0.015,0.017,-0.014,0.017,0.014,-1.554,0.026,0.014,88.88,108.5,40.498283,-3.379005,584.9,4,5,236.2,0.352
90.11,1,0.011,0.022,-0.006,0.004,0.016,0.006,-1.553,0.026,0.014,88.88,108.5,40.498283,-3.379005,584.9,4,5,236.2,0.352
90.21,1,-0.03,-0.002,0.0,-0.012,0.011,-0.0,-1.553,0.026,0.014,88.88,108.5,40.498283,-3.379005,584.9,4,5,236.2,0.352
90.31,1,-0.014,-0.003,0.019,-0.019,0.004,0.01,-1.556,0.023,0.015,88.88,108.5,40.498283,-3.379005,584.9,4,5,236.2,0.352
90.41,1,0.011,0.028,0.006,-0.003,0.011,0.006,-1.556,0.021,0.014,88.88,108.5,40.498283,-3.379005,584.9,4,5,236.2,0.352
90.51,1,0.011,-0.005,-0.013,0.009,0.01,0.004,-1.555,0.02,0.014,88.88,108.5,40.498283,-3.379005,584.9,4,5,236.2,0.352
90.61,1,-0.003,-0.02,0.017,0.01,-0.006,0.001,-1.555,0.021,0.014,88.88,108.5,40.498283,-3.379005,584.9,4,5,236.2,0.352
90.72,1,-0.044,-0.003,-0.007,-0.022,-0.007,0.001,-1.556,0.019,0.013,88.88,108.5,40.498283,-3.379005,584.9,4,5,236.2,0.352
90.82,1,0.033,0.056,0.01,-0.005,0.022,0.006,-1.556,0.016,0.013,89.82,108.7,40.498135,-3.3793,585.3,4,5,236.2,0.0
90.91,1,-0.02,-0.001,0.009,0.008,0.019,0.007,-1.557,0.015,0.013,89.82,108.7,40.498135,-3.3793,585.3,4,5,236.2,0.0
91.01,1,0.008,-0.008,-0.021,-0.009,-0.001,-0.004,-1.558,0.015,0.012,89.82,108.7,40.498135,-3.3793,585.3,4,5,236.2,0.0
91.11,1,-0.012,-0.002,0.01,0.002,0.003,-0.003,-1.559,0.013,0.012,89.82,108.7,40.498135,-3.3793,585.3,4,5,236.2,0.0
91.21,1,-0.052,0.008,-0.002,-0.033,0.003,0.002,-1.56,0.01,0.011,89.82,108.7,40.498135,-3.3793,585.3,4,5,236.2,0.0
91.32,1,-0.013,-0.006,0.002,-0.026,-0.002,0.0,-1.559,0.009,0.011,89.82,108.7,40.498135,-3.3793,585.3,4,5,236.2,0.0
91.42,1,-0.047,-0.006,-0.007,-0.026,0.001,0.0,-1.559,0.009,0.011,89.82,108.7,40.498135,-3.3793,585.3,4,5,236.2,0.0
91.51,1,-0.016,0.009,-0.003,-0.03,-0.004,-0.006,-1.56,0.012,0.011,89.82,108.7,40.498135,-3.3793,585.3,4,5,236.2,0.0
91.61,1,0.025,-0.003,-0.008,-0.005,0.005,-0.006,-1.559,0.011,0.01,89.82,108.7,40.498135,-3.3793,585.3,4,5,236.2,0.0
91.72,1,0.024,0.011,-0.009,0.014,0.006,-0.005,-1.558,0.011,0.01,89.82,108.7,40.498135,-3.3793,585.3,4,5,236.2,0.0
91.81,1,-0.038,-0.001,0.003,-0.007,0.001,-0.006,-1.558,0.01,0.009,90.91,108.3,40.497982,-3.379591,584.7,4,5,235.9,0.352
91.92,1,-0.0,0.017,0.013,-0.019,0.008,0.003,-1.558,0.009,0.009,90.91,108.3,40.497982,-3.379591,584.7,4,5,235.9,0.352
92.02,1,0.04,0.0,0.002,0.011,0.007,0.006,-1.558,0.007,0.008,90.91,108.3,40.497982,-3.379591,584.7,4,5,235.9,0.352
92.12,1,-0.004,-0.02,-0.001,0.017,-0.007,0.006,-1.558,0.007,0.007,90.91,108.3,40.497982,-3.379591,584.7,4,5,235.9,0.352
92.22,1,-0.036,-0.014,-0.004,-0.009,-0.016,-0.005,-1.557,0.006,0.007,90.91,108.3,40.497982,-3.379591,584.7,4,5,235.9,0.352
92.32,1,-0.056,0.032,-0.008,-0.028,0.008,-0.005,-1.557,0.003,0.006,90.91,108.3,40.497982,-3.379591,584.7,4,5,235.9,0.352
92.42,1,-0.001,0.035,0.021,-0.035,0.024,0.006,-1.558,0.002,0.005,90.91,108.3,40.497982,-3.379591,584.7,4,5,235.9,0.352
92.53,1,0.008,0.019,-0.011,-0.001,0.025,0.006,-1.557,0.002,0.004,90.91,108.3,40.497982,-3.379591,584.7,4,5,235.9,0.352
92.63,1,-0.033,0.022,-0.012,-0.018,0.018,-0.008,-1.557,-0.001,0.003,90.91,108.3,40.497982,-3.379591,584.7,4,5,235.9,0.352
92.72,1,-0.02,0.025,0.011,-0.021,0.024,-0.002,-1.557,-0.003,0.001,90.91,108.3,40.497982,-3.379591,584.7,4,5,235.9,0.352
92.82,1,0.016,0.039,0.002,-0.011,0.035,0.003,-1.557,-0.005,-0.001,91.82,108.0,40.497837,-3.379873,584.6,4,5,235.5,0.703
92.92,1,-0.013,0.0,-0.008,-0.0,0.021,-0.002,-1.556,-0.006,-0.002,91.82,108.0,40.497837,-3.379873,584.6,4,5,235.5,0.703
93.02,1,-0.016,0.006,0.011,-0.01,0.008,0.001,-1.556,-0.006,-0.003,91.82,108.0,40.497837,-3.379873,584.6,4,5,235.5,0.703
93.12,1,0.026,0.008,0.015,0.002,0.007,0.008,-1.557,-0.01,-0.005,91.82,108.0,40.497837,-3.379873,584.6,4,5,235.5,0.703
93.22,1,0.012,0.017,0.01,0.014,0.01,0.013,-1.557,-0.011,-0.006,91.82,108.0,40.497837,-3.379873,584.6,4,5,235.5,0.703
93.32,1,-0.023,0.004,-0.01,-0.004,0.013,0.002,-1.557,-0.012,-0.007,91.82,108.0,40.497837,-3.379873,584.6,4,5,235.5,0.703
93.42,1,-0.03,0.009,0.011,-0.023,0.009,0.002,-1.557,-0.011,-0.008,91.82,108.0,40.497837,-3.379873,584.6,4,5,235.5,0.703
93.52,1,-0.034,-0.007,0.011,-0.023,0.001,0.008,-1.559,-0.01,-0.009,91.82,108.0,40.497837,-3.379873,584.6,4,5,235.5,0.703
93.62,1,-0.013,-0.021,-0.0,-0.021,-0.01,0.004,-1.56,-0.01,-0.009,91.82,108.0,40.497837,-3.379873,584.6,4,5,235.5,0.703
93.73,1,-0.022,0.0,-0.019,-0.018,-0.008,-0.008,-1.558,-0.008,-0.009,91.82,108.0,40.497837,-3.379873,584.6,4,5,235.5,0.703
93.83,1,0.0,-0.04,0.005,-0.016,-0.017,-0.002,-1.559,-0.003,-0.009,92.85,108.1,40.497684,-3.380167,584.1,4,5,235.9,0.352
93.92,1,-0.008,-0.047,-0.013,-0.012,-0.035,-0.005,-1.559,0.0,-0.009,92.85,108.1,40.497684,-3.380167,584.1,4,5,235.9,0.352
94.02,1,-0.015,-0.043,0.002,-0.012,-0.043,-0.005,-1.559,0.004,-0.008,92.85,108.1,40.497684,-3.380167,584.1,4,5,235.9,0.352
94.12,1,0.024,-0.027,-0.007,0.005,-0.037,-0.004,-1.56,0.007,-0.007,92.85,108.1,40.497684,-3.380167,584.1,4,5,235.9,0.352
94.22,1,0.02,-0.034,-0.008,0.016,-0.034,-0.008,-1.558,0.01,-0.006,92.85,108.1,40.497684,-3.380167,584.1,4,5,235.9,0.352
94.32,1,0.003,-0.016,-0.006,0.011,-0.022,-0.009,-1.557,0.012,-0.005,92.85,108.1,40.497684,-3.380167,584.1,4,5,235.9,0.352
94.42,1,-0.018,-0.03,-0.014,-0.006,-0.025,-0.007,-1.556,0.014,-0.005,92.85,108.1,40.497684,-3.380167,584.1,4,5,235.9,0.352
94.52,1,-0.008,-0.022,0.003,-0.01,-0.025,-0.004,-1.557,0.016,-0.004,92.85,108.1,40.497684,-3.380167,584.1,4,5,235.9,0.352
94.62,1,-0.023,0.006,0.007,-0.011,-0.013,0.0,-1.557,0.017,-0.004,92.85,108.1,40.497684,-3.380167,584.1,4,5,235.9,0.352
94.73,1,-0.036,-0.025,-0.005,-0.027,-0.011,-0.002,-1.558,0.017,-0.003,92.85,108.1,40.497684,-3.380167,584.1,4,5,235.9,0.352
94.82,1,0.002,-0.02,-0.005,-0.021,-0.024,-0.004,-1.558,0.02,-0.002,93.83,108.5,40.497528,-3.380458,583.7,4,5,236.6,1.055
94.94,1,-0.011,-0.001,0.006,-0.002,-0.01,0.005,-1.558,0.021,-0.002,93.83,108.5,40.497528,-3.380458,583.7,4,5,236.6,1.055
95.04,1,-0.049,-0.041,0.001,-0.024,-0.018,-0.003,-1.559,0.022,-0.001,93.83,108.5,40.497528,-3.380458,583.7,4,5,236.6,1.055
95.13,1,0.009,-0.021,0.004,-0.025,-0.029,0.004,-1.561,0.021,-0.001,93.83,108.5,40.497528,-3.380458,583.7,4,5,236.6,1.055
95.23,1,-0.0,0.014,0.001,-0.005,-0.006,0.002,-1.561,0.021,-0.0,93.83,108.5,40.497528,-3.380458,583.7,4,5,236.6,1.055
95.33,1,-0.028,-0.015,0.006,-0.021,-0.006,0.004,-1.562,0.02,0.0,93.83,108.5,40.497528,-3.380458,583.7,4,5,236.6,1.055
95.43,1,0.031,-0.017,-0.018,0.004,-0.016,-0.005,-1.561,0.021,0.001,93.83,108.5,40.497528,-3.380458,583.7,4,5,236.6,1.055
95.53,1,0.009,-0.013,-0.012,0.019,-0.015,-0.013,-1.561,0.021,0.001,93.83,108.5,40.497528,-3.380458,583.7,4,5,236.6,1.055
95.63,1,-0.026,-0.01,0.01,-0.002,-0.012,-0.003,-1.561,0.022,0.002,93.83,108.5,40.497528,-3.380458,583.7,4,5,236.6,1.055
95.73,1,-0.019,0.004,0.007,-0.014,-0.006,0.005,-1.562,0.023,0.002,93.83,108.5,40.497528,-3.380458,583.7,4,5,236.6,1.055
95.83,1,0.009,0.01,-0.003,-0.008,-0.0,0.002,-1.561,0.023,0.002,94.84,108.7,40.497383,-3.380752,583.5,4,5,237.0,1.055
95.93,1,0.015,-0.005,-0.014,0.003,0.005,-0.006,-1.56,0.022,0.002,94.84,108.7,40.497383,-3.380752,583.5,4,5,237.0,1.055
96.03,1,0.013,-0.013,0.001,0.012,-0.003,-0.003,-1.56,0.023,0.002,94.84,108.7,40.497383,-3.380752,583.5,4,5,237.0,1.055
96.13,1,0.009,0.008,-0.012,0.015,-0.005,-0.007,-1.56,0.021,0.002,94.84,108.7,40.497383,-3.380752,583.5,4,5,237.0,1.055
96.23,1,-0.053,0.039,-0.009,-0.009,0.015,-0.012,-1.559,0.018,0.002,94.84,108.7,40.497383,-3.380752,583.5,4,5,237.0,1.055
96.33,1,-0.051,0.023,0.009,-0.044,0.027,-0.002,-1.559,0.018,0.002,94.84,108.7,40.497383,-3.380752,583.5,4,5,237.0,1.055
96.43,1,-0.036,-0.001,-0.009,-0.04,0.019,0.001,-1.562,0.019,0.002,94.84,108.7,40.497383,-3.380752,583.5,4,5,237.0,1.055
96.53,1,-0.004,0.027,0.009,-0.029,0.013,0.003,-1.564,0.021,0.002,94.84,108.7,40.497383,-3.380752,583.5,4,5,237.0,1.055
96.64,1,0.024,0.019,-0.012,0.005,0.018,-0.003,-1.562,0.023,0.002,94.84,108.7,40.497383,-3.380752,583.5,4,5,237.0,1.055
96.73,1,-0.025,0.015,-0.02,-0.007,0.015,-0.015,-1.561,0.023,0.001,94.84,108.7,40.497383,-3.380752,583.5,4,5,237.0,1.055
96.84,1,-0.05,0.003,0.003,-0.031,0.01,-0.008,-1.561,0.021,0.001,95.84,107.1,40.497234,-3.381045,583.6,4,5,236.2,0.703
96.93,1,-0.03,0.028,0.007,-0.032,0.017,-0.0,-1.562,0.02,0.001,95.84,107.1,40.497234,-3.381045,583.6,4,5,236.2,0.703
97.03,1,-0.033,0.005,0.012,-0.034,0.014,0.007,-1.562,0.021,0.001,95.84,107.1,40.497234,-3.381045,583.6,4,5,236.2,0.703
97.13,1,-0.013,0.008,-0.009,-0.026,0.012,-0.001,-1.563,0.021,0.001,95.84,107.1,40.497234,-3.381045,583.6,4,5,236.2,0.703
97.23,1,-0.009,-0.012,0.006,-0.016,0.002,0.003,-1.563,0.02,0.0,95.84,107.1,40.497234,-3.381045,583.6,4,5,236.2,0.703
97.34,1,0.002,0.015,-0.004,-0.002,0.002,0.0,-1.563,0.021,0.0,95.84,107.1,40.497234,-3.381045,583.6,4,5,236.2,0.703
97.44,1,-0.054,0.009,0.006,-0.023,0.01,-0.002,-1.563,0.02,0.0,95.84,107.1,40.497234,-3.381045,583.6,4,5,236.2,0.703
97.53,1,-0.018,-0.002,0.002,-0.031,0.002,0.007,-1.565,0.02,0.0,95.84,107.1,40.497234,-3.381045,583.6,4,5,236.2,0.703
97.63,1,0.015,0.014,-0.001,-0.008,0.009,-0.0,-1.565,0.019,0.0,95.84,107.1,40.497234,-3.381045,583.6,4,5,236.2,0.703
97.73,1,0.031,-0.022,-0.007,0.005,-0.009,-0.005,-1.565,0.015,0.0,95.84,107.1,40.497234,-3.381045,583.6,4,5,236.2,0.703
97.84,1,-0.03,-0.002,-0.023,0.006,-0.004,-0.01,-1.563,0.013,0.0,96.83,108.2,40.497086,-3.381338,583.1,4,5,236.2,0.703
97.93,1,-0.05,0.003,0.014,-0.027,-0.006,0.002,-1.565,0.012,0.0,96.83,108.2,40.497086,-3.381338,583.1,4,5,236.2,0.703
98.04,1,-0.011,-0.007,-0.002,-0.021,-0.003,0.0,-1.566,0.012,0.001,96.83,108.2,40.497086,-3.381338,583.1,4,5,236.2,0.703
98.14,1,-0.007,-0.013,-0.017,-0.016,-0.006,-0.011,-1.564,0.013,0.001,96.83,108.2,40.497086,-3.381338,583.1,4,5,236.2,0.703
98.24,1,-0.049,-0.04,-0.002,-0.027,-0.026,-0.009,-1.565,0.016,0.002,96.83,108.2,40.497086,-3.381338,583.1,4,5,236.2,0.703
98.34,1,-0.057,-0.046,0.005,-0.043,-0.034,0.001,-1.567,0.018,0.004,96.83,108.2,40.497086,-3.381338,583.1,4,5,236.2,0.703
98.44,1,-0.003,-0.079,0.029,-0.043,-0.061,0.006,-1.569,0.024,0.005,96.83,108.2,40.497086,-3.381338,583.1,4,5,236.2,0.703
98.55,1,0.094,0.005,-0.002,0.021,-0.04,0.014,-1.569,0.023,0.006,96.83,108.2,40.497086,-3.381338,583.1,4,5,236.2,0.703
98.64,1,0.087,-0.01,-0.04,0.078,0.003,-0.004,-1.568,0.024,0.007,96.83,108.2,40.497086,-3.381338,583.1,4,5,236.2,0.703
98.74,1,-0.11,-0.06,-0.016,0.006,-0.037,-0.028,-1.57,0.024,0.008,96.83,108.2,40.497086,-3.381338,583.1,4,5,236.2,0.703
98.84,1,-0.07,0.004,0.028,-0.056,-0.026,0.003,-1.571,0.023,0.008,97.83,107.8,40.496929,-3.381629,582.5,4,5,235.9,0.352
98.94,1,-0.031,0.022,-0.037,-0.04,0.003,-0.007,-1.57,0.024,0.009,97.83,107.8,40.496929,-3.381629,582.5,4,5,235.9,0.352
99.05,1,-0.056,-0.049,0.003,-0.055,-0.017,-0.012,-1.57,0.026,0.01,97.83,107.8,40.496929,-3.381629,582.5,4,5,235.9,0.352
99.14,1,-0.015,-0.035,0.001,-0.04,-0.03,-0.001,-1.571,0.028,0.012,97.83,107.8,40.496929,-3.381629,582.5,4,5,235.9,0.352
99.24,1,0.025,-0.015,0.001,-0.005,-0.028,-0.003,-1.57,0.031,0.013,97.83,107.8,40.496929,-3.381629,582.5,4,5,235.9,0.352
99.34,1,-0.002,-0.037,-0.004,0.006,-0.025,-0.003,-1.567,0.03,0.014,97.83,107.8,40.496929,-3.381629,582.5,4,5,235.9,0.352
99.44,1,-0.015,-0.006,-0.012,-0.007,-0.022,-0.007,-1.567,0.028,0.015,97.83,107.8,40.496929,-3.381629,582.5,4,5,235.9,0.352
99.54,1,-0.027,0.001,-0.013,-0.017,-0.005,-0.009,-1.566,0.027,0.015,97.83,107.8,40.496929,-3.381629,582.5,4,5,235.9,0.352
99.64,1,-0.043,0.037,-0.011,-0.029,0.011,-0.009,-1.565,0.025,0.016,97.83,107.8,40.496929,-3.381629,582.5,4,5,235.9,0.352
99.75,1,0.004,0.036,-0.001,-0.023,0.023,-0.01,-1.564,0.025,0.016,97.83,107.8,40.496929,-3.381629,582.5,4,5,235.9,0.352
99.84,1,0.013,0.018,-0.017,0.001,0.028,-0.008,-1.564,0.025,0.016,98.82,108.6,40.49678,-3.381912,582.4,4,5,236.6,0.703
99.94,1,-0.023,-0.023,-0.008,-0.003,0.005,-0.014,-1.564,0.027,0.016,98.82,108.6,40.49678,-3.381912,582.4,4,5,236.6,0.703
100.04,1,-0.079,-0.021,0.022,-0.041,-0.013,0.005,-1.567,0.028,0.016,98.82,108.6,40.49678,-3.381912,582.4,4,5,236.6,0.703
100.14,1,-0.036,0.001,-0.008,-0.052,-0.008,0.004,-1.566,0.027,0.016,98.82,108.6,40.49678,-3.381912,582.4,4,5,236.6,0.703
100.24,1,-0.026,0.007,-0.003,-0.035,0.001,-0.003,-1.566,0.025,0.016,98.82,108.6,40.49678,-3.381912,582.4,4,5,236.6,0.703
100.34,1,0.021,0.052,0.009,-0.012,0.019,-0.0,-1.566,0.027,0.016,98.82,108.6,40.49678,-3.381912,582.4,4,5,236.6,0.703
100.44,1,-0.009,-0.002,-0.004,0.006,0.019,0.002,-1.567,0.028,0.016,98.82,108.6,40.49678,-3.381912,582.4,4,5,236.6,0.703
100.55,1,-0.02,0.01,0.016,-0.014,0.013,0.005,-1.566,0.028,0.016,98.82,108.6,40.49678,-3.381912,582.4,4,5,236.6,0.703
100.64,1,0.028,0.016,-0.02,0.001,0.012,0.002,-1.565,0.028,0.016,98.82,108.6,40.49678,-3.381912,582.4,4,5,236.6,0.703
100.74,1,-0.004,0.02,-0.013,0.007,0.015,-0.011,-1.563,0.028,0.016,98.82,108.6,40.49678,-3.381912,582.4,4,5,236.6,0.703
100.84,1,-0.017,0.005,-0.007,-0.004,0.013,-0.01,-1.564,0.025,0.016,99.82,107.8,40.496635,-3.382217,582.7,4,5,235.9,0.703
100.94,1,-0.047,-0.001,0.01,-0.024,0.004,-0.001,-1.564,0.024,0.016,99.82,107.8,40.496635,-3.382217,582.7,4,5,235.9,0.703
101.04,1,-0.004,0.015,0.003,-0.027,0.006,0.003,-1.565,0.024,0.016,99.82,107.8,40.496635,-3.382217,582.7,4,5,235.9,0.703
101.14,1,-0.003,0.021,0.005,-0.01,0.017,0.005,-1.566,0.022,0.016,99.82,107.8,40.496635,-3.382217,582.7,4,5,235.9,0.703
101.25,1,-0.004,-0.004,0.009,-0.008,0.006,0.006,-1.565,0.023,0.016,99.82,107.8,40.496635,-3.382217,582.7,4,5,235.9,0.703
101.35,1,0.036,0.008,0.005,0.018,0.005,0.005,-1.565,0.024,0.016,99.82,107.8,40.496635,-3.382217,582.7,4,5,235.9,0.703
101.45,1,-0.014,0.004,0.002,0.004,0.004,0.003,-1.565,0.024,0.016,99.82,107.8,40.496635,-3.382217,582.7,4,5,235.9,0.703
101.55,1,-0.035,0.018,-0.01,-0.015,0.013,0.002,-1.566,0.022,0.016,99.82,107.8,40.496635,-3.382217,582.7,4,5,235.9,0.703
101.65,1,-0.063,-0.017,0.014,-0.042,0.006,-0.001,-1.566,0.023,0.017,99.82,107.8,40.496635,-3.382217,582.7,4,5,235.9,0.703
101.75,1,-0.04,-0.012,0.002,-0.048,-0.007,0.006,-1.568,0.024,0.017,99.82,107.8,40.496635,-3.382217,582.7,4,5,235.9,0.703
101.85,1,-0.006,-0.001,0.005,-0.024,-0.009,0.003,-1.568,0.024,0.018,100.83,107.6,40.496483,-3.382515,583.0,4,5,235.5,1.055
101.95,1,-0.002,-0.018,-0.001,-0.011,-0.007,0.004,-1.568,0.027,0.019,100.83,107.6,40.496483,-3.382515,583.0,4,5,235.5,1.055
102.05,1,0.005,-0.043,0.005,-0.001,-0.026,0.005,-1.568,0.031,0.02,100.83,107.6,40.496483,-3.382515,583.0,4,5,235.5,1.055
102.15,1,-0.024,-0.025,-0.004,-0.011,-0.033,-0.002,-1.568,0.032,0.021,100.83,107.6,40.496483,-3.382515,583.0,4,5,235.5,1.055
102.25,1,-0.041,0.003,0.004,-0.025,-0.014,0.001,-1.57,0.034,0.022,100.83,107.6,40.496483,-3.382515,583.0,4,5,235.5,1.055
102.35,1,-0.06,-0.019,-0.007,-0.045,-0.01,-0.003,-1.571,0.035,0.023,100.83,107.6,40.496483,-3.382515,583.0,4,5,235.5,1.055
102.45,1,-0.016,-0.026,-0.006,-0.039,-0.022,-0.003,-1.571,0.038,0.025,100.83,107.6,40.496483,-3.382515,583.0,4,5,235.5,1.055
102.55,1,0.011,-0.043,-0.008,-0.009,-0.033,-0.008,-1.57,0.041,0.027,100.83,107.6,40.496483,-3.382515,583.0,4,5,235.5,1.055
102.66,1,-0.015,-0.026,-0.01,-0.008,-0.029,-0.007,-1.571,0.042,0.028,100.83,107.6,40.496483,-3.382515,583.0,4,5,235.5,1.055
102.75,1,-0.017,-0.022,-0.003,-0.016,-0.025,-0.005,-1.571,0.045,0.03,100.83,107.6,40.496483,-3.382515,583.0,4,5,235.5,1.055
102.86,1,-0.033,-0.018,-0.004,-0.024,-0.023,-0.006,-1.572,0.046,0.031,101.82,107.6,40.496326,-3.382801,582.9,4,5,235.5,0.352
102.96,1,-0.009,-0.01,-0.001,-0.02,-0.018,-0.002,-1.571,0.047,0.033,101.82,107.6,40.496326,-3.382801,582.9,4,5,235.5,0.352
103.05,1,-0.008,-0.007,0.002,-0.007,-0.012,-0.004,-1.571,0.047,0.034,101.82,107.6,40.496326,-3.382801,582.9,4,5,235.5,0.352
103.15,1,0.004,-0.018,0.018,-0.008,-0.011,0.008,-1.572,0.048,0.036,101.82,107.6,40.496326,-3.382801,582.9,4,5,235.5,0.352
103.25,1,0.0,-0.019,0.005,-0.003,-0.016,0.008,-1.572,0.05,0.037,101.82,107.6,40.496326,-3.382801,582.9,4,5,235.5,0.352
103.35,1,0.011,0.017,-0.006,0.003,-0.009,0.004,-1.571,0.051,0.038,101.82,107.6,40.496326,-3.382801,582.9,4,5,235.5,0.352
103.46,1,-0.018,0.005,-0.002,0.001,0.007,-0.001,-1.571,0.05,0.039,101.82,107.6,40.496326,-3.382801,582.9,4,5,235.5,0.352
103.56,1,-0.031,0.004,0.003,-0.013,0.006,0.0,-1.57,0.05,0.04,101.82,107.6,40.496326,-3.382801,582.9,4,5,235.5,0.352
103.65,1,-0.029,0.004,-0.012,-0.026,0.006,-0.004,-1.569,0.048,0.04,101.82,107.6,40.496326,-3.382801,582.9,4,5,235.5,0.352
103.75,1,-0.026,0.003,0.012,-0.029,0.003,0.0,-1.57,0.045,0.041,101.82,107.6,40.496326,-3.382801,582.9,4,5,235.5,0.352
103.86,1,0.05,0.028,0.005,0.002,0.013,0.003,-1.569,0.043,0.042,102.85,108.1,40.49617,-3.383092,583.0,4,5,235.5,0.0
103.95,1,0.016,0.017,0.024,0.028,0.017,0.013,-1.568,0.044,0.042,102.85,108.1,40.49617,-3.383092,583.0,4,5,235.5,0.0
104.07,1,-0.005,0.002,-0.003,0.003,0.012,0.01,-1.568,0.044,0.043,102.85,108.1,40.49617,-3.383092,583.0,4,5,235.5,0.0
104.16,1,0.021,0.007,0.018,0.012,0.007,0.01,-1.569,0.044,0.044,102.85,108.1,40.49617,-3.383092,583.0,4,5,235.5,0.0
104.25,1,-0.03,0.0,-0.008,-0.005,0.004,0.004,-1.569,0.045,0.044,102.85,108.1,40.49617,-3.383092,583.0,4,5,235.5,0.0
104.36,1,-0.038,-0.024,-0.002,-0.025,-0.003,-0.002,-1.569,0.044,0.045,102.85,108.1,40.49617,-3.383092,583.0,4,5,235.5,0.0
104.46,1,0.029,0.015,0.008,-0.011,-0.005,0.005,-1.569,0.044,0.046,102.85,108.1,40.49617,-3.383092,583.0,4,5,235.5,0.0
104.56,1,0.008,0.024,0.007,0.013,0.014,0.007,-1.569,0.044,0.048,102.85,108.1,40.49617,-3.383092,583.0,4,5,235.5,0.0
104.66,1,-0.049,-0.007,-0.003,-0.014,0.004,0.001,-1.567,0.046,0.049,102.85,108.1,40.49617,-3.383092,583.0,4,5,235.5,0.0
104.76,1,-0.037,-0.003,-0.004,-0.031,0.003,-0.002,-1.567,0.048,0.05,102.85,108.1,40.49617,-3.383092,583.0,4,5,235.5,0.0
104.86,1,-0.019,-0.041,0.014,-0.027,-0.021,0.002,-1.568,0.049,0.051,103.82,107.8,40.496017,-3.383387,583.0,4,5,234.5,1.055
104.96,1,0.007,-0.009,-0.008,-0.015,-0.023,0.006,-1.568,0.05,0.052,103.82,107.8,40.496017,-3.383387,583.0,4,5,234.5,1.055
105.07,1,0.013,0.031,0.007,0.002,0.007,0.003,-1.568,0.047,0.053,103.82,107.8,40.496017,-3.383387,583.0,4,5,234.5,1.055
105.16,1,0.013,0.003,-0.016,0.013,0.01,-0.01,-1.566,0.048,0.054,103.82,107.8,40.496017,-3.383387,583.0,4,5,234.5,1.055
105.26,1,-0.03,-0.005,0.006,-0.006,0.004,-0.003,-1.567,0.049,0.055,103.82,107.8,40.496017,-3.383387,583.0,4,5,234.5,1.055
105.36,1,-0.008,0.002,-0.014,-0.017,-0.0,-0.007,-1.567,0.048,0.056,103.82,107.8,40.496017,-3.383387,583.0,4,5,234.5,1.055
105.46,1,-0.011,0.021,0.006,-0.011,0.007,0.001,-1.566,0.049,0.056,103.82,107.8,40.496017,-3.383387,583.0,4,5,234.5,1.055
105.56,1,-0.015,0.029,0.008,-0.012,0.019,0.003,-1.567,0.045,0.056,103.82,107.8,40.496017,-3.383387,583.0,4,5,234.5,1.055
105.66,1,-0.031,0.037,-0.006,-0.018,0.03,-0.001,-1.568,0.042,0.056,103.82,107.8,40.496017,-3.383387,583.0,4,5,234.5,1.055
105.76,1,-0.029,0.042,-0.016,-0.026,0.031,-0.008,-1.568,0.039,0.056,103.82,107.8,40.496017,-3.383387,583.0,4,5,234.5,1.055
105.86,1,-0.025,0.031,0.015,-0.026,0.041,-0.001,-1.569,0.036,0.055,104.82,107.6,40.495865,-3.383681,583.0,4,5,234.1,1.406
105.96,1,-0.005,0.013,0.016,-0.019,0.023,0.011,-1.571,0.033,0.054,104.82,107.6,40.495865,-3.383681,583.0,4,5,234.1,1.406
106.06,1,0.025,0.049,-0.01,0.004,0.032,0.003,-1.57,0.03,0.054,104.82,107.6,40.495865,-3.383681,583.0,4,5,234.1,1.406
106.16,1,-0.022,0.051,0.007,0.003,0.04,-0.003,-1.569,0.027,0.053,104.82,107.6,40.495865,-3.383681,583.0,4,5,234.1,1.406
106.27,1,-0.02,0.021,-0.005,-0.015,0.037,0.003,-1.571,0.023,0.053,104.82,107.6,40.495865,-3.383681,583.0,4,5,234.1,1.406
106.36,1,-0.012,0.014,-0.01,-0.018,0.025,-0.005,-1.572,0.02,0.052,104.82,107.6,40.495865,-3.383681,583.0,4,5,234.1,1.406
106.47,1,-0.015,0.01,-0.006,-0.012,0.017,-0.005,-1.571,0.018,0.052,104.82,107.6,40.495865,-3.383681,583.0,4,5,234.1,1.406
106.56,1,-0.034,0.02,-0.003,-0.025,0.014,-0.007,-1.57,0.016,0.051,104.82,107.6,40.495865,-3.383681,583.0,4,5,234.1,1.406
106.66,1,0.006,0.017,-0.002,-0.008,0.019,-0.002,-1.57,0.013,0.051,104.82,107.6,40.495865,-3.383681,583.0,4,5,234.1,1.406
106.76,1,-0.017,0.01,0.018,-0.01,0.016,0.004,-1.571,0.011,0.05,104.82,107.6,40.495865,-3.383681,583.0,4,5,234.1,1.406
106.86,1,0.001,0.019,-0.008,-0.01,0.015,0.005,-1.572,0.011,0.049,105.82,107.6,40.495705,-3.383954,583.0,4,5,233.8,0.703
106.96,1,0.01,0.029,0.018,-0.002,0.021,0.009,-1.573,0.011,0.049,105.82,107.6,40.495705,-3.383954,583.0,4,5,233.8,0.703
107.06,1,0.045,0.005,0.002,0.024,0.018,0.007,-1.571,0.01,0.048,105.82,107.6,40.495705,-3.383954,583.0,4,5,233.8,0.703
107.16,1,-0.005,-0.009,0.0,0.02,0.003,0.003,-1.571,0.011,0.047,105.82,107.6,40.495705,-3.383954,583.0,4,5,233.8,0.703
107.26,1,-0.045,0.013,0.002,-0.018,0.006,0.001,-1.571,0.012,0.047,105.82,107.6,40.495705,-3.383954,583.0,4,5,233.8,0.703
107.37,1,-0.008,0.025,0.009,-0.022,0.017,0.005,-1.57,0.009,0.046,105.82,107.6,40.495705,-3.383954,583.0,4,5,233.8,0.703
107.47,1,0.017,0.028,-0.018,0.001,0.023,-0.002,-1.57,0.008,0.045,105.82,107.6,40.495705,-3.383954,583.0,4,5,233.8,0.703
107.57,1,-0.044,0.007,0.005,-0.011,0.01,-0.004,-1.568,0.006,0.045,105.82,107.6,40.495705,-3.383954,583.0,4,5,233.8,0.703
107.68,1,-0.036,0.009,0.017,-0.032,0.016,0.005,-1.568,0.006,0.044,105.82,107.6,40.495705,-3.383954,583.0,4,5,233.8,0.703
107.77,1,0.016,0.023,0.012,-0.016,0.011,0.013,-1.57,0.006,0.044,105.82,107.6,40.495705,-3.383954,583.0,4,5,233.8,0.703
107.87,1,0.021,-0.006,-0.006,0.015,0.013,0.002,-1.571,0.007,0.044,106.82,107.4,40.495552,-3.384233,582.9,4,5,233.1,1.055
107.97,1,-0.02,-0.03,-0.0,-0.002,-0.009,0.001,-1.571,0.011,0.044,106.82,107.4,40.495552,-3.384233,582.9,4,5,233.1,1.055
108.07,1,-0.054,-0.05,-0.012,-0.028,-0.029,-0.002,-1.571,0.015,0.045,106.82,107.4,40.495552,-3.384233,582.9,4,5,233.1,1.055
108.17,1,-0.053,-0.045,-0.013,-0.048,-0.041,-0.011,-1.571,0.02,0.046,106.82,107.4,40.495552,-3.384233,582.9,4,5,233.1,1.055
108.28,1,0.001,-0.052,0.03,-0.03,-0.048,0.003,-1.571,0.025,0.048,106.82,107.4,40.495552,-3.384233,582.9,4,5,233.1,1.055
108.37,1,0.046,-0.046,-0.0,0.012,-0.045,0.012,-1.572,0.028,0.05,106.82,107.4,40.495552,-3.384233,582.9,4,5,233.1,1.055
108.47,1,-0.006,-0.043,-0.002,0.01,-0.045,0.003,-1.572,0.032,0.052,106.82,107.4,40.495552,-3.384233,582.9,4,5,233.1,1.055
108.57,1,0.022,-0.031,0.006,0.012,-0.039,0.002,-1.572,0.038,0.054,106.82,107.4,40.495552,-3.384233,582.9,4,5,233.1,1.055
108.67,1,-0.024,-0.031,-0.016,0.006,-0.034,-0.004,-1.571,0.042,0.055,106.82,107.4,40.495552,-3.384233,582.9,4,5,233.1,1.055
108.77,1,-0.041,-0.022,0.025,-0.029,-0.032,0.006,-1.572,0.043,0.057,106.82,107.4,40.495552,-3.384233,582.9,4,5,233.1,1.055
108.88,1,-0.006,-0.024,-0.006,-0.019,-0.023,0.005,-1.571,0.046,0.058,107.82,107.4,40.495392,-3.384515,582.8,4,5,233.1,0.703
108.97,1,0.008,-0.0,0.013,-0.011,-0.021,0.004,-1.571,0.047,0.059,107.82,107.4,40.495392,-3.384515,582.8,4,5,233.1,0.703
109.07,1,0.034,0.012,-0.006,0.016,0.003,0.007,-1.57,0.048,0.061,107.82,107.4,40.495392,-3.384515,582.8,4,5,233.1,0.703
109.17,1,-0.023,-0.001,0.0,0.007,0.002,-0.001,-1.571,0.048,0.062,107.82,107.4,40.495392,-3.384515,582.8,4,5,233.1,0.703
109.28,1,-0.038,-0.007,0.01,-0.022,-0.004,0.002,-1.571,0.048,0.062,107.82,107.4,40.495392,-3.384515,582.8,4,5,233.1,0.703
109.37,1,-0.027,-0.002,-0.012,-0.02,0.001,0.001,-1.571,0.049,0.063,107.82,107.4,40.495392,-3.384515,582.8,4,5,233.1,0.703
109.47,1,-0.009,-0.016,0.006,-0.022,-0.008,-0.005,-1.57,0.049,0.064,107.82,107.4,40.495392,-3.384515,582.8,4,5,233.1,0.703
109.57,1,0.019,0.021,-0.019,0.001,0.003,-0.003,-1.572,0.046,0.064,107.82,107.4,40.495392,-3.384515,582.8,4,5,233.1,0.703
109.67,1,0.007,0.02,-0.012,-0.007,0.015,-0.017,-1.57,0.041,0.065,107.82,107.4,40.495392,-3.384515,582.8,4,5,233.1,0.703
109.77,1,0.073,0.065,0.019,0.029,0.027,0.007,-1.57,0.036,0.064,107.82,107.4,40.495392,-3.384515,582.8,4,5,233.1,0.703
109.89,1,0.056,0.004,-0.02,0.066,0.035,-0.005,-1.571,0.035,0.065,108.82,103.9,40.495243,-3.384806,583.1,4,5,233.4,0.352
109.97,1,-0.04,-0.027,-0.005,0.008,-0.004,-0.01,-1.571,0.036,0.065,108.82,103.9,40.495243,-3.384806,583.1,4,5,233.4,0.352
110.07,1,-0.082,0.029,0.003,-0.037,0.009,-0.001,-1.57,0.036,0.065,108.82,103.9,40.495243,-3.384806,583.1,4,5,233.4,0.352
110.17,1,-0.021,-0.005,0.003,-0.041,0.01,0.001,-1.569,0.035,0.065,108.82,103.9,40.495243,-3.384806,583.1,4,5,233.4,0.352
110.27,1,-0.02,-0.004,0.009,-0.023,-0.0,0.003,-1.57,0.033,0.065,108.82,103.9,40.495243,-3.384806,583.1,4,5,233.4,0.352
110.37,1,-0.06,0.013,-0.001,-0.04,0.002,0.005,-1.57,0.029,0.065,108.82,103.9,40.495243,-3.384806,583.1,4,5,233.4,0.352
110.48,1,-0.003,0.022,-0.012,-0.023,0.016,-0.002,-1.569,0.024,0.065,108.82,103.9,40.495243,-3.384806,583.1,4,5,233.4,0.352
110.58,1,-0.008,0.009,0.014,-0.013,0.014,-0.001,-1.571,0.023,0.066,108.82,103.9,40.495243,-3.384806,583.1,4,5,233.4,0.352
110.69,1,-0.003,0.009,-0.012,-0.013,0.01,-0.0,-1.571,0.024,0.066,108.82,103.9,40.495243,-3.384806,583.1,4,5,233.4,0.352
110.79,1,0.006,0.001,0.007,-0.002,0.002,0.0,-1.57,0.025,0.066,108.82,103.9,40.495243,-3.384806,583.1,4,5,233.4,0.352
110.88,1,0.008,-0.013,0.005,0.006,-0.002,0.0,-1.569,0.029,0.067,109.82,107.6,40.495079,-3.385094,583.0,4,5,233.1,0.352
110.98,1,-0.029,0.007,-0.02,-0.013,-0.003,-0.006,-1.568,0.03,0.067,109.82,107.6,40.495079,-3.385094,583.0,4,5,233.1,0.352
111.08,1,-0.051,0.008,-0.011,-0.032,0.009,-0.011,-1.569,0.028,0.067,109.82,107.6,40.495079,-3.385094,583.0,4,5,233.1,0.352
111.18,1,-0.002,-0.02,0.022,-0.022,-0.002,0.003,-1.57,0.027,0.067,109.82,107.6,40.495079,-3.385094,583.0,4,5,233.1,0.352
111.29,1,0.054,0.027,-0.02,0.015,0.0,-0.003,-1.568,0.028,0.068,109.82,107.6,40.495079,-3.385094,583.0,4,5,233.1,0.352
111.38,1,-0.003,0.0,0.003,0.021,0.006,-0.004,-1.568,0.029,0.068,109.82,107.6,40.495079,-3.385094,583.0,4,5,233.1,0.352
111.48,1,-0.047,-0.003,0.012,-0.013,-0.002,0.004,-1.57,0.032,0.068,109.82,107.6,40.495079,-3.385094,583.0,4,5,233.1,0.352
111.58,1,-0.003,0.003,-0.014,-0.019,0.003,-0.002,-1.57,0.029,0.068,109.82,107.6,40.495079,-3.385094,583.0,4,5,233.1,0.352
111.69,1,-0.02,-0.01,0.002,-0.014,-0.003,-0.003,-1.57,0.027,0.068,109.82,107.6,40.495079,-3.385094,583.0,4,5,233.1,0.352
111.78,1,-0.009,-0.002,0.002,-0.019,-0.005,0.001,-1.571,0.027,0.068,109.82,107.6,40.495079,-3.385094,583.0,4,5,233.1,0.352
111.89,1,0.028,0.016,-0.006,0.005,0.007,-0.001,-1.57,0.028,0.068,110.88,108.3,40.494915,-3.385375,583.1,4,5,232.4,1.055
111.99,1,-0.026,0.004,-0.013,-0.002,0.006,-0.009,-1.57,0.028,0.068,110.88,108.3,40.494915,-3.385375,583.1,4,5,232.4,1.055
