Timestamp_Accel,SystemActivated,accelerometerXAxis,accelerometerYAxis,accelerometerZAxis,AccelX_KF,AccelY_KF,AccelZ_KF,gyroscopeXAxis,gyroscopeYAxis,gyroscopeZAxis,Timestamp_GPS,Speed,latitude,longitude,Altitude,VerticalAccuracy,HorizontalAccuracy,Course,Difcourse
11.85,0,0.005,-0.093,-0.013,0.01,-0.1,-0.011,-1.69,-0.074,-0.882,11.88,0.0,40.505939,-3.36069,610.3,30,201,-1.0,-1.0
11.95,0,0.049,-0.043,0.002,0.024,-0.076,-0.004,-1.69,-0.066,-0.883,11.88,0.0,40.505939,-3.36069,610.3,30,201,-1.0,-1.0
12.05,0,0.009,-0.063,0.002,0.015,-0.066,0.0,-1.694,-0.048,-0.885,11.88,0.0,40.505939,-3.36069,610.3,30,201,-1.0,-1.0
12.16,0,0.045,-0.025,-0.018,0.03,-0.046,-0.006,-1.691,-0.037,-0.886,11.88,0.0,40.505939,-3.36069,610.3,30,201,-1.0,-1.0
12.26,0,-0.005,-0.04,-0.008,0.024,-0.034,-0.008,-1.688,-0.031,-0.888,11.88,0.0,40.505939,-3.36069,610.3,30,201,-1.0,-1.0
12.35,0,-0.041,-0.029,-0.011,-0.02,-0.033,-0.015,-1.687,-0.03,-0.889,11.88,0.0,40.505939,-3.36069,610.3,30,201,-1.0,-1.0
12.45,1,-0.064,-0.028,0.024,-0.04,-0.039,0.009,-1.689,-0.026,-0.891,11.88,0.0,40.505939,-3.36069,610.3,30,201,-1.0,-1.0
12.55,1,0.021,0.009,-0.035,-0.013,-0.013,-0.012,-1.686,-0.028,-0.893,11.88,0.0,40.505939,-3.36069,610.3,30,201,-1.0,-1.0
12.65,1,0.045,0.01,0.01,0.012,0.004,-0.005,-1.685,-0.027,-0.894,11.88,0.0,40.505939,-3.36069,610.3,30,201,-1.0,-1.0
12.76,1,0.098,0.035,0.009,0.061,0.016,0.011,-1.683,-0.023,-0.895,11.88,0.0,40.505939,-3.36069,610.3,30,201,-1.0,-1.0
12.86,1,-0.089,-0.041,-0.065,0.017,-0.001,-0.029,-1.678,-0.014,-0.896,12.9,78.8,40.506252,-3.355367,636.5,16,30,272.5,87.539
12.96,1,-0.18,-0.037,0.007,-0.104,-0.027,-0.021,-1.682,-0.012,-0.897,12.9,78.8,40.506252,-3.355367,636.5,16,30,272.5,87.539
13.06,1,-0.068,-0.013,-0.01,-0.107,-0.024,-0.005,-1.684,-0.014,-0.899,12.9,78.8,40.506252,-3.355367,636.5,16,30,272.5,87.539
13.15,1,0.024,-0.002,-0.024,-0.042,-0.01,-0.016,-1.685,-0.012,-0.9,12.9,78.8,40.506252,-3.355367,636.5,16,30,272.5,87.539
13.25,1,0.01,-0.005,-0.0,-0.002,-0.009,-0.014,-1.685,-0.01,-0.902,12.9,78.8,40.506252,-3.355367,636.5,16,30,272.5,87.539
13.35,1,0.007,0.02,-0.025,0.002,0.003,-0.012,-1.686,-0.01,-0.903,12.9,78.8,40.506252,-3.355367,636.5,16,30,272.5,87.539
13.45,1,-0.037,0.015,-0.026,-0.01,0.01,-0.018,-1.682,-0.009,-0.904,12.9,78.8,40.506252,-3.355367,636.5,16,30,272.5,87.539
13.55,1,-0.026,0.001,-0.027,-0.026,0.014,-0.028,-1.677,-0.009,-0.905,12.9,78.8,40.506252,-3.355367,636.5,16,30,272.5,87.539
13.65,1,-0.024,-0.011,-0.028,-0.024,0.001,-0.028,-1.673,-0.008,-0.906,12.9,78.8,40.506252,-3.355367,636.5,16,30,272.5,87.539
13.75,1,0.01,-0.027,-0.033,-0.009,-0.018,-0.03,-1.669,-0.004,-0.908,12.9,78.8,40.506252,-3.355367,636.5,16,30,272.5,87.539
13.85,1,0.006,0.006,-0.06,-0.005,-0.013,-0.041,-1.665,-0.003,-0.909,13.93,82.7,40.505802,-3.355622,605.9,4,5,273.9,1.406
13.96,1,-0.04,-0.016,-0.094,-0.013,-0.012,-0.064,-1.658,-0.002,-0.911,13.93,82.7,40.505802,-3.355622,605.9,4,5,273.9,1.406
14.06,1,0.026,0.027,-0.105,-0.004,0.012,-0.091,-1.655,-0.002,-0.911,13.93,82.7,40.505802,-3.355622,605.9,4,5,273.9,1.406
14.16,1,0.037,0.022,-0.166,0.022,0.025,-0.124,-1.653,-0.002,-0.912,13.93,82.7,40.505802,-3.355622,605.9,4,5,273.9,1.406
14.26,1,-0.053,0.002,-0.135,-0.002,0.011,-0.135,-1.653,-0.003,-0.911,13.93,82.7,40.505802,-3.355622,605.9,4,5,273.9,1.406
14.35,1,-0.065,-0.06,-0.12,-0.046,-0.015,-0.132,-1.65,-0.006,-0.911,13.93,82.7,40.505802,-3.355622,605.9,4,5,273.9,1.406
14.45,1,-0.051,0.007,-0.128,-0.061,-0.029,-0.128,-1.649,-0.008,-0.911,13.93,82.7,40.505802,-3.355622,605.9,4,5,273.9,1.406
14.56,1,-0.011,0.017,-0.105,-0.027,0.004,-0.119,-1.644,-0.005,-0.911,13.93,82.7,40.505802,-3.355622,605.9,4,5,273.9,1.406
14.66,1,0.031,-0.003,-0.069,0.001,0.004,-0.099,-1.632,0.003,-0.91,13.93,82.7,40.505802,-3.355622,605.9,4,5,273.9,1.406
14.77,1,0.031,-0.053,-0.076,0.017,-0.018,-0.075,-1.624,0.007,-0.909,13.93,82.7,40.505802,-3.355622,605.9,4,5,273.9,1.406
14.86,1,0.028,-0.06,-0.088,0.029,-0.046,-0.085,-1.623,0.007,-0.908,14.89,85.5,40.505798,-3.355894,606.3,6,5,274.6,2.109
14.96,1,-0.017,-0.048,-0.083,0.006,-0.047,-0.089,-1.618,0.007,-0.908,14.89,85.5,40.505798,-3.355894,606.3,6,5,274.6,2.109
15.06,1,-0.036,-0.003,-0.073,-0.015,-0.029,-0.077,-1.612,0.006,-0.908,14.89,85.5,40.505798,-3.355894,606.3,6,5,274.6,2.109
15.16,1,-0.013,0.042,-0.082,-0.019,0.006,-0.08,-1.611,0.005,-0.908,14.89,85.5,40.505798,-3.355894,606.3,6,5,274.6,2.109
15.26,1,-0.004,0.006,-0.081,-0.011,0.014,-0.077,-1.611,0.008,-0.907,14.89,85.5,40.505798,-3.355894,606.3,6,5,274.6,2.109
15.37,1,0.005,-0.022,-0.063,-0.007,-0.001,-0.075,-1.608,0.012,-0.906,14.89,85.5,40.505798,-3.355894,606.3,6,5,274.6,2.109
15.47,1,0.036,-0.019,-0.058,0.015,-0.019,-0.064,-1.599,0.015,-0.905,14.89,85.5,40.505798,-3.355894,606.3,6,5,274.6,2.109
15.56,1,0.065,-0.045,-0.073,0.042,-0.032,-0.064,-1.59,0.017,-0.905,14.89,85.5,40.505798,-3.355894,606.3,6,5,274.6,2.109
15.66,1,0.02,-0.024,-0.076,0.037,-0.02,-0.074,-1.582,0.016,-0.904,14.89,85.5,40.505798,-3.355894,606.3,6,5,274.6,2.109
15.76,1,-0.069,-0.009,-0.049,-0.005,-0.018,-0.066,-1.576,0.017,-0.904,14.89,85.5,40.505798,-3.355894,606.3,6,5,274.6,2.109
15.86,1,-0.048,0.0,-0.02,-0.046,-0.018,-0.043,-1.574,0.014,-0.903,15.88,85.7,40.50581,-3.356182,606.9,6,5,274.9,1.055
15.96,1,0.029,0.032,-0.031,-0.011,0.011,-0.029,-1.572,0.012,-0.902,15.88,85.7,40.50581,-3.356182,606.9,6,5,274.9,1.055
16.06,1,-0.007,-0.011,-0.049,-0.003,-0.001,-0.041,-1.568,0.014,-0.9,15.88,85.7,40.50581,-3.356182,606.9,6,5,274.9,1.055
16.16,1,0.009,-0.07,-0.018,0.0,-0.02,-0.035,-1.567,0.02,-0.898,15.88,85.7,40.50581,-3.356182,606.9,6,5,274.9,1.055
16.26,1,0.019,-0.054,-0.011,0.012,-0.047,-0.019,-1.566,0.026,-0.896,15.88,85.7,40.50581,-3.356182,606.9,6,5,274.9,1.055
16.37,1,0.077,0.004,0.006,0.031,-0.034,-0.005,-1.565,0.028,-0.895,15.88,85.7,40.50581,-3.356182,606.9,6,5,274.9,1.055
16.47,1,-0.046,-0.011,-0.035,0.035,-0.012,-0.017,-1.565,0.027,-0.894,15.88,85.7,40.50581,-3.356182,606.9,6,5,274.9,1.055
16.57,1,-0.104,-0.058,-0.005,-0.06,-0.028,-0.021,-1.566,0.025,-0.893,15.88,85.7,40.50581,-3.356182,606.9,6,5,274.9,1.055
16.67,1,0.042,0.025,-0.006,-0.021,-0.019,-0.005,-1.567,0.021,-0.891,15.88,85.7,40.50581,-3.356182,606.9,6,5,274.9,1.055
16.76,1,0.044,0.048,-0.015,0.02,0.029,-0.014,-1.564,0.018,-0.89,15.88,85.7,40.50581,-3.356182,606.9,6,5,274.9,1.055
16.86,1,0.068,-0.005,-0.019,0.051,0.019,-0.011,-1.563,0.021,-0.889,16.88,85.5,40.505817,-3.356466,606.4,6,5,274.9,0.352
16.96,1,0.045,-0.012,-0.045,0.034,-0.004,-0.03,-1.558,0.021,-0.888,16.88,85.5,40.505817,-3.356466,606.4,6,5,274.9,0.352
17.06,1,0.009,-0.014,-0.031,0.035,-0.003,-0.033,-1.555,0.02,-0.887,16.88,85.5,40.505817,-3.356466,606.4,6,5,274.9,0.352
17.17,1,-0.078,0.008,-0.025,-0.015,-0.013,-0.029,-1.556,0.02,-0.887,16.88,85.5,40.505817,-3.356466,606.4,6,5,274.9,0.352
17.26,1,-0.062,-0.013,-0.02,-0.052,-0.011,-0.023,-1.556,0.02,-0.887,16.88,85.5,40.505817,-3.356466,606.4,6,5,274.9,0.352
17.36,1,0.011,0.001,-0.027,-0.025,0.006,-0.027,-1.556,0.023,-0.886,16.88,85.5,40.505817,-3.356466,606.4,6,5,274.9,0.352
17.46,1,-0.023,0.004,-0.034,-0.024,-0.004,-0.027,-1.555,0.022,-0.886,16.88,85.5,40.505817,-3.356466,606.4,6,5,274.9,0.352
17.56,1,0.033,0.037,-0.019,0.006,0.019,-0.03,-1.55,0.014,-0.886,16.88,85.5,40.505817,-3.356466,606.4,6,5,274.9,0.352
17.67,1,0.038,0.013,-0.037,0.025,0.016,-0.028,-1.545,0.011,-0.887,16.88,85.5,40.505817,-3.356466,606.4,6,5,274.9,0.352
17.76,1,0.008,0.013,-0.017,0.022,0.014,-0.025,-1.542,0.008,-0.888,16.88,85.5,40.505817,-3.356466,606.4,6,5,274.9,0.352
17.87,1,-0.008,0.014,0.002,0.008,0.023,-0.012,-1.541,0.005,-0.889,17.88,85.6,40.505829,-3.356743,606.0,6,5,274.6,0.352
17.97,1,-0.027,0.011,-0.002,-0.016,0.008,-0.003,-1.542,0.0,-0.889,17.88,85.6,40.505829,-3.356743,606.0,6,5,274.6,0.352
18.07,1,-0.048,0.009,0.009,-0.028,0.006,0.002,-1.542,-0.002,-0.89,17.88,85.6,40.505829,-3.356743,606.0,6,5,274.6,0.352
18.18,1,-0.012,0.013,0.011,-0.028,0.013,0.004,-1.544,-0.004,-0.89,17.88,85.6,40.505829,-3.356743,606.0,6,5,274.6,0.352
18.27,1,0.044,0.007,0.021,0.002,0.013,0.015,-1.545,-0.006,-0.89,17.88,85.6,40.505829,-3.356743,606.0,6,5,274.6,0.352
18.38,1,0.011,0.0,-0.015,0.017,0.005,0.005,-1.542,-0.005,-0.89,17.88,85.6,40.505829,-3.356743,606.0,6,5,274.6,0.352
18.47,1,0.025,-0.0,-0.0,0.024,0.002,-0.006,-1.541,-0.004,-0.89,17.88,85.6,40.505829,-3.356743,606.0,6,5,274.6,0.352
18.57,1,-0.053,-0.016,0.024,-0.003,-0.006,0.01,-1.543,-0.003,-0.89,17.88,85.6,40.505829,-3.356743,606.0,6,5,274.6,0.352
18.67,1,-0.086,-0.039,0.019,-0.059,-0.023,0.017,-1.546,-0.002,-0.89,17.88,85.6,40.505829,-3.356743,606.0,6,5,274.6,0.352
18.77,1,-0.028,-0.01,0.011,-0.049,-0.02,0.016,-1.55,0.001,-0.89,17.88,85.6,40.505829,-3.356743,606.0,6,5,274.6,0.352
18.87,1,-0.042,-0.045,0.015,-0.043,-0.029,0.013,-1.553,0.001,-0.89,18.91,85.2,40.505844,-3.357017,605.4,6,5,274.9,0.352
18.97,1,0.027,-0.014,0.014,-0.02,-0.025,0.016,-1.557,-0.002,-0.889,18.91,85.2,40.505844,-3.357017,605.4,6,5,274.9,0.352
19.07,1,0.004,-0.007,0.022,0.009,-0.015,0.016,-1.558,-0.002,-0.889,18.91,85.2,40.505844,-3.357017,605.4,6,5,274.9,0.352
19.17,1,-0.021,-0.022,0.024,-0.005,-0.017,0.019,-1.56,0.003,-0.889,18.91,85.2,40.505844,-3.357017,605.4,6,5,274.9,0.352
19.27,1,-0.006,-0.027,0.024,-0.008,-0.023,0.026,-1.56,0.002,-0.888,18.91,85.2,40.505844,-3.357017,605.4,6,5,274.9,0.352
19.37,1,0.02,-0.017,0.03,0.002,-0.025,0.028,-1.562,0.0,-0.888,18.91,85.2,40.505844,-3.357017,605.4,6,5,274.9,0.352
19.47,1,0.042,0.047,0.023,0.022,0.015,0.023,-1.561,0.0,-0.888,18.91,85.2,40.505844,-3.357017,605.4,6,5,274.9,0.352
19.58,1,0.03,0.013,-0.003,0.029,0.021,0.015,-1.56,0.004,-0.888,18.91,85.2,40.505844,-3.357017,605.4,6,5,274.9,0.352
19.67,1,-0.017,0.015,0.003,0.013,0.014,0.004,-1.561,0.007,-0.887,18.91,85.2,40.505844,-3.357017,605.4,6,5,274.9,0.352
19.77,1,-0.023,0.005,0.025,-0.003,0.004,0.015,-1.56,0.009,-0.887,18.91,85.2,40.505844,-3.357017,605.4,6,5,274.9,0.352
19.87,1,-0.024,-0.033,0.006,-0.022,-0.002,0.011,-1.56,0.01,-0.887,19.89,86.0,40.505863,-3.357301,604.9,6,5,275.3,0.703
19.97,1,-0.028,-0.044,0.038,-0.028,-0.026,0.02,-1.561,0.009,-0.887,19.89,86.0,40.505863,-3.357301,604.9,6,5,275.3,0.703
20.07,1,-0.015,0.024,-0.029,-0.016,-0.021,0.008,-1.561,0.008,-0.887,19.89,86.0,40.505863,-3.357301,604.9,6,5,275.3,0.703
20.17,1,0.017,0.004,-0.052,-0.011,0.005,-0.025,-1.556,0.009,-0.886,19.89,86.0,40.505863,-3.357301,604.9,6,5,275.3,0.703
20.28,1,-0.006,0.015,-0.036,0.0,0.015,-0.039,-1.556,0.011,-0.886,19.89,86.0,40.505863,-3.357301,604.9,6,5,275.3,0.703
20.37,1,-0.069,-0.013,-0.024,-0.027,-0.004,-0.034,-1.557,0.012,-0.885,19.89,86.0,40.505863,-3.357301,604.9,6,5,275.3,0.703
20.47,1,-0.05,-0.033,-0.018,-0.048,-0.011,-0.02,-1.56,0.012,-0.885,19.89,86.0,40.505863,-3.357301,604.9,6,5,275.3,0.703
20.57,1,0.039,0.007,-0.034,-0.013,-0.0,-0.032,-1.555,0.008,-0.885,19.89,86.0,40.505863,-3.357301,604.9,6,5,275.3,0.703
20.67,1,0.034,0.01,-0.033,0.028,-0.003,-0.025,-1.556,0.005,-0.885,19.89,86.0,40.505863,-3.357301,604.9,6,5,275.3,0.703
20.77,1,-0.053,0.009,-0.036,-0.006,0.008,-0.037,-1.555,0.003,-0.884,19.89,86.0,40.505863,-3.357301,604.9,6,5,275.3,0.703
20.88,1,0.022,-0.002,-0.007,-0.014,0.003,-0.024,-1.555,0.002,-0.884,20.87,87.2,40.505878,-3.357584,604.5,4,5,275.6,0.703
20.97,1,0.039,-0.0,-0.007,0.023,-0.0,-0.012,-1.555,0.005,-0.883,20.87,87.2,40.505878,-3.357584,604.5,4,5,275.6,0.703
21.07,1,-0.068,-0.078,-0.007,-0.012,-0.031,-0.009,-1.553,0.01,-0.883,20.87,87.2,40.505878,-3.357584,604.5,4,5,275.6,0.703
21.17,1,-0.014,-0.021,-0.011,-0.037,-0.035,-0.012,-1.552,0.01,-0.883,20.87,87.2,40.505878,-3.357584,604.5,4,5,275.6,0.703
21.28,1,-0.009,0.005,-0.01,-0.009,-0.016,-0.01,-1.55,0.01,-0.882,20.87,87.2,40.505878,-3.357584,604.5,4,5,275.6,0.703
21.38,1,-0.039,0.029,-0.027,-0.019,0.007,-0.017,-1.548,0.007,-0.882,20.87,87.2,40.505878,-3.357584,604.5,4,5,275.6,0.703
21.48,1,0.02,0.054,0.007,-0.017,0.022,-0.011,-1.547,0.004,-0.883,20.87,87.2,40.505878,-3.357584,604.5,4,5,275.6,0.703
21.58,1,0.077,0.039,0.006,0.035,0.044,0.008,-1.547,0.001,-0.884,20.87,87.2,40.505878,-3.357584,604.5,4,5,275.6,0.703
21.68,1,-0.025,0.012,-0.041,0.022,0.031,-0.021,-1.542,0.004,-0.885,20.87,87.2,40.505878,-3.357584,604.5,4,5,275.6,0.703
21.78,1,-0.019,-0.031,0.031,-0.017,-0.002,0.0,-1.545,0.004,-0.885,20.87,87.2,40.505878,-3.357584,604.5,4,5,275.6,0.703
21.88,1,0.042,0.001,-0.031,0.014,-0.007,-0.004,-1.542,0.003,-0.885,21.89,87.0,40.505898,-3.357868,604.1,4,5,276.0,0.703
21.98,1,-0.017,-0.023,-0.033,0.01,-0.012,-0.026,-1.54,0.003,-0.885,21.89,87.0,40.505898,-3.357868,604.1,4,5,276.0,0.703
22.08,1,-0.065,-0.0,-0.011,-0.026,-0.009,-0.023,-1.538,0.001,-0.885,21.89,87.0,40.505898,-3.357868,604.1,4,5,276.0,0.703
22.18,1,0.011,-0.013,0.02,-0.029,-0.013,-0.0,-1.539,-0.0,-0.884,21.89,87.0,40.505898,-3.357868,604.1,4,5,276.0,0.703
22.28,1,0.105,-0.027,-0.037,0.036,-0.017,-0.01,-1.536,-0.002,-0.884,21.89,87.0,40.505898,-3.357868,604.1,4,5,276.0,0.703
22.38,1,0.07,0.008,-0.019,0.07,-0.015,-0.019,-1.532,-0.006,-0.883,21.89,87.0,40.505898,-3.357868,604.1,4,5,276.0,0.703
22.48,1,-0.039,-0.025,-0.01,0.031,-0.009,-0.019,-1.529,-0.005,-0.883,21.89,87.0,40.505898,-3.357868,604.1,4,5,276.0,0.703
22.58,1,-0.079,-0.007,-0.012,-0.035,-0.01,-0.013,-1.528,-0.009,-0.883,21.89,87.0,40.505898,-3.357868,604.1,4,5,276.0,0.703
22.68,1,-0.033,-0.01,0.002,-0.045,-0.01,-0.006,-1.529,-0.007,-0.882,21.89,87.0,40.505898,-3.357868,604.1,4,5,276.0,0.703
22.78,1,-0.041,-0.015,-0.008,-0.041,-0.016,-0.005,-1.53,-0.005,-0.881,21.89,87.0,40.505898,-3.357868,604.1,4,5,276.0,0.703
22.88,1,-0.011,-0.014,0.007,-0.028,-0.009,-0.001,-1.532,-0.003,-0.88,22.89,86.8,40.50592,-3.358151,603.7,4,5,276.3,0.703
22.98,1,0.003,-0.007,0.022,-0.009,-0.011,0.013,-1.535,0.0,-0.879,22.89,86.8,40.50592,-3.358151,603.7,4,5,276.3,0.703
23.08,1,-0.035,-0.013,0.001,-0.021,-0.016,0.009,-1.538,0.004,-0.878,22.89,86.8,40.50592,-3.358151,603.7,4,5,276.3,0.703
23.18,1,0.006,-0.016,0.045,-0.014,-0.01,0.018,-1.541,0.008,-0.876,22.89,86.8,40.50592,-3.358151,603.7,4,5,276.3,0.703
23.28,1,0.04,-0.017,0.014,0.013,-0.015,0.03,-1.542,0.014,-0.875,22.89,86.8,40.50592,-3.358151,603.7,4,5,276.3,0.703
23.38,1,-0.017,-0.036,-0.014,0.009,-0.025,0.005,-1.541,0.017,-0.873,22.89,86.8,40.50592,-3.358151,603.7,4,5,276.3,0.703
23.48,1,-0.009,-0.066,0.019,-0.005,-0.043,0.005,-1.542,0.019,-0.872,22.89,86.8,40.50592,-3.358151,603.7,4,5,276.3,0.703
23.58,1,-0.005,-0.028,0.011,-0.006,-0.042,0.012,-1.541,0.019,-0.87,22.89,86.8,40.50592,-3.358151,603.7,4,5,276.3,0.703
23.69,1,-0.014,0.004,-0.028,-0.009,-0.019,-0.006,-1.538,0.017,-0.868,22.89,86.8,40.50592,-3.358151,603.7,4,5,276.3,0.703
23.79,1,-0.024,-0.025,0.011,-0.012,-0.02,-0.003,-1.538,0.017,-0.867,22.89,86.8,40.50592,-3.358151,603.7,4,5,276.3,0.703
23.88,1,0.0,0.023,-0.017,-0.014,0.0,-0.003,-1.538,0.015,-0.865,23.89,86.6,40.505939,-3.358435,603.7,4,5,276.3,0.352
23.98,1,-0.016,0.016,-0.022,-0.009,0.013,-0.017,-1.537,0.011,-0.864,23.89,86.6,40.505939,-3.358435,603.7,4,5,276.3,0.352
24.08,1,0.014,0.018,-0.019,0.003,0.019,-0.018,-1.536,0.011,-0.863,23.89,86.6,40.505939,-3.358435,603.7,4,5,276.3,0.352
24.18,1,-0.029,-0.018,-0.014,-0.01,0.002,-0.013,-1.534,0.012,-0.861,23.89,86.6,40.505939,-3.358435,603.7,4,5,276.3,0.352
24.29,1,-0.043,-0.024,-0.023,-0.035,-0.017,-0.019,-1.533,0.014,-0.86,23.89,86.6,40.505939,-3.358435,603.7,4,5,276.3,0.352
24.39,1,-0.026,-0.019,-0.003,-0.029,-0.017,-0.018,-1.532,0.015,-0.859,23.89,86.6,40.505939,-3.358435,603.7,4,5,276.3,0.352
24.49,1,-0.018,-0.014,-0.035,-0.026,-0.018,-0.019,-1.531,0.013,-0.857,23.89,86.6,40.505939,-3.358435,603.7,4,5,276.3,0.352
24.59,1,-0.021,0.01,-0.028,-0.014,0.001,-0.025,-1.528,0.008,-0.856,23.89,86.6,40.505939,-3.358435,603.7,4,5,276.3,0.352
24.69,1,0.031,0.028,-0.024,-0.004,0.006,-0.024,-1.527,0.006,-0.855,23.89,86.6,40.505939,-3.358435,603.7,4,5,276.3,0.352
24.79,1,-0.067,-0.04,-0.025,-0.024,-0.011,-0.025,-1.525,0.006,-0.853,23.89,86.6,40.505939,-3.358435,603.7,4,5,276.3,0.352
24.89,1,-0.046,-0.013,-0.003,-0.046,-0.013,-0.019,-1.526,0.008,-0.852,24.89,86.4,40.505959,-3.358722,603.9,4,5,275.6,0.703
24.99,1,0.003,-0.03,-0.032,-0.017,-0.013,-0.021,-1.525,0.01,-0.85,24.89,86.4,40.505959,-3.358722,603.9,4,5,275.6,0.703
25.09,1,-0.004,-0.044,0.02,-0.008,-0.032,-0.006,-1.525,0.012,-0.849,24.89,86.4,40.505959,-3.358722,603.9,4,5,275.6,0.703
25.19,1,0.076,0.001,-0.03,0.021,-0.025,-0.006,-1.525,0.012,-0.846,24.89,86.4,40.505959,-3.358722,603.9,4,5,275.6,0.703
25.29,1,-0.072,-0.033,0.024,-0.002,-0.023,-0.006,-1.526,0.012,-0.844,24.89,86.4,40.505959,-3.358722,603.9,4,5,275.6,0.703
25.39,1,-0.019,-0.017,0.028,-0.026,-0.021,0.02,-1.527,0.01,-0.843,24.89,86.4,40.505959,-3.358722,603.9,4,5,275.6,0.703
25.5,1,0.011,0.006,0.001,-0.005,-0.004,0.008,-1.526,0.008,-0.84,24.89,86.4,40.505959,-3.358722,603.9,4,5,275.6,0.703
25.59,1,-0.023,-0.067,0.035,-0.007,-0.031,0.024,-1.529,0.009,-0.837,24.89,86.4,40.505959,-3.358722,603.9,4,5,275.6,0.703
25.7,1,-0.003,-0.015,0.005,-0.015,-0.034,0.016,-1.529,0.009,-0.835,24.89,86.4,40.505959,-3.358722,603.9,4,5,275.6,0.703
25.79,1,-0.006,0.005,0.043,-0.0,-0.012,0.023,-1.533,0.006,-0.832,24.89,86.4,40.505959,-3.358722,603.9,4,5,275.6,0.703
25.89,1,0.015,-0.017,0.007,-0.002,-0.02,0.025,-1.537,0.012,-0.83,25.9,84.9,40.505974,-3.358997,603.3,4,5,274.9,1.406
25.99,1,-0.015,-0.001,0.015,0.0,-0.002,0.013,-1.537,0.016,-0.827,25.9,84.9,40.505974,-3.358997,603.3,4,5,274.9,1.406
26.09,1,-0.039,-0.023,0.047,-0.025,-0.011,0.026,-1.541,0.02,-0.825,25.9,84.9,40.505974,-3.358997,603.3,4,5,274.9,1.406
26.2,1,-0.021,-0.054,0.04,-0.021,-0.037,0.041,-1.545,0.028,-0.821,25.9,84.9,40.505974,-3.358997,603.3,4,5,274.9,1.406
26.3,1,0.013,-0.037,0.004,-0.012,-0.031,0.023,-1.547,0.035,-0.818,25.9,84.9,40.505974,-3.358997,603.3,4,5,274.9,1.406
26.39,1,-0.003,-0.032,0.012,0.001,-0.037,0.014,-1.548,0.04,-0.814,25.9,84.9,40.505974,-3.358997,603.3,4,5,274.9,1.406
26.49,1,0.014,-0.013,-0.007,0.002,-0.03,0.004,-1.547,0.042,-0.811,25.9,84.9,40.505974,-3.358997,603.3,4,5,274.9,1.406
26.6,1,-0.009,-0.002,-0.021,0.003,-0.008,-0.007,-1.546,0.042,-0.808,25.9,84.9,40.505974,-3.358997,603.3,4,5,274.9,1.406
26.7,1,-0.012,-0.011,-0.013,-0.003,-0.014,-0.014,-1.544,0.041,-0.804,25.9,84.9,40.505974,-3.358997,603.3,4,5,274.9,1.406
26.79,1,-0.011,-0.042,0.004,-0.018,-0.024,-0.006,-1.545,0.042,-0.801,25.9,84.9,40.505974,-3.358997,603.3,4,5,274.9,1.406
26.9,1,-0.025,-0.018,-0.002,-0.014,-0.024,-0.003,-1.543,0.041,-0.798,26.87,84.0,40.505985,-3.359269,603.7,4,5,273.5,2.109
27.01,1,-0.024,-0.01,-0.001,-0.021,-0.015,-0.004,-1.541,0.04,-0.796,26.87,84.0,40.505985,-3.359269,603.7,4,5,273.5,2.109
27.1,1,-0.006,-0.017,0.0,-0.013,-0.017,0.0,-1.542,0.041,-0.793,26.87,84.0,40.505985,-3.359269,603.7,4,5,273.5,2.109
27.2,1,0.012,-0.024,-0.019,-0.001,-0.02,-0.01,-1.539,0.043,-0.79,26.87,84.0,40.505985,-3.359269,603.7,4,5,273.5,2.109
27.29,1,-0.017,-0.002,-0.019,-0.007,-0.012,-0.012,-1.54,0.046,-0.787,26.87,84.0,40.505985,-3.359269,603.7,4,5,273.5,2.109
27.4,1,-0.003,-0.03,-0.002,-0.006,-0.009,-0.009,-1.539,0.049,-0.784,26.87,84.0,40.505985,-3.359269,603.7,4,5,273.5,2.109
27.5,1,-0.044,-0.014,-0.024,-0.021,-0.02,-0.015,-1.538,0.053,-0.78,26.87,84.0,40.505985,-3.359269,603.7,4,5,273.5,2.109
27.6,1,-0.005,-0.033,-0.012,-0.021,-0.033,-0.015,-1.538,0.058,-0.776,26.87,84.0,40.505985,-3.359269,603.7,4,5,273.5,2.109
27.7,1,-0.009,-0.048,0.0,-0.008,-0.035,-0.009,-1.537,0.065,-0.77,26.87,84.0,40.505985,-3.359269,603.7,4,5,273.5,2.109
27.8,1,-0.012,-0.079,-0.024,-0.013,-0.046,-0.012,-1.537,0.066,-0.766,26.87,84.0,40.505985,-3.359269,603.7,4,5,273.5,2.109
27.91,1,0.03,-0.005,-0.008,0.002,-0.039,-0.015,-1.536,0.069,-0.761,27.89,85.0,40.505993,-3.359544,603.2,4,5,272.8,2.109
28.0,1,0.006,-0.028,-0.014,0.015,-0.027,-0.008,-1.535,0.072,-0.757,27.89,85.0,40.505993,-3.359544,603.2,4,5,272.8,2.109
28.11,1,0.019,-0.007,-0.026,0.01,-0.029,-0.019,-1.532,0.073,-0.753,27.89,85.0,40.505993,-3.359544,603.2,4,5,272.8,2.109
28.2,1,-0.007,0.001,-0.008,0.01,-0.011,-0.016,-1.53,0.073,-0.749,27.89,85.0,40.505993,-3.359544,603.2,4,5,272.8,2.109
28.3,1,-0.028,0.028,-0.041,-0.01,0.011,-0.023,-1.529,0.072,-0.745,27.89,85.0,40.505993,-3.359544,603.2,4,5,272.8,2.109
28.4,1,-0.023,0.016,-0.013,-0.023,0.019,-0.028,-1.529,0.071,-0.743,27.89,85.0,40.505993,-3.359544,603.2,4,5,272.8,2.109
28.5,1,0.009,0.003,0.005,-0.004,0.009,-0.007,-1.529,0.069,-0.739,27.89,85.0,40.505993,-3.359544,603.2,4,5,272.8,2.109
28.6,1,-0.011,0.012,-0.01,-0.013,0.013,-0.009,-1.528,0.069,-0.737,27.89,85.0,40.505993,-3.359544,603.2,4,5,272.8,2.109
28.71,1,-0.053,0.04,-0.007,-0.018,0.015,-0.005,-1.528,0.068,-0.734,27.89,85.0,40.505993,-3.359544,603.2,4,5,272.8,2.109
28.8,1,-0.058,0.009,0.006,-0.042,0.017,-0.006,-1.53,0.067,-0.732,27.89,85.0,40.505993,-3.359544,603.2,4,5,272.8,2.109
28.9,1,0.022,-0.007,0.024,-0.026,0.01,0.012,-1.533,0.068,-0.73,28.89,84.1,40.505997,-3.359816,603.0,4,5,270.7,2.812
29.0,1,-0.01,0.066,-0.023,-0.006,0.038,-0.0,-1.532,0.061,-0.729,28.89,84.1,40.505997,-3.359816,603.0,4,5,270.7,2.812
29.11,1,-0.06,0.02,0.032,-0.031,0.031,0.007,-1.534,0.061,-0.727,28.89,84.1,40.505997,-3.359816,603.0,4,5,270.7,2.812
29.2,1,0.03,0.072,0.017,-0.014,0.042,0.021,-1.535,0.058,-0.727,28.89,84.1,40.505997,-3.359816,603.0,4,5,270.7,2.812
29.31,1,-0.009,0.085,0.009,0.001,0.074,0.008,-1.534,0.049,-0.727,28.89,84.1,40.505997,-3.359816,603.0,4,5,270.7,2.812
29.41,1,-0.056,0.093,0.037,-0.021,0.081,0.024,-1.536,0.047,-0.727,28.89,84.1,40.505997,-3.359816,603.0,4,5,270.7,2.812
29.5,1,0.026,0.044,0.03,-0.014,0.063,0.03,-1.538,0.045,-0.726,28.89,84.1,40.505997,-3.359816,603.0,4,5,270.7,2.812
29.6,1,0.006,0.024,0.012,0.004,0.052,0.023,-1.538,0.039,-0.725,28.89,84.1,40.505997,-3.359816,603.0,4,5,270.7,2.812
29.71,1,-0.081,-0.0,0.017,-0.032,0.018,0.014,-1.539,0.041,-0.723,28.89,84.1,40.505997,-3.359816,603.0,4,5,270.7,2.812
29.8,1,-0.031,0.021,0.025,-0.04,0.006,0.024,-1.544,0.043,-0.72,28.89,84.1,40.505997,-3.359816,603.0,4,5,270.7,2.812
29.91,1,-0.029,0.009,0.002,-0.032,0.021,0.015,-1.547,0.04,-0.717,29.95,83.9,40.505997,-3.360087,603.7,4,5,269.3,3.516
30.0,1,-0.048,0.002,0.016,-0.044,0.011,0.011,-1.549,0.038,-0.715,29.95,83.9,40.505997,-3.360087,603.7,4,5,269.3,3.516
30.11,1,0.002,-0.017,0.014,-0.027,-0.008,0.018,-1.551,0.038,-0.712,29.95,83.9,40.505997,-3.360087,603.7,4,5,269.3,3.516
30.2,1,-0.003,0.0,0.02,-0.006,0.001,0.015,-1.554,0.038,-0.709,29.95,83.9,40.505997,-3.360087,603.7,4,5,269.3,3.516
30.31,1,-0.018,0.001,0.008,-0.017,-0.003,0.014,-1.557,0.038,-0.706,29.95,83.9,40.505997,-3.360087,603.7,4,5,269.3,3.516
30.41,1,0.027,0.003,0.041,0.005,-0.002,0.022,-1.562,0.039,-0.702,29.95,83.9,40.505997,-3.360087,603.7,4,5,269.3,3.516
30.52,1,-0.015,0.007,-0.006,0.006,0.005,0.016,-1.564,0.038,-0.699,29.95,83.9,40.505997,-3.360087,603.7,4,5,269.3,3.516
30.61,1,-0.032,-0.032,0.035,-0.018,-0.009,0.014,-1.565,0.04,-0.695,29.95,83.9,40.505997,-3.360087,603.7,4,5,269.3,3.516
30.71,1,-0.009,-0.014,-0.012,-0.017,-0.025,0.012,-1.565,0.043,-0.692,29.95,83.9,40.505997,-3.360087,603.7,4,5,269.3,3.516
30.81,1,-0.042,-0.009,0.016,-0.029,-0.016,0.001,-1.562,0.042,-0.689,29.95,83.9,40.505997,-3.360087,603.7,4,5,269.3,3.516
30.91,1,0.005,-0.034,0.06,-0.016,-0.016,0.037,-1.563,0.042,-0.685,30.9,84.4,40.505997,-3.360363,602.5,4,5,268.2,2.461
31.12,1,-0.028,-0.046,0.038,-0.019,-0.036,0.033,-1.569,0.046,-0.678,30.9,84.4,40.505997,-3.360363,602.5,4,5,268.2,2.461
31.21,1,-0.055,-0.011,0.024,-0.034,-0.023,0.035,-1.574,0.046,-0.674,30.9,84.4,40.505997,-3.360363,602.5,4,5,268.2,2.461
31.31,1,-0.094,0.028,0.012,-0.065,0.003,0.018,-1.576,0.047,-0.67,30.9,84.4,40.505997,-3.360363,602.5,4,5,268.2,2.461
31.41,1,-0.082,-0.035,0.068,-0.079,-0.008,0.037,-1.579,0.049,-0.666,30.9,84.4,40.505997,-3.360363,602.5,4,5,268.2,2.461
31.51,1,-0.032,-0.034,0.035,-0.064,-0.028,0.043,-1.581,0.05,-0.66,30.9,84.4,40.505997,-3.360363,602.5,4,5,268.2,2.461
31.62,1,0.046,-0.039,0.073,-0.011,-0.043,0.055,-1.587,0.056,-0.655,30.9,84.4,40.505997,-3.360363,602.5,4,5,268.2,2.461
31.72,1,0.057,-0.03,0.034,0.04,-0.03,0.053,-1.59,0.062,-0.65,30.9,84.4,40.505997,-3.360363,602.5,4,5,268.2,2.461
31.81,1,-0.026,-0.036,0.056,0.011,-0.027,0.043,-1.597,0.064,-0.645,30.9,84.4,40.505997,-3.360363,602.5,4,5,268.2,2.461
31.91,1,-0.016,-0.017,0.057,-0.014,-0.026,0.054,-1.606,0.068,-0.639,30.9,84.4,40.505997,-3.360363,602.5,4,5,268.2,2.461
32.01,1,-0.07,-0.009,0.044,-0.031,-0.022,0.055,-1.609,0.07,-0.634,31.9,84.1,40.505985,-3.360638,601.7,4,5,266.5,2.812
32.11,1,-0.043,-0.025,0.046,-0.042,-0.022,0.046,-1.612,0.073,-0.629,31.9,84.1,40.505985,-3.360638,601.7,4,5,266.5,2.812
32.21,1,-0.009,-0.018,0.034,-0.025,-0.022,0.043,-1.615,0.077,-0.624,31.9,84.1,40.505985,-3.360638,601.7,4,5,266.5,2.812
32.32,1,0.0,-0.032,0.019,-0.017,-0.025,0.028,-1.618,0.079,-0.619,31.9,84.1,40.505985,-3.360638,601.7,4,5,266.5,2.812
32.41,1,-0.009,-0.019,0.042,-0.013,-0.018,0.031,-1.622,0.079,-0.614,31.9,84.1,40.505985,-3.360638,601.7,4,5,266.5,2.812
32.51,1,-0.018,0.005,0.016,-0.012,-0.011,0.027,-1.626,0.079,-0.609,31.9,84.1,40.505985,-3.360638,601.7,4,5,266.5,2.812
32.61,1,0.016,0.012,0.032,-0.009,0.002,0.026,-1.628,0.078,-0.604,31.9,84.1,40.505985,-3.360638,601.7,4,5,266.5,2.812
32.72,1,0.053,0.024,0.03,0.033,0.015,0.034,-1.629,0.075,-0.6,31.9,84.1,40.505985,-3.360638,601.7,4,5,266.5,2.812
32.81,1,0.034,-0.014,0.015,0.024,0.0,0.025,-1.629,0.071,-0.596,31.9,84.1,40.505985,-3.360638,601.7,4,5,266.5,2.812
32.91,1,0.013,0.011,0.038,0.029,-0.002,0.027,-1.63,0.067,-0.593,31.9,84.1,40.505985,-3.360638,601.7,4,5,266.5,2.812
33.01,1,0.02,0.063,-0.014,0.023,0.03,0.014,-1.628,0.061,-0.591,32.9,86.2,40.505955,-3.360917,602.4,4,5,263.7,4.57
33.11,1,-0.073,0.052,0.029,-0.016,0.053,0.008,-1.629,0.059,-0.589,32.9,86.2,40.505955,-3.360917,602.4,4,5,263.7,4.57
33.21,1,-0.049,0.053,0.018,-0.052,0.049,0.021,-1.632,0.057,-0.586,32.9,86.2,40.505955,-3.360917,602.4,4,5,263.7,4.57
33.32,1,-0.015,0.051,0.025,-0.027,0.052,0.02,-1.634,0.055,-0.583,32.9,86.2,40.505955,-3.360917,602.4,4,5,263.7,4.57
33.42,1,-0.013,0.038,0.025,-0.009,0.034,0.018,-1.637,0.053,-0.58,32.9,86.2,40.505955,-3.360917,602.4,4,5,263.7,4.57
33.53,1,0.07,0.049,0.014,0.01,0.048,0.025,-1.638,0.048,-0.579,32.9,86.2,40.505955,-3.360917,602.4,4,5,263.7,4.57
33.62,1,0.037,0.087,0.011,0.042,0.056,0.015,-1.638,0.045,-0.578,32.9,86.2,40.505955,-3.360917,602.4,4,5,263.7,4.57
33.72,1,-0.074,0.065,0.014,-0.01,0.072,0.014,-1.639,0.043,-0.577,32.9,86.2,40.505955,-3.360917,602.4,4,5,263.7,4.57
33.82,1,-0.02,0.114,-0.001,-0.026,0.085,0.007,-1.642,0.039,-0.576,32.9,86.2,40.505955,-3.360917,602.4,4,5,263.7,4.57
33.92,1,-0.004,0.047,0.012,-0.015,0.077,0.011,-1.642,0.039,-0.575,32.9,86.2,40.505955,-3.360917,602.4,4,5,263.7,4.57
34.02,1,0.006,0.076,0.013,-0.014,0.076,0.01,-1.642,0.039,-0.575,33.93,88.9,40.505928,-3.3612,603.7,4,5,262.3,4.219
34.12,1,0.018,0.068,0.01,0.009,0.073,0.009,-1.644,0.03,-0.574,33.93,88.9,40.505928,-3.3612,603.7,4,5,262.3,4.219
34.22,1,-0.015,0.049,0.004,0.002,0.065,0.01,-1.643,0.022,-0.573,33.93,88.9,40.505928,-3.3612,603.7,4,5,262.3,4.219
34.32,1,-0.009,0.048,-0.027,-0.002,0.059,-0.008,-1.643,0.019,-0.572,33.93,88.9,40.505928,-3.3612,603.7,4,5,262.3,4.219
34.42,1,-0.097,-0.011,0.001,-0.04,0.025,-0.012,-1.641,0.021,-0.571,33.93,88.9,40.505928,-3.3612,603.7,4,5,262.3,4.219
34.53,1,0.034,0.038,-0.022,-0.028,0.013,-0.008,-1.636,0.014,-0.571,33.93,88.9,40.505928,-3.3612,603.7,4,5,262.3,4.219
34.62,1,-0.001,0.052,-0.03,0.008,0.043,-0.021,-1.632,0.009,-0.57,33.93,88.9,40.505928,-3.3612,603.7,4,5,262.3,4.219
34.73,1,-0.022,0.008,-0.005,-0.021,0.026,-0.016,-1.631,0.006,-0.569,33.93,88.9,40.505928,-3.3612,603.7,4,5,262.3,4.219
34.82,1,-0.004,0.007,0.01,-0.012,0.014,-0.004,-1.632,0.004,-0.567,33.93,88.9,40.505928,-3.3612,603.7,4,5,262.3,4.219
34.92,1,0.0,0.003,-0.018,-0.002,0.01,-0.005,-1.632,0.005,-0.565,33.93,88.9,40.505928,-3.3612,603.7,4,5,262.3,4.219
35.02,1,-0.023,-0.012,-0.019,-0.012,0.001,-0.014,-1.631,0.007,-0.562,34.91,91.6,40.505894,-3.361497,604.8,4,5,261.9,1.758
35.12,1,0.012,-0.0,-0.008,-0.007,-0.005,-0.014,-1.629,0.01,-0.56,34.91,91.6,40.505894,-3.361497,604.8,4,5,261.9,1.758
35.22,1,0.021,-0.007,-0.008,0.012,-0.006,-0.007,-1.627,0.01,-0.558,34.91,91.6,40.505894,-3.361497,604.8,4,5,261.9,1.758
35.32,1,-0.038,-0.01,-0.039,-0.01,-0.008,-0.025,-1.624,0.01,-0.556,34.91,91.6,40.505894,-3.361497,604.8,4,5,261.9,1.758
35.42,1,-0.023,0.001,0.005,-0.019,-0.004,-0.016,-1.624,0.01,-0.553,34.91,91.6,40.505894,-3.361497,604.8,4,5,261.9,1.758
35.52,1,-0.042,-0.008,-0.015,-0.031,-0.003,-0.011,-1.623,0.011,-0.551,34.91,91.6,40.505894,-3.361497,604.8,4,5,261.9,1.758
35.62,1,0.003,-0.006,-0.014,-0.023,-0.007,-0.012,-1.621,0.011,-0.549,34.91,91.6,40.505894,-3.361497,604.8,4,5,261.9,1.758
35.73,1,0.002,0.001,-0.02,0.003,-0.003,-0.016,-1.619,0.01,-0.547,34.91,91.6,40.505894,-3.361497,604.8,4,5,261.9,1.758
35.82,1,0.006,0.008,-0.004,-0.002,0.0,-0.013,-1.619,0.009,-0.545,34.91,91.6,40.505894,-3.361497,604.8,4,5,261.9,1.758
35.93,1,-0.009,0.003,0.009,-0.003,0.005,0.001,-1.618,0.01,-0.543,34.91,91.6,40.505894,-3.361497,604.8,4,5,261.9,1.758
36.02,1,0.024,-0.013,0.004,0.003,0.003,0.006,-1.618,0.012,-0.541,35.87,93.8,40.505852,-3.3618,605.1,4,5,260.5,1.758
36.12,1,-0.004,0.032,-0.038,0.011,0.006,-0.015,-1.615,0.011,-0.539,35.87,93.8,40.505852,-3.3618,605.1,4,5,260.5,1.758
36.23,1,-0.069,0.005,0.005,-0.025,0.01,-0.013,-1.613,0.008,-0.538,35.87,93.8,40.505852,-3.3618,605.1,4,5,260.5,1.758
36.33,1,0.013,0.014,-0.003,-0.023,0.014,-0.002,-1.613,0.006,-0.537,35.87,93.8,40.505852,-3.3618,605.1,4,5,260.5,1.758
36.44,1,0.025,0.03,-0.027,0.008,0.019,-0.013,-1.611,0.004,-0.536,35.87,93.8,40.505852,-3.3618,605.1,4,5,260.5,1.758
36.53,1,-0.014,0.016,-0.03,0.005,0.026,-0.024,-1.609,-0.001,-0.535,35.87,93.8,40.505852,-3.3618,605.1,4,5,260.5,1.758
36.63,1,-0.023,0.022,-0.01,-0.012,0.017,-0.02,-1.609,-0.005,-0.535,35.87,93.8,40.505852,-3.3618,605.1,4,5,260.5,1.758
36.73,1,0.0,0.008,0.01,-0.009,0.005,-0.004,-1.608,-0.007,-0.534,35.87,93.8,40.505852,-3.3618,605.1,4,5,260.5,1.758
36.83,1,0.016,-0.056,-0.037,0.003,-0.006,-0.012,-1.605,-0.011,-0.533,35.87,93.8,40.505852,-3.3618,605.1,4,5,260.5,1.758
36.93,1,-0.003,-0.027,-0.0,-0.001,-0.032,-0.016,-1.605,-0.01,-0.531,35.87,93.8,40.505852,-3.3618,605.1,4,5,260.5,1.758
37.03,1,-0.026,-0.045,-0.009,-0.008,-0.034,-0.009,-1.606,-0.01,-0.529,36.9,95.3,40.505806,-3.362112,605.5,4,5,259.5,2.461
37.13,1,-0.017,-0.053,-0.006,-0.03,-0.04,-0.008,-1.605,-0.01,-0.526,36.9,95.3,40.505806,-3.362112,605.5,4,5,259.5,2.461
37.23,1,0.044,-0.035,-0.02,0.015,-0.053,-0.013,-1.601,-0.009,-0.523,36.9,95.3,40.505806,-3.362112,605.5,4,5,259.5,2.461
37.33,1,0.035,-0.066,-0.018,0.033,-0.052,-0.017,-1.598,-0.009,-0.52,36.9,95.3,40.505806,-3.362112,605.5,4,5,259.5,2.461
37.43,1,-0.022,-0.008,-0.016,0.013,-0.035,-0.015,-1.597,-0.005,-0.518,36.9,95.3,40.505806,-3.362112,605.5,4,5,259.5,2.461
37.53,1,-0.002,-0.018,0.018,-0.009,-0.021,-0.004,-1.596,-0.004,-0.516,36.9,95.3,40.505806,-3.362112,605.5,4,5,259.5,2.461
37.64,1,0.014,-0.024,0.003,0.006,-0.019,0.004,-1.596,-0.005,-0.514,36.9,95.3,40.505806,-3.362112,605.5,4,5,259.5,2.461
37.73,1,0.009,-0.024,-0.001,0.002,-0.023,0.002,-1.594,-0.004,-0.511,36.9,95.3,40.505806,-3.362112,605.5,4,5,259.5,2.461
37.83,1,0.016,-0.039,0.038,0.023,-0.03,0.013,-1.595,-0.005,-0.509,36.9,95.3,40.505806,-3.362112,605.5,4,5,259.5,2.461
37.93,1,0.019,-0.02,-0.022,0.011,-0.033,0.001,-1.593,-0.004,-0.507,36.9,95.3,40.505806,-3.362112,605.5,4,5,259.5,2.461
38.03,1,-0.078,-0.019,-0.008,-0.023,-0.014,-0.001,-1.593,-0.001,-0.505,37.92,96.1,40.505756,-3.362425,605.6,4,5,258.4,2.109
38.13,1,-0.056,0.003,0.004,-0.048,-0.009,-0.001,-1.593,0.0,-0.504,37.92,96.1,40.505756,-3.362425,605.6,4,5,258.4,2.109
38.23,1,-0.002,0.006,0.005,-0.034,-0.002,0.003,-1.593,0.002,-0.501,37.92,96.1,40.505756,-3.362425,605.6,4,5,258.4,2.109
38.34,1,0.043,0.002,-0.008,0.009,-0.001,0.002,-1.59,0.003,-0.5,37.92,96.1,40.505756,-3.362425,605.6,4,5,258.4,2.109
38.44,1,0.003,-0.029,-0.002,0.017,-0.008,-0.004,-1.588,0.007,-0.498,37.92,96.1,40.505756,-3.362425,605.6,4,5,258.4,2.109
38.53,1,-0.038,-0.015,0.002,-0.014,-0.019,-0.002,-1.589,0.009,-0.497,37.92,96.1,40.505756,-3.362425,605.6,4,5,258.4,2.109
38.63,1,-0.023,-0.005,0.013,-0.025,-0.013,0.007,-1.589,0.004,-0.496,37.92,96.1,40.505756,-3.362425,605.6,4,5,258.4,2.109
38.74,1,0.005,0.034,-0.019,-0.006,0.01,-0.002,-1.588,0.001,-0.495,37.92,96.1,40.505756,-3.362425,605.6,4,5,258.4,2.109
38.84,1,-0.008,0.026,0.019,-0.006,0.02,-0.0,-1.589,-0.001,-0.495,37.92,96.1,40.505756,-3.362425,605.6,4,5,258.4,2.109
38.93,1,0.012,0.024,-0.006,-0.004,0.023,0.002,-1.592,-0.004,-0.495,37.92,96.1,40.505756,-3.362425,605.6,4,5,258.4,2.109
39.04,1,0.049,0.004,0.014,0.027,0.016,0.006,-1.591,-0.005,-0.493,38.87,96.9,40.505699,-3.362735,606.2,4,5,257.0,2.461
39.14,1,-0.046,-0.03,-0.001,0.001,-0.005,0.004,-1.59,-0.002,-0.49,38.87,96.9,40.505699,-3.362735,606.2,4,5,257.0,2.461
39.24,1,0.009,-0.03,0.012,-0.008,-0.017,0.005,-1.59,0.004,-0.487,38.87,96.9,40.505699,-3.362735,606.2,4,5,257.0,2.461
39.34,1,-0.004,-0.019,-0.007,0.002,-0.025,0.004,-1.59,0.008,-0.485,38.87,96.9,40.505699,-3.362735,606.2,4,5,257.0,2.461
39.44,1,0.023,-0.035,0.008,0.007,-0.026,0.004,-1.59,0.01,-0.482,38.87,96.9,40.505699,-3.362735,606.2,4,5,257.0,2.461
39.54,1,0.034,-0.022,-0.008,0.019,-0.033,-0.0,-1.59,0.012,-0.48,38.87,96.9,40.505699,-3.362735,606.2,4,5,257.0,2.461
39.64,1,0.008,-0.024,0.001,0.019,-0.027,-0.001,-1.59,0.014,-0.478,38.87,96.9,40.505699,-3.362735,606.2,4,5,257.0,2.461
39.74,1,-0.036,-0.005,-0.002,-0.008,-0.012,-0.0,-1.59,0.014,-0.475,38.87,96.9,40.505699,-3.362735,606.2,4,5,257.0,2.461
39.84,1,-0.016,-0.007,-0.006,-0.02,-0.006,-0.007,-1.59,0.014,-0.473,38.87,96.9,40.505699,-3.362735,606.2,4,5,257.0,2.461
39.94,1,-0.004,-0.009,0.03,-0.006,-0.009,0.01,-1.592,0.017,-0.47,38.87,96.9,40.505699,-3.362735,606.2,4,5,257.0,2.461
40.04,1,-0.007,-0.035,0.007,-0.002,-0.02,0.012,-1.594,0.021,-0.468,39.9,98.0,40.50563,-3.36304,607.1,4,5,255.6,2.812
40.14,1,0.009,-0.048,0.026,-0.002,-0.041,0.018,-1.596,0.025,-0.465,39.9,98.0,40.50563,-3.36304,607.1,4,5,255.6,2.812
40.24,1,0.01,0.008,0.029,-0.001,-0.018,0.027,-1.597,0.025,-0.463,39.9,98.0,40.50563,-3.36304,607.1,4,5,255.6,2.812
40.34,1,-0.005,0.009,0.002,0.007,0.004,0.015,-1.597,0.022,-0.461,39.9,98.0,40.50563,-3.36304,607.1,4,5,255.6,2.812
40.44,1,0.003,0.006,0.021,-0.005,0.001,0.012,-1.598,0.023,-0.459,39.9,98.0,40.50563,-3.36304,607.1,4,5,255.6,2.812
40.55,1,0.01,0.006,0.003,0.01,0.003,0.011,-1.599,0.023,-0.457,39.9,98.0,40.50563,-3.36304,607.1,4,5,255.6,2.812
40.64,1,-0.051,-0.005,0.003,-0.016,0.001,0.008,-1.6,0.022,-0.455,39.9,98.0,40.50563,-3.36304,607.1,4,5,255.6,2.812
40.74,1,-0.009,-0.003,0.023,-0.023,-0.005,0.013,-1.603,0.02,-0.453,39.9,98.0,40.50563,-3.36304,607.1,4,5,255.6,2.812
40.84,1,-0.004,0.001,0.013,-0.009,-0.001,0.016,-1.604,0.018,-0.452,39.9,98.0,40.50563,-3.36304,607.1,4,5,255.6,2.812
41.04,1,0.012,0.01,0.019,0.006,-0.006,0.014,-1.606,0.019,-0.448,39.9,98.0,40.50563,-3.36304,607.1,4,5,255.6,2.812
41.15,1,0.035,0.024,0.018,0.016,0.006,0.02,-1.609,0.019,-0.446,40.93,98.8,40.505554,-3.363353,606.9,4,5,253.8,3.164
41.25,1,-0.014,-0.006,-0.001,0.012,0.01,0.009,-1.609,0.02,-0.444,40.93,98.8,40.505554,-3.363353,606.9,4,5,253.8,3.164
41.35,1,0.014,-0.007,0.013,0.007,-0.004,0.009,-1.609,0.022,-0.442,40.93,98.8,40.505554,-3.363353,606.9,4,5,253.8,3.164
41.44,1,-0.04,0.002,0.002,-0.009,0.002,0.006,-1.609,0.023,-0.44,40.93,98.8,40.505554,-3.363353,606.9,4,5,253.8,3.164
41.54,1,-0.027,0.027,0.013,-0.031,0.008,0.008,-1.611,0.023,-0.438,40.93,98.8,40.505554,-3.363353,606.9,4,5,253.8,3.164
41.65,1,-0.053,0.017,-0.012,-0.042,0.022,-0.001,-1.612,0.021,-0.437,40.93,98.8,40.505554,-3.363353,606.9,4,5,253.8,3.164
41.75,1,0.014,0.002,-0.01,-0.017,0.008,-0.003,-1.612,0.022,-0.437,40.93,98.8,40.505554,-3.363353,606.9,4,5,253.8,3.164
41.84,1,-0.024,0.02,-0.004,-0.007,0.01,-0.007,-1.611,0.019,-0.437,40.93,98.8,40.505554,-3.363353,606.9,4,5,253.8,3.164
41.95,1,0.005,0.057,0.015,-0.011,0.032,0.001,-1.613,0.015,-0.436,40.93,98.8,40.505554,-3.363353,606.9,4,5,253.8,3.164
42.05,1,0.001,0.052,0.004,-0.0,0.046,0.01,-1.612,0.014,-0.436,40.93,98.8,40.505554,-3.363353,606.9,4,5,253.8,3.164
42.15,1,-0.005,0.028,0.008,-0.005,0.044,0.004,-1.61,0.013,-0.435,41.9,100.7,40.50547,-3.363674,607.6,4,5,252.1,3.516
42.26,1,-0.005,0.018,0.004,-0.003,0.029,0.005,-1.61,0.011,-0.435,41.9,100.7,40.50547,-3.363674,607.6,4,5,252.1,3.516
42.35,1,-0.003,0.011,0.001,-0.001,0.014,0.004,-1.612,0.01,-0.435,41.9,100.7,40.50547,-3.363674,607.6,4,5,252.1,3.516
42.45,1,-0.012,0.012,0.019,-0.001,0.013,0.009,-1.612,0.009,-0.434,41.9,100.7,40.50547,-3.363674,607.6,4,5,252.1,3.516
42.55,1,0.008,-0.006,-0.015,-0.003,0.007,0.003,-1.611,0.011,-0.432,41.9,100.7,40.50547,-3.363674,607.6,4,5,252.1,3.516
42.65,1,0.01,-0.001,-0.013,0.007,-0.0,-0.007,-1.61,0.013,-0.43,41.9,100.7,40.50547,-3.363674,607.6,4,5,252.1,3.516
42.75,1,-0.017,-0.012,-0.001,-0.008,-0.002,-0.005,-1.61,0.016,-0.429,41.9,100.7,40.50547,-3.363674,607.6,4,5,252.1,3.516
42.85,1,-0.019,-0.014,-0.015,-0.014,-0.011,-0.012,-1.61,0.017,-0.427,41.9,100.7,40.50547,-3.363674,607.6,4,5,252.1,3.516
42.95,1,0.009,-0.017,-0.007,-0.007,-0.01,-0.006,-1.61,0.019,-0.425,41.9,100.7,40.50547,-3.363674,607.6,4,5,252.1,3.516
43.06,1,0.006,-0.015,-0.022,0.006,-0.017,-0.016,-1.608,0.02,-0.424,41.9,100.7,40.50547,-3.363674,607.6,4,5,252.1,3.516
43.15,1,-0.031,-0.044,-0.026,-0.009,-0.028,-0.022,-1.606,0.02,-0.422,42.9,102.5,40.505383,-3.364004,607.9,4,5,250.7,3.164
43.25,1,0.012,0.013,0.012,-0.01,-0.018,-0.007,-1.605,0.021,-0.42,42.9,102.5,40.505383,-3.364004,607.9,4,5,250.7,3.164
43.35,1,-0.01,-0.032,-0.018,0.003,-0.009,-0.008,-1.604,0.021,-0.418,42.9,102.5,40.505383,-3.364004,607.9,4,5,250.7,3.164
43.45,1,-0.051,-0.01,0.0,-0.033,-0.021,-0.009,-1.603,0.023,-0.417,42.9,102.5,40.505383,-3.364004,607.9,4,5,250.7,3.164
43.55,1,0.044,0.018,-0.009,-0.003,-0.001,-0.005,-1.602,0.022,-0.415,42.9,102.5,40.505383,-3.364004,607.9,4,5,250.7,3.164
43.66,1,0.011,-0.004,-0.004,0.014,0.001,-0.001,-1.601,0.021,-0.414,42.9,102.5,40.505383,-3.364004,607.9,4,5,250.7,3.164
43.76,1,0.013,-0.008,-0.022,0.007,-0.005,-0.014,-1.601,0.022,-0.413,42.9,102.5,40.505383,-3.364004,607.9,4,5,250.7,3.164
43.85,1,-0.016,0.011,-0.038,0.012,0.002,-0.027,-1.599,0.025,-0.411,42.9,102.5,40.505383,-3.364004,607.9,4,5,250.7,3.164
43.96,1,-0.062,-0.027,-0.009,-0.031,-0.004,-0.017,-1.597,0.025,-0.409,42.9,102.5,40.505383,-3.364004,607.9,4,5,250.7,3.164
44.05,1,-0.009,-0.038,-0.028,-0.027,-0.022,-0.021,-1.593,0.025,-0.408,42.9,102.5,40.505383,-3.364004,607.9,4,5,250.7,3.164
44.15,1,0.013,-0.019,-0.026,-0.006,-0.024,-0.027,-1.59,0.028,-0.406,43.87,104.0,40.505291,-3.364334,608.3,4,5,249.3,2.812
44.26,1,-0.016,-0.012,-0.023,-0.003,-0.02,-0.024,-1.588,0.03,-0.405,43.87,104.0,40.505291,-3.364334,608.3,4,5,249.3,2.812
44.35,1,0.012,0.013,-0.038,-0.006,-0.009,-0.028,-1.585,0.028,-0.403,43.87,104.0,40.505291,-3.364334,608.3,4,5,249.3,2.812
44.45,1,-0.018,-0.012,-0.044,0.006,0.002,-0.041,-1.58,0.025,-0.402,43.87,104.0,40.505291,-3.364334,608.3,4,5,249.3,2.812
44.55,1,-0.05,-0.024,-0.042,-0.03,-0.015,-0.041,-1.576,0.024,-0.4,43.87,104.0,40.505291,-3.364334,608.3,4,5,249.3,2.812
44.66,1,-0.028,-0.009,-0.023,-0.036,-0.018,-0.034,-1.573,0.023,-0.399,43.87,104.0,40.505291,-3.364334,608.3,4,5,249.3,2.812
44.76,1,0.042,0.002,-0.048,-0.007,-0.007,-0.037,-1.567,0.024,-0.397,43.87,104.0,40.505291,-3.364334,608.3,4,5,249.3,2.812
44.86,1,0.001,-0.006,-0.026,0.016,-0.001,-0.034,-1.564,0.027,-0.396,43.87,104.0,40.505291,-3.364334,608.3,4,5,249.3,2.812
44.97,1,0.012,0.001,-0.032,0.008,-0.002,-0.033,-1.561,0.027,-0.395,43.87,104.0,40.505291,-3.364334,608.3,4,5,249.3,2.812
45.06,1,-0.019,-0.011,-0.048,-0.002,-0.007,-0.038,-1.557,0.026,-0.394,43.87,104.0,40.505291,-3.364334,608.3,4,5,249.3,2.812
45.16,1,-0.016,0.002,-0.038,-0.013,-0.003,-0.039,-1.555,0.026,-0.393,44.91,105.0,40.505184,-3.36466,607.8,4,5,247.5,3.164
45.26,1,0.025,0.043,-0.018,0.002,0.019,-0.034,-1.553,0.026,-0.392,44.91,105.0,40.505184,-3.36466,607.8,4,5,247.5,3.164
45.36,1,-0.007,-0.006,-0.023,0.003,0.013,-0.018,-1.551,0.027,-0.39,44.91,105.0,40.505184,-3.36466,607.8,4,5,247.5,3.164
45.46,1,0.043,0.021,-0.014,0.011,0.009,-0.023,-1.547,0.027,-0.39,44.91,105.0,40.505184,-3.36466,607.8,4,5,247.5,3.164
45.56,1,0.033,0.021,0.002,0.038,0.02,-0.008,-1.547,0.024,-0.389,44.91,105.0,40.505184,-3.36466,607.8,4,5,247.5,3.164
45.66,1,-0.012,-0.003,0.01,0.013,0.008,-0.002,-1.547,0.024,-0.388,44.91,105.0,40.505184,-3.36466,607.8,4,5,247.5,3.164
45.76,1,-0.053,-0.021,0.009,-0.019,-0.006,0.007,-1.548,0.024,-0.387,44.91,105.0,40.505184,-3.36466,607.8,4,5,247.5,3.164
45.86,1,-0.035,0.017,0.004,-0.042,-0.008,0.003,-1.549,0.019,-0.386,44.91,105.0,40.505184,-3.36466,607.8,4,5,247.5,3.164
45.97,1,0.008,0.027,0.029,-0.02,0.019,0.016,-1.553,0.018,-0.385,44.91,105.0,40.505184,-3.36466,607.8,4,5,247.5,3.164
46.07,1,0.041,0.015,0.007,0.015,0.019,0.015,-1.554,0.017,-0.385,44.91,105.0,40.505184,-3.36466,607.8,4,5,247.5,3.164
46.16,1,-0.002,-0.004,-0.005,0.022,0.011,0.005,-1.555,0.017,-0.384,45.87,104.6,40.505077,-3.364972,608.1,4,5,245.7,3.516
46.26,1,0.016,-0.006,0.029,0.013,-0.004,0.011,-1.556,0.02,-0.383,45.87,104.6,40.505077,-3.364972,608.1,4,5,245.7,3.516
46.36,1,0.004,-0.002,0.007,0.007,-0.005,0.017,-1.558,0.02,-0.382,45.87,104.6,40.505077,-3.364972,608.1,4,5,245.7,3.516
46.46,1,0.008,-0.01,0.016,0.003,-0.003,0.013,-1.559,0.021,-0.381,45.87,104.6,40.505077,-3.364972,608.1,4,5,245.7,3.516
46.56,1,-0.022,-0.003,0.029,-0.0,-0.006,0.019,-1.561,0.022,-0.38,45.87,104.6,40.505077,-3.364972,608.1,4,5,245.7,3.516
46.67,1,-0.05,0.015,0.009,-0.027,0.004,0.017,-1.562,0.021,-0.379,45.87,104.6,40.505077,-3.364972,608.1,4,5,245.7,3.516
46.76,1,-0.023,-0.014,0.021,-0.029,0.0,0.016,-1.564,0.022,-0.378,45.87,104.6,40.505077,-3.364972,608.1,4,5,245.7,3.516
46.86,1,0.012,-0.011,0.023,-0.012,-0.012,0.022,-1.564,0.025,-0.377,45.87,104.6,40.505077,-3.364972,608.1,4,5,245.7,3.516
46.96,1,0.012,-0.015,0.017,-0.001,-0.002,0.021,-1.566,0.023,-0.376,45.87,104.6,40.505077,-3.364972,608.1,4,5,245.7,3.516
47.07,1,-0.024,-0.021,0.026,-0.004,-0.016,0.02,-1.567,0.024,-0.374,45.87,104.6,40.505077,-3.364972,608.1,4,5,245.7,3.516
47.17,1,-0.038,-0.024,0.025,-0.024,-0.025,0.022,-1.57,0.025,-0.373,46.87,104.2,40.504963,-3.365273,608.6,4,5,244.0,3.516
47.26,1,-0.016,0.001,0.014,-0.026,-0.009,0.023,-1.572,0.026,-0.372,46.87,104.2,40.504963,-3.365273,608.6,4,5,244.0,3.516
47.37,1,-0.011,-0.033,0.041,-0.018,-0.019,0.027,-1.575,0.028,-0.37,46.87,104.2,40.504963,-3.365273,608.6,4,5,244.0,3.516
47.47,1,0.023,-0.006,0.001,0.005,-0.02,0.023,-1.577,0.03,-0.369,46.87,104.2,40.504963,-3.365273,608.6,4,5,244.0,3.516
47.57,1,-0.014,-0.024,0.021,0.003,-0.015,0.012,-1.578,0.03,-0.367,46.87,104.2,40.504963,-3.365273,608.6,4,5,244.0,3.516
47.67,1,-0.025,-0.037,0.012,-0.013,-0.024,0.016,-1.58,0.033,-0.365,46.87,104.2,40.504963,-3.365273,608.6,4,5,244.0,3.516
47.77,1,-0.042,-0.035,0.012,-0.028,-0.032,0.015,-1.58,0.035,-0.362,46.87,104.2,40.504963,-3.365273,608.6,4,5,244.0,3.516
47.88,1,0.009,-0.01,-0.003,-0.027,-0.027,0.008,-1.579,0.037,-0.36,46.87,104.2,40.504963,-3.365273,608.6,4,5,244.0,3.516
47.97,1,0.032,-0.008,-0.006,0.013,-0.01,-0.003,-1.578,0.04,-0.358,46.87,104.2,40.504963,-3.365273,608.6,4,5,244.0,3.516
48.07,1,0.014,0.0,0.019,0.012,-0.009,0.01,-1.575,0.041,-0.357,46.87,104.2,40.504963,-3.365273,608.6,4,5,244.0,3.516
48.17,1,0.036,0.02,-0.014,0.03,0.003,0.003,-1.571,0.04,-0.357,47.89,105.3,40.504837,-3.365581,609.6,4,5,242.2,3.516
48.27,1,-0.037,0.01,0.002,0.007,0.01,-0.005,-1.57,0.04,-0.356,47.89,105.3,40.504837,-3.365581,609.6,4,5,242.2,3.516
48.37,1,-0.078,0.015,0.004,-0.044,0.013,0.001,-1.57,0.039,-0.355,47.89,105.3,40.504837,-3.365581,609.6,4,5,242.2,3.516
48.47,1,-0.023,0.011,-0.033,-0.047,0.012,-0.012,-1.571,0.036,-0.355,47.89,105.3,40.504837,-3.365581,609.6,4,5,242.2,3.516
48.57,1,-0.012,0.029,-0.029,-0.018,0.019,-0.023,-1.568,0.035,-0.355,47.89,105.3,40.504837,-3.365581,609.6,4,5,242.2,3.516
48.67,1,-0.019,0.017,-0.009,-0.023,0.018,-0.024,-1.567,0.033,-0.355,47.89,105.3,40.504837,-3.365581,609.6,4,5,242.2,3.516
48.77,1,0.002,0.038,-0.002,-0.004,0.028,-0.006,-1.567,0.032,-0.355,47.89,105.3,40.504837,-3.365581,609.6,4,5,242.2,3.516
48.88,1,-0.003,0.028,-0.009,-0.006,0.029,-0.01,-1.563,0.034,-0.355,47.89,105.3,40.504837,-3.365581,609.6,4,5,242.2,3.516
48.97,1,-0.031,0.009,-0.008,-0.016,0.024,-0.007,-1.562,0.034,-0.355,47.89,105.3,40.504837,-3.365581,609.6,4,5,242.2,3.516
49.08,1,0.01,-0.007,-0.003,-0.011,0.007,-0.006,-1.561,0.036,-0.356,47.89,105.3,40.504837,-3.365581,609.6,4,5,242.2,3.516
49.17,1,0.008,0.043,-0.02,0.005,0.016,-0.009,-1.559,0.037,-0.356,48.88,106.5,40.504715,-3.365886,611.0,4,5,240.5,3.516
49.27,1,-0.038,0.033,-0.013,-0.009,0.033,-0.016,-1.556,0.035,-0.357,48.88,106.5,40.504715,-3.365886,611.0,4,5,240.5,3.516
49.37,1,-0.065,0.009,-0.004,-0.039,0.026,-0.009,-1.556,0.036,-0.357,48.88,106.5,40.504715,-3.365886,611.0,4,5,240.5,3.516
49.47,1,0.039,0.034,-0.016,-0.019,0.022,-0.01,-1.555,0.038,-0.358,48.88,106.5,40.504715,-3.365886,611.0,4,5,240.5,3.516
49.58,1,0.031,0.023,0.004,0.019,0.029,-0.006,-1.552,0.039,-0.358,48.88,106.5,40.504715,-3.365886,611.0,4,5,240.5,3.516
49.67,1,0.006,0.031,-0.011,0.007,0.025,-0.003,-1.549,0.04,-0.359,48.88,106.5,40.504715,-3.365886,611.0,4,5,240.5,3.516
49.77,1,-0.008,0.029,0.001,0.009,0.027,-0.01,-1.548,0.041,-0.359,48.88,106.5,40.504715,-3.365886,611.0,4,5,240.5,3.516
49.87,1,0.011,0.017,0.007,0.002,0.023,0.003,-1.548,0.044,-0.359,48.88,106.5,40.504715,-3.365886,611.0,4,5,240.5,3.516
49.97,1,0.047,0.049,0.003,0.016,0.025,0.004,-1.547,0.046,-0.36,48.88,106.5,40.504715,-3.365886,611.0,4,5,240.5,3.516
50.07,1,-0.043,0.001,-0.0,-0.002,0.026,-0.001,-1.545,0.048,-0.36,48.88,106.5,40.504715,-3.365886,611.0,4,5,240.5,3.516
50.19,1,0.004,-0.002,-0.02,-0.007,0.009,-0.001,-1.543,0.051,-0.36,49.87,107.0,40.504578,-3.366187,610.6,4,5,239.4,2.812
50.29,1,0.028,0.024,-0.02,0.02,0.014,-0.02,-1.539,0.054,-0.36,49.87,107.0,40.504578,-3.366187,610.6,4,5,239.4,2.812
50.38,1,0.008,0.01,-0.018,0.012,0.015,-0.016,-1.539,0.055,-0.359,49.87,107.0,40.504578,-3.366187,610.6,4,5,239.4,2.812
50.48,1,-0.002,-0.014,-0.018,0.012,-0.001,-0.015,-1.536,0.057,-0.359,49.87,107.0,40.504578,-3.366187,610.6,4,5,239.4,2.812
50.58,1,-0.026,0.0,-0.025,-0.012,0.002,-0.024,-1.532,0.056,-0.36,49.87,107.0,40.504578,-3.366187,610.6,4,5,239.4,2.812
50.68,1,-0.047,0.029,-0.024,-0.032,0.009,-0.021,-1.531,0.054,-0.36,49.87,107.0,40.504578,-3.366187,610.6,4,5,239.4,2.812
50.79,1,-0.023,0.028,-0.005,-0.032,0.022,-0.015,-1.531,0.053,-0.362,49.87,107.0,40.504578,-3.366187,610.6,4,5,239.4,2.812
50.88,1,0.043,0.047,-0.031,0.005,0.038,-0.018,-1.529,0.052,-0.363,49.87,107.0,40.504578,-3.366187,610.6,4,5,239.4,2.812
50.98,1,-0.006,0.038,-0.024,0.015,0.039,-0.031,-1.527,0.049,-0.365,49.87,107.0,40.504578,-3.366187,610.6,4,5,239.4,2.812
51.08,1,-0.036,0.021,0.029,-0.019,0.029,0.003,-1.527,0.046,-0.367,49.87,107.0,40.504578,-3.366187,610.6,4,5,239.4,2.812
51.18,1,0.037,0.066,-0.028,0.002,0.035,-0.007,-1.526,0.04,-0.37,50.88,107.0,40.504436,-3.366474,610.4,4,5,238.4,2.109
51.29,1,-0.017,0.072,0.013,0.004,0.06,-0.005,-1.526,0.036,-0.372,50.88,107.0,40.504436,-3.366474,610.4,4,5,238.4,2.109
51.39,1,0.019,0.037,0.017,0.004,0.057,0.009,-1.528,0.033,-0.375,50.88,107.0,40.504436,-3.366474,610.4,4,5,238.4,2.109
51.49,1,-0.006,0.021,0.024,0.002,0.041,0.02,-1.528,0.033,-0.377,50.88,107.0,40.504436,-3.366474,610.4,4,5,238.4,2.109
51.58,1,0.015,0.02,0.011,0.009,0.021,0.014,-1.529,0.035,-0.379,50.88,107.0,40.504436,-3.366474,610.4,4,5,238.4,2.109
51.68,1,-0.039,-0.0,0.027,-0.008,0.015,0.019,-1.53,0.039,-0.379,50.88,107.0,40.504436,-3.366474,610.4,4,5,238.4,2.109
51.78,1,0.038,-0.028,0.022,0.001,-0.001,0.021,-1.532,0.043,-0.379,50.88,107.0,40.504436,-3.366474,610.4,4,5,238.4,2.109
51.88,1,-0.011,-0.084,0.012,0.007,-0.041,0.019,-1.533,0.055,-0.377,50.88,107.0,40.504436,-3.366474,610.4,4,5,238.4,2.109
51.99,1,-0.021,-0.075,0.029,-0.01,-0.07,0.023,-1.536,0.065,-0.375,50.88,107.0,40.504436,-3.366474,610.4,4,5,238.4,2.109
52.08,1,-0.057,-0.089,0.015,-0.03,-0.077,0.018,-1.537,0.072,-0.373,50.88,107.0,40.504436,-3.366474,610.4,4,5,238.4,2.109
52.18,1,0.024,-0.089,0.042,-0.016,-0.082,0.032,-1.54,0.08,-0.371,51.87,106.3,40.504295,-3.366757,609.0,4,5,237.7,1.758
52.29,1,0.04,-0.017,0.028,0.018,-0.058,0.026,-1.541,0.087,-0.369,51.87,106.3,40.504295,-3.366757,609.0,4,5,237.7,1.758
52.38,1,-0.002,-0.035,0.036,0.015,-0.041,0.034,-1.544,0.09,-0.367,51.87,106.3,40.504295,-3.366757,609.0,4,5,237.7,1.758
52.49,1,-0.016,-0.046,0.044,-0.005,-0.041,0.039,-1.548,0.095,-0.366,51.87,106.3,40.504295,-3.366757,609.0,4,5,237.7,1.758
52.59,1,-0.03,-0.04,0.033,-0.012,-0.043,0.034,-1.549,0.096,-0.365,51.87,106.3,40.504295,-3.366757,609.0,4,5,237.7,1.758
52.7,1,-0.025,0.008,0.029,-0.026,-0.026,0.035,-1.553,0.094,-0.364,51.87,106.3,40.504295,-3.366757,609.0,4,5,237.7,1.758
52.79,1,-0.025,0.052,0.045,-0.026,0.02,0.038,-1.557,0.092,-0.365,51.87,106.3,40.504295,-3.366757,609.0,4,5,237.7,1.758
52.89,1,0.014,0.015,0.015,-0.012,0.024,0.027,-1.557,0.091,-0.365,51.87,106.3,40.504295,-3.366757,609.0,4,5,237.7,1.758
53.0,1,0.018,0.023,0.044,0.016,0.028,0.034,-1.56,0.092,-0.365,51.87,106.3,40.504295,-3.366757,609.0,4,5,237.7,1.758
53.09,1,-0.012,0.006,0.037,-0.002,0.008,0.038,-1.562,0.09,-0.366,51.87,106.3,40.504295,-3.366757,609.0,4,5,237.7,1.758
53.19,1,-0.009,0.034,0.011,-0.004,0.02,0.023,-1.562,0.084,-0.367,52.87,106.6,40.504143,-3.367037,606.6,4,5,237.0,1.406
53.29,1,0.017,0.047,0.029,-0.004,0.037,0.025,-1.565,0.079,-0.368,52.87,106.6,40.504143,-3.367037,606.6,4,5,237.0,1.406
53.39,1,-0.015,0.017,0.038,-0.004,0.032,0.03,-1.569,0.077,-0.368,52.87,106.6,40.504143,-3.367037,606.6,4,5,237.0,1.406
53.49,1,-0.021,0.025,0.026,-0.011,0.025,0.034,-1.571,0.073,-0.369,52.87,106.6,40.504143,-3.367037,606.6,4,5,237.0,1.406
53.59,1,0.032,0.049,0.032,0.004,0.037,0.027,-1.573,0.067,-0.37,52.87,106.6,40.504143,-3.367037,606.6,4,5,237.0,1.406
53.69,1,-0.002,0.031,0.027,0.017,0.036,0.029,-1.575,0.064,-0.372,52.87,106.6,40.504143,-3.367037,606.6,4,5,237.0,1.406
53.8,1,-0.013,0.035,0.037,-0.008,0.033,0.034,-1.576,0.058,-0.374,52.87,106.6,40.504143,-3.367037,606.6,4,5,237.0,1.406
53.89,1,-0.004,0.055,0.008,-0.013,0.039,0.02,-1.575,0.05,-0.377,52.87,106.6,40.504143,-3.367037,606.6,4,5,237.0,1.406
53.99,1,-0.015,0.066,0.024,-0.003,0.056,0.023,-1.576,0.042,-0.38,52.87,106.6,40.504143,-3.367037,606.6,4,5,237.0,1.406
54.09,1,-0.053,0.048,0.037,-0.028,0.06,0.026,-1.578,0.034,-0.383,52.87,106.6,40.504143,-3.367037,606.6,4,5,237.0,1.406
54.19,1,-0.001,0.066,0.03,-0.031,0.06,0.034,-1.581,0.029,-0.385,53.87,108.2,40.503979,-3.367324,606.3,4,5,235.5,2.109
54.29,1,0.049,0.036,0.024,0.01,0.051,0.02,-1.583,0.026,-0.388,53.87,108.2,40.503979,-3.367324,606.3,4,5,235.5,2.109
54.4,1,0.065,0.03,0.03,0.049,0.038,0.031,-1.585,0.022,-0.391,53.87,108.2,40.503979,-3.367324,606.3,4,5,235.5,2.109
54.49,1,-0.039,0.033,0.002,0.015,0.033,0.021,-1.584,0.018,-0.394,53.87,108.2,40.503979,-3.367324,606.3,4,5,235.5,2.109
54.59,1,0.058,0.042,0.029,0.02,0.039,0.015,-1.585,0.014,-0.397,53.87,108.2,40.503979,-3.367324,606.3,4,5,235.5,2.109
54.69,1,-0.031,0.037,0.002,0.014,0.042,0.011,-1.586,0.011,-0.399,53.87,108.2,40.503979,-3.367324,606.3,4,5,235.5,2.109
54.8,1,-0.031,0.023,0.025,-0.027,0.028,0.023,-1.586,0.012,-0.402,53.87,108.2,40.503979,-3.367324,606.3,4,5,235.5,2.109
54.9,1,0.057,0.048,-0.005,0.016,0.035,0.008,-1.586,0.014,-0.405,53.87,108.2,40.503979,-3.367324,606.3,4,5,235.5,2.109
54.99,1,0.046,0.057,-0.005,0.033,0.05,-0.002,-1.586,0.014,-0.408,53.87,108.2,40.503979,-3.367324,606.3,4,5,235.5,2.109
55.11,1,-0.026,0.023,-0.003,0.02,0.042,-0.002,-1.586,0.01,-0.411,53.87,108.2,40.503979,-3.367324,606.3,4,5,235.5,2.109
55.19,1,-0.044,0.003,-0.024,-0.028,0.013,-0.009,-1.584,0.008,-0.413,54.87,110.1,40.503819,-3.36762,607.0,4,5,235.2,1.758
55.29,1,0.0,0.023,0.019,-0.018,0.018,-0.005,-1.583,0.004,-0.416,54.87,110.1,40.503819,-3.36762,607.0,4,5,235.2,1.758
55.4,1,0.062,0.058,-0.005,0.027,0.036,0.003,-1.583,-0.0,-0.419,54.87,110.1,40.503819,-3.36762,607.0,4,5,235.2,1.758
55.49,1,-0.054,0.024,-0.04,-0.001,0.035,-0.014,-1.582,-0.002,-0.422,54.87,110.1,40.503819,-3.36762,607.0,4,5,235.2,1.758
55.6,1,-0.035,-0.002,0.0,-0.024,0.021,-0.017,-1.582,-0.002,-0.425,54.87,110.1,40.503819,-3.36762,607.0,4,5,235.2,1.758
55.69,1,0.042,0.052,0.002,-0.004,0.024,-0.004,-1.583,-0.007,-0.428,54.87,110.1,40.503819,-3.36762,607.0,4,5,235.2,1.758
55.79,1,0.017,0.034,-0.028,0.021,0.037,-0.01,-1.582,-0.008,-0.432,54.87,110.1,40.503819,-3.36762,607.0,4,5,235.2,1.758
55.9,1,-0.104,-0.004,-0.031,-0.028,0.019,-0.027,-1.58,-0.009,-0.435,54.87,110.1,40.503819,-3.36762,607.0,4,5,235.2,1.758
56.0,1,-0.002,0.021,-0.017,-0.039,0.014,-0.026,-1.578,-0.01,-0.437,54.87,110.1,40.503819,-3.36762,607.0,4,5,235.2,1.758
56.1,1,-0.045,-0.014,-0.012,-0.022,0.009,-0.01,-1.577,-0.011,-0.439,54.87,110.1,40.503819,-3.36762,607.0,4,5,235.2,1.758
56.2,1,0.01,-0.01,-0.025,-0.032,-0.008,-0.024,-1.578,-0.01,-0.442,55.87,112.0,40.503654,-3.36792,607.9,4,5,235.9,0.703
56.3,1,0.089,0.024,-0.006,0.026,0.003,-0.015,-1.579,-0.008,-0.444,55.87,112.0,40.503654,-3.36792,607.9,4,5,235.9,0.703
56.4,1,-0.134,-0.025,-0.012,-0.031,-0.003,-0.012,-1.579,-0.007,-0.447,55.87,112.0,40.503654,-3.36792,607.9,4,5,235.9,0.703
56.5,1,0.0,0.02,-0.017,-0.033,0.0,-0.013,-1.58,-0.013,-0.449,55.87,112.0,40.503654,-3.36792,607.9,4,5,235.9,0.703
56.61,1,0.002,0.018,-0.017,-0.015,0.011,-0.014,-1.58,-0.014,-0.452,55.87,112.0,40.503654,-3.36792,607.9,4,5,235.9,0.703
56.7,1,0.103,0.025,0.014,0.032,0.023,-0.009,-1.577,-0.014,-0.454,55.87,112.0,40.503654,-3.36792,607.9,4,5,235.9,0.703
56.8,1,0.161,-0.036,-0.018,0.11,-0.001,-0.001,-1.574,-0.013,-0.457,55.87,112.0,40.503654,-3.36792,607.9,4,5,235.9,0.703
56.9,1,-0.023,-0.048,-0.022,0.075,-0.027,-0.015,-1.572,-0.015,-0.459,55.87,112.0,40.503654,-3.36792,607.9,4,5,235.9,0.703
57.0,1,-0.032,0.017,0.008,0.004,-0.018,-0.008,-1.573,-0.02,-0.462,55.87,112.0,40.503654,-3.36792,607.9,4,5,235.9,0.703
57.1,1,-0.105,-0.013,-0.002,-0.05,0.0,-0.002,-1.573,-0.026,-0.465,55.87,112.0,40.503654,-3.36792,607.9,4,5,235.9,0.703
57.2,1,-0.023,0.006,-0.027,-0.048,-0.007,-0.011,-1.572,-0.026,-0.467,56.88,112.0,40.503498,-3.36822,608.3,4,5,235.9,0.703
57.31,1,-0.108,-0.049,-0.01,-0.074,-0.017,-0.013,-1.574,-0.024,-0.468,56.88,112.0,40.503498,-3.36822,608.3,4,5,235.9,0.703
57.4,1,-0.003,-0.017,-0.004,-0.047,-0.024,-0.013,-1.576,-0.024,-0.471,56.88,112.0,40.503498,-3.36822,608.3,4,5,235.9,0.703
57.5,1,-0.022,-0.04,-0.01,-0.025,-0.032,-0.004,-1.579,-0.023,-0.472,56.88,112.0,40.503498,-3.36822,608.3,4,5,235.9,0.703
57.6,1,0.028,-0.029,-0.012,-0.003,-0.033,-0.011,-1.577,-0.018,-0.475,56.88,112.0,40.503498,-3.36822,608.3,4,5,235.9,0.703
57.7,1,-0.013,-0.015,-0.02,0.003,-0.026,-0.015,-1.576,-0.015,-0.477,56.88,112.0,40.503498,-3.36822,608.3,4,5,235.9,0.703
57.8,1,-0.064,-0.024,-0.025,-0.03,-0.022,-0.022,-1.575,-0.016,-0.479,56.88,112.0,40.503498,-3.36822,608.3,4,5,235.9,0.703
57.91,1,-0.057,-0.037,-0.005,-0.059,-0.03,-0.017,-1.574,-0.019,-0.48,56.88,112.0,40.503498,-3.36822,608.3,4,5,235.9,0.703
58.01,1,-0.015,-0.015,-0.022,-0.034,-0.022,-0.014,-1.574,-0.016,-0.482,56.88,112.0,40.503498,-3.36822,608.3,4,5,235.9,0.703
58.1,1,-0.045,-0.058,-0.005,-0.033,-0.035,-0.01,-1.575,-0.011,-0.484,56.88,112.0,40.503498,-3.36822,608.3,4,5,235.9,0.703
58.24,1,0.041,-0.035,0.006,-0.009,-0.042,-0.005,-1.576,-0.007,-0.485,57.9,114.5,40.503342,-3.368517,608.8,4,5,237.5,1.607
58.3,1,-0.042,-0.05,-0.001,-0.003,-0.042,0.001,-1.577,-0.006,-0.486,57.9,114.5,40.503342,-3.368517,608.8,4,5,237.5,1.607
58.4,1,-0.035,-0.03,-0.022,-0.036,-0.042,-0.012,-1.578,-0.006,-0.487,57.9,114.5,40.503342,-3.368517,608.8,4,5,237.5,1.607
58.52,1,-0.006,-0.028,-0.008,-0.021,-0.033,-0.012,-1.579,-0.007,-0.489,57.9,114.5,40.503342,-3.368517,608.8,4,5,237.5,1.607
58.61,1,-0.062,-0.05,-0.021,-0.038,-0.035,-0.012,-1.58,-0.007,-0.49,57.9,114.5,40.503342,-3.368517,608.8,4,5,237.5,1.607
58.71,1,-0.01,0.004,-0.016,-0.031,-0.027,-0.019,-1.578,-0.006,-0.492,57.9,114.5,40.503342,-3.368517,608.8,4,5,237.5,1.607
58.81,1,-0.052,0.014,-0.021,-0.037,-0.008,-0.017,-1.577,-0.005,-0.494,57.9,114.5,40.503342,-3.368517,608.8,4,5,237.5,1.607
58.91,1,-0.031,0.005,-0.004,-0.033,0.015,-0.015,-1.577,-0.005,-0.496,57.9,114.5,40.503342,-3.368517,608.8,4,5,237.5,1.607
59.02,1,-0.036,-0.028,-0.018,-0.036,-0.008,-0.013,-1.574,-0.005,-0.498,57.9,114.5,40.503342,-3.368517,608.8,4,5,237.5,1.607
59.11,1,0.128,-0.025,-0.008,0.022,-0.024,-0.012,-1.572,-0.005,-0.5,57.9,114.5,40.503342,-3.368517,608.8,4,5,237.5,1.607
59.22,1,-0.001,-0.0,-0.034,0.05,-0.014,-0.017,-1.571,-0.009,-0.502,58.9,115.3,40.503181,-3.368821,609.2,4,5,237.5,1.607
59.32,1,0.016,0.017,-0.008,0.011,0.001,-0.019,-1.572,-0.015,-0.504,58.9,115.3,40.503181,-3.368821,609.2,4,5,237.5,1.607
59.41,1,-0.029,-0.031,-0.004,0.015,-0.006,-0.009,-1.571,-0.014,-0.506,58.9,115.3,40.503181,-3.368821,609.2,4,5,237.5,1.607
59.51,1,-0.033,-0.015,-0.025,-0.013,-0.013,-0.016,-1.572,-0.012,-0.507,58.9,115.3,40.503181,-3.368821,609.2,4,5,237.5,1.607
59.61,1,0.003,-0.044,-0.003,-0.026,-0.028,-0.013,-1.571,-0.008,-0.508,58.9,115.3,40.503181,-3.368821,609.2,4,5,237.5,1.607
59.71,1,-0.028,-0.03,-0.024,-0.008,-0.034,-0.016,-1.57,-0.006,-0.509,58.9,115.3,40.503181,-3.368821,609.2,4,5,237.5,1.607
59.81,1,0.009,0.017,0.004,-0.017,-0.012,-0.007,-1.569,-0.005,-0.511,58.9,115.3,40.503181,-3.368821,609.2,4,5,237.5,1.607
59.91,1,0.002,-0.002,-0.002,0.001,-0.003,-0.005,-1.568,-0.003,-0.513,58.9,115.3,40.503181,-3.368821,609.2,4,5,237.5,1.607
60.01,1,0.001,-0.014,-0.006,-0.004,-0.011,-0.002,-1.566,-0.001,-0.514,58.9,115.3,40.503181,-3.368821,609.2,4,5,237.5,1.607
60.11,1,-0.016,-0.018,-0.011,0.0,-0.015,-0.01,-1.566,-0.001,-0.516,58.9,115.3,40.503181,-3.368821,609.2,4,5,237.5,1.607
60.21,1,-0.009,-0.007,-0.001,-0.003,-0.01,-0.004,-1.566,-0.005,-0.518,59.88,115.8,40.503017,-3.369144,610.4,4,5,237.5,0.0
60.32,1,0.041,-0.009,-0.025,0.008,-0.007,-0.015,-1.564,-0.006,-0.52,59.88,115.8,40.503017,-3.369144,610.4,4,5,237.5,0.0
60.41,1,0.008,-0.007,0.004,0.019,-0.006,-0.007,-1.563,-0.006,-0.522,59.88,115.8,40.503017,-3.369144,610.4,4,5,237.5,0.0
60.51,1,-0.001,-0.01,-0.023,0.005,-0.009,-0.013,-1.562,-0.007,-0.524,59.88,115.8,40.503017,-3.369144,610.4,4,5,237.5,0.0
60.61,1,-0.014,0.018,0.007,-0.004,0.0,-0.003,-1.564,-0.008,-0.526,59.88,115.8,40.503017,-3.369144,610.4,4,5,237.5,0.0
60.72,1,-0.039,-0.009,-0.001,-0.023,0.006,-0.004,-1.564,-0.01,-0.527,59.88,115.8,40.503017,-3.369144,610.4,4,5,237.5,0.0
60.81,1,0.03,0.013,-0.021,-0.009,-0.001,-0.009,-1.565,-0.01,-0.529,59.88,115.8,40.503017,-3.369144,610.4,4,5,237.5,0.0
60.92,1,-0.061,0.016,-0.002,-0.019,0.01,-0.008,-1.565,-0.006,-0.53,59.88,115.8,40.503017,-3.369144,610.4,4,5,237.5,0.0
61.01,1,-0.008,-0.018,-0.005,-0.024,0.004,-0.005,-1.565,-0.003,-0.532,59.88,115.8,40.503017,-3.369144,610.4,4,5,237.5,0.0
61.11,1,-0.007,-0.013,-0.012,-0.011,-0.013,-0.01,-1.565,-0.002,-0.533,59.88,115.8,40.503017,-3.369144,610.4,4,5,237.5,0.0
61.21,1,0.029,0.01,-0.007,0.011,0.001,-0.009,-1.563,0.001,-0.535,60.87,116.7,40.502861,-3.36947,610.1,4,5,236.7,0.765
61.31,1,-0.051,0.001,-0.0,-0.009,-0.0,-0.005,-1.563,0.001,-0.537,60.87,116.7,40.502861,-3.36947,610.1,4,5,236.7,0.765
61.42,1,0.024,0.037,-0.003,-0.006,0.011,-0.001,-1.565,-0.0,-0.539,60.87,116.7,40.502861,-3.36947,610.1,4,5,236.7,0.765
61.52,1,-0.023,0.01,0.004,-0.011,0.026,-0.003,-1.566,-0.003,-0.541,60.87,116.7,40.502861,-3.36947,610.1,4,5,236.7,0.765
61.62,1,-0.015,0.008,-0.013,-0.015,0.011,-0.003,-1.565,-0.001,-0.543,60.87,116.7,40.502861,-3.36947,610.1,4,5,236.7,0.765
61.72,1,-0.013,-0.003,0.007,-0.016,0.002,-0.001,-1.566,-0.002,-0.544,60.87,116.7,40.502861,-3.36947,610.1,4,5,236.7,0.765
61.82,1,-0.016,0.023,0.007,-0.017,0.01,0.004,-1.567,-0.005,-0.547,60.87,116.7,40.502861,-3.36947,610.1,4,5,236.7,0.765
61.92,1,0.019,0.029,0.004,-0.004,0.019,0.002,-1.566,-0.009,-0.55,60.87,116.7,40.502861,-3.36947,610.1,4,5,236.7,0.765
62.02,1,0.007,0.015,-0.004,0.009,0.027,0.002,-1.566,-0.011,-0.553,60.87,116.7,40.502861,-3.36947,610.1,4,5,236.7,0.765
62.13,1,-0.053,0.038,0.006,-0.016,0.024,0.004,-1.567,-0.012,-0.556,60.87,116.7,40.502861,-3.36947,610.1,4,5,236.7,0.765
62.23,1,-0.034,0.047,-0.002,-0.038,0.036,-0.0,-1.567,-0.016,-0.559,61.88,116.9,40.502708,-3.369791,606.3,4,5,237.0,0.496
62.32,1,0.007,0.045,-0.003,-0.013,0.046,-0.0,-1.567,-0.023,-0.563,61.88,116.9,40.502708,-3.369791,606.3,4,5,237.0,0.496
62.42,1,0.038,0.021,-0.001,0.008,0.035,-0.003,-1.566,-0.025,-0.566,61.88,116.9,40.502708,-3.369791,606.3,4,5,237.0,0.496
62.52,1,-0.005,0.007,0.001,0.003,0.018,-0.0,-1.565,-0.027,-0.569,61.88,116.9,40.502708,-3.369791,606.3,4,5,237.0,0.496
62.62,1,0.026,0.021,0.007,0.025,0.014,0.002,-1.566,-0.027,-0.571,61.88,116.9,40.502708,-3.369791,606.3,4,5,237.0,0.496
62.72,1,0.022,0.011,-0.006,0.02,0.016,0.002,-1.566,-0.027,-0.574,61.88,116.9,40.502708,-3.369791,606.3,4,5,237.0,0.496
62.82,1,0.007,0.002,0.0,0.024,0.012,-0.001,-1.565,-0.028,-0.576,61.88,116.9,40.502708,-3.369791,606.3,4,5,237.0,0.496
62.92,1,-0.052,-0.029,-0.002,-0.018,-0.006,-0.003,-1.563,-0.029,-0.579,61.88,116.9,40.502708,-3.369791,606.3,4,5,237.0,0.496
63.02,1,0.016,0.027,0.013,-0.008,-0.003,0.009,-1.562,-0.031,-0.581,61.88,116.9,40.502708,-3.369791,606.3,4,5,237.0,0.496
63.13,1,-0.056,0.031,-0.013,-0.026,0.022,-0.003,-1.562,-0.033,-0.584,61.88,116.9,40.502708,-3.369791,606.3,4,5,237.0,0.496
63.22,1,-0.084,0.019,-0.008,-0.054,0.023,-0.007,-1.562,-0.033,-0.586,62.87,117.5,40.50256,-3.370119,605.5,4,5,237.0,0.27
63.33,1,-0.062,0.0,-0.006,-0.067,0.013,-0.008,-1.561,-0.032,-0.588,62.87,117.5,40.50256,-3.370119,605.5,4,5,237.0,0.27
63.43,1,-0.004,-0.033,-0.018,-0.043,-0.01,-0.011,-1.561,-0.027,-0.589,62.87,117.5,40.50256,-3.370119,605.5,4,5,237.0,0.27
63.52,1,0.045,-0.044,0.013,-0.0,-0.033,-0.002,-1.563,-0.02,-0.591,62.87,117.5,40.50256,-3.370119,605.5,4,5,237.0,0.27
63.62,1,0.022,-0.006,-0.001,0.028,-0.018,-0.001,-1.562,-0.017,-0.592,62.87,117.5,40.50256,-3.370119,605.5,4,5,237.0,0.27
63.72,1,0.028,-0.055,-0.015,0.026,-0.032,-0.002,-1.561,-0.011,-0.592,62.87,117.5,40.50256,-3.370119,605.5,4,5,237.0,0.27
63.82,1,-0.019,-0.063,-0.005,0.008,-0.054,-0.011,-1.56,-0.008,-0.592,62.87,117.5,40.50256,-3.370119,605.5,4,5,237.0,0.27
63.92,1,-0.044,-0.033,-0.005,-0.027,-0.044,-0.004,-1.559,-0.008,-0.593,62.87,117.5,40.50256,-3.370119,605.5,4,5,237.0,0.27
64.02,1,0.03,-0.035,0.005,-0.002,-0.037,-0.002,-1.558,-0.006,-0.593,62.87,117.5,40.50256,-3.370119,605.5,4,5,237.0,0.27
64.13,1,-0.009,-0.018,0.001,0.001,-0.033,0.003,-1.558,-0.004,-0.593,62.87,117.5,40.50256,-3.370119,605.5,4,5,237.0,0.27
64.23,1,-0.01,-0.016,-0.009,0.003,-0.022,-0.001,-1.558,-0.002,-0.594,63.88,118.0,40.502411,-3.37046,606.3,4,5,238.7,1.701
64.33,1,-0.003,-0.014,-0.002,-0.015,-0.017,-0.006,-1.558,-0.001,-0.595,63.88,118.0,40.502411,-3.37046,606.3,4,5,238.7,1.701
64.43,1,0.002,0.001,-0.009,-0.004,-0.007,-0.007,-1.558,0.0,-0.596,63.88,118.0,40.502411,-3.37046,606.3,4,5,238.7,1.701
64.53,1,-0.02,0.015,-0.005,-0.005,0.006,-0.007,-1.557,0.002,-0.597,63.88,118.0,40.502411,-3.37046,606.3,4,5,238.7,1.701
64.64,1,0.002,-0.021,0.01,-0.006,-0.006,0.003,-1.558,0.004,-0.598,63.88,118.0,40.502411,-3.37046,606.3,4,5,238.7,1.701
64.73,1,-0.032,0.016,-0.021,-0.015,0.002,-0.008,-1.557,0.005,-0.599,63.88,118.0,40.502411,-3.37046,606.3,4,5,238.7,1.701
64.83,1,0.042,-0.019,-0.007,-0.0,-0.008,-0.009,-1.558,0.004,-0.599,63.88,118.0,40.502411,-3.37046,606.3,4,5,238.7,1.701
64.93,1,-0.034,-0.03,-0.012,-0.002,-0.012,-0.01,-1.557,0.006,-0.599,63.88,118.0,40.502411,-3.37046,606.3,4,5,238.7,1.701
65.03,1,-0.009,-0.013,-0.009,-0.014,-0.027,-0.011,-1.557,0.01,-0.599,63.88,118.0,40.502411,-3.37046,606.3,4,5,238.7,1.701
65.13,1,0.01,-0.027,0.002,-0.002,-0.019,-0.003,-1.558,0.016,-0.599,63.88,118.0,40.502411,-3.37046,606.3,4,5,238.7,1.701
65.23,1,-0.01,-0.045,-0.024,0.005,-0.037,-0.014,-1.557,0.022,-0.598,64.88,118.5,40.502266,-3.370798,606.0,3,5,239.1,2.053
65.33,1,-0.0,-0.06,-0.011,-0.009,-0.041,-0.013,-1.556,0.029,-0.597,64.88,118.5,40.502266,-3.370798,606.0,3,5,239.1,2.053
65.43,1,-0.019,-0.022,-0.015,-0.009,-0.041,-0.013,-1.555,0.032,-0.596,64.88,118.5,40.502266,-3.370798,606.0,3,5,239.1,2.053
65.53,1,-0.058,-0.016,-0.012,-0.034,-0.029,-0.014,-1.555,0.038,-0.595,64.88,118.5,40.502266,-3.370798,606.0,3,5,239.1,2.053
65.63,1,-0.002,-0.016,-0.008,-0.017,-0.013,-0.01,-1.556,0.041,-0.594,64.88,118.5,40.502266,-3.370798,606.0,3,5,239.1,2.053
65.74,1,0.023,-0.031,-0.005,-0.005,-0.026,-0.01,-1.556,0.045,-0.593,64.88,118.5,40.502266,-3.370798,606.0,3,5,239.1,2.053
65.84,1,-0.021,-0.032,-0.004,0.001,-0.033,-0.006,-1.555,0.05,-0.592,64.88,118.5,40.502266,-3.370798,606.0,3,5,239.1,2.053
65.93,1,-0.044,-0.037,-0.009,-0.022,-0.031,-0.004,-1.556,0.051,-0.59,64.88,118.5,40.502266,-3.370798,606.0,3,5,239.1,2.053
66.03,1,-0.027,-0.03,-0.012,-0.036,-0.03,-0.01,-1.555,0.051,-0.589,64.88,118.5,40.502266,-3.370798,606.0,3,5,239.1,2.053
66.13,1,-0.004,-0.03,-0.016,-0.019,-0.03,-0.017,-1.553,0.053,-0.589,64.88,118.5,40.502266,-3.370798,606.0,3,5,239.1,2.053
66.23,1,0.003,-0.044,-0.021,0.001,-0.04,-0.01,-1.551,0.056,-0.587,65.9,119.0,40.502117,-3.371135,605.5,3,5,239.1,0.352
66.33,1,-0.011,-0.075,0.005,-0.008,-0.055,-0.01,-1.55,0.056,-0.586,65.9,119.0,40.502117,-3.371135,605.5,3,5,239.1,0.352
66.43,1,-0.013,-0.027,-0.048,0.007,-0.057,-0.023,-1.548,0.046,-0.585,65.9,119.0,40.502117,-3.371135,605.5,3,5,239.1,0.352
66.53,1,-0.033,0.004,-0.011,-0.027,-0.013,-0.022,-1.548,0.044,-0.585,65.9,119.0,40.502117,-3.371135,605.5,3,5,239.1,0.352
66.63,1,-0.027,-0.036,-0.008,-0.029,-0.02,-0.015,-1.546,0.047,-0.584,65.9,119.0,40.502117,-3.371135,605.5,3,5,239.1,0.352
66.74,1,-0.015,-0.034,-0.016,-0.033,-0.033,-0.016,-1.544,0.047,-0.583,65.9,119.0,40.502117,-3.371135,605.5,3,5,239.1,0.352
66.84,1,0.013,0.01,-0.037,0.003,-0.014,-0.022,-1.54,0.048,-0.584,65.9,119.0,40.502117,-3.371135,605.5,3,5,239.1,0.352
66.95,1,-0.021,0.022,-0.025,-0.017,0.006,-0.027,-1.536,0.046,-0.584,65.9,119.0,40.502117,-3.371135,605.5,3,5,239.1,0.352
67.05,1,0.003,0.014,-0.004,-0.005,0.015,-0.019,-1.534,0.047,-0.584,65.9,119.0,40.502117,-3.371135,605.5,3,5,239.1,0.352
67.14,1,-0.031,-0.012,-0.017,-0.021,0.001,-0.013,-1.532,0.045,-0.584,65.9,119.0,40.502117,-3.371135,605.5,3,5,239.1,0.352
67.24,1,0.005,0.016,-0.027,-0.005,0.004,-0.019,-1.528,0.044,-0.585,66.89,119.2,40.501953,-3.371472,604.9,3,5,238.0,1.055
67.34,1,-0.017,0.021,-0.01,-0.009,0.016,-0.02,-1.526,0.041,-0.585,66.89,119.2,40.501953,-3.371472,604.9,3,5,238.0,1.055
67.44,1,-0.021,0.005,-0.02,-0.011,0.014,-0.017,-1.525,0.04,-0.585,66.89,119.2,40.501953,-3.371472,604.9,3,5,238.0,1.055
67.55,1,0.006,0.015,-0.016,-0.02,0.011,-0.016,-1.524,0.039,-0.585,66.89,119.2,40.501953,-3.371472,604.9,3,5,238.0,1.055
67.64,1,-0.017,0.011,-0.017,0.001,0.013,-0.016,-1.524,0.037,-0.586,66.89,119.2,40.501953,-3.371472,604.9,3,5,238.0,1.055
67.74,1,-0.045,0.033,-0.04,-0.034,0.022,-0.027,-1.522,0.035,-0.586,66.89,119.2,40.501953,-3.371472,604.9,3,5,238.0,1.055
67.84,1,-0.022,0.034,-0.001,-0.021,0.026,-0.017,-1.522,0.031,-0.586,66.89,119.2,40.501953,-3.371472,604.9,3,5,238.0,1.055
67.95,1,-0.018,-0.019,-0.002,-0.026,0.01,-0.009,-1.521,0.029,-0.586,66.89,119.2,40.501953,-3.371472,604.9,3,5,238.0,1.055
68.04,1,0.012,0.006,-0.005,-0.007,0.002,-0.008,-1.522,0.031,-0.586,66.89,119.2,40.501953,-3.371472,604.9,3,5,238.0,1.055
68.14,1,-0.012,-0.01,-0.016,-0.007,-0.001,-0.004,-1.522,0.03,-0.586,66.89,119.2,40.501953,-3.371472,604.9,3,5,238.0,1.055
68.24,1,0.04,0.007,0.018,0.012,-0.002,-0.004,-1.52,0.031,-0.586,67.88,118.5,40.501789,-3.371799,604.4,3,5,237.7,1.406
68.34,1,0.01,0.001,0.009,0.025,0.004,0.005,-1.519,0.03,-0.585,67.88,118.5,40.501789,-3.371799,604.4,3,5,237.7,1.406
68.44,1,-0.002,-0.033,0.017,-0.008,-0.009,0.014,-1.518,0.032,-0.585,67.88,118.5,40.501789,-3.371799,604.4,3,5,237.7,1.406
68.55,1,0.02,0.017,0.02,0.016,-0.006,0.02,-1.521,0.037,-0.584,67.88,118.5,40.501789,-3.371799,604.4,3,5,237.7,1.406
68.65,1,0.008,-0.013,0.014,0.016,-0.003,0.013,-1.522,0.039,-0.584,67.88,118.5,40.501789,-3.371799,604.4,3,5,237.7,1.406
68.75,1,-0.049,0.017,0.011,-0.016,0.0,0.014,-1.524,0.039,-0.584,67.88,118.5,40.501789,-3.371799,604.4,3,5,237.7,1.406
68.84,1,-0.027,0.029,0.013,-0.027,0.02,0.014,-1.525,0.037,-0.585,67.88,118.5,40.501789,-3.371799,604.4,3,5,237.7,1.406
68.94,1,0.03,0.029,-0.004,-0.018,0.02,0.009,-1.526,0.037,-0.585,67.88,118.5,40.501789,-3.371799,604.4,3,5,237.7,1.406
69.04,1,-0.045,0.012,0.011,-0.005,0.024,0.004,-1.525,0.034,-0.586,67.88,118.5,40.501789,-3.371799,604.4,3,5,237.7,1.406
69.14,1,-0.034,0.037,-0.006,-0.029,0.027,-0.003,-1.526,0.033,-0.587,67.88,118.5,40.501789,-3.371799,604.4,3,5,237.7,1.406
69.24,1,-0.009,0.047,0.018,-0.014,0.034,0.005,-1.528,0.033,-0.587,68.89,117.5,40.501633,-3.372122,603.7,3,5,237.3,0.703
69.35,1,0.005,0.013,-0.004,-0.009,0.027,0.008,-1.528,0.032,-0.588,68.89,117.5,40.501633,-3.372122,603.7,3,5,237.3,0.703
69.44,1,-0.042,0.016,0.005,-0.012,0.023,0.005,-1.528,0.029,-0.588,68.89,117.5,40.501633,-3.372122,603.7,3,5,237.3,0.703
69.54,1,0.006,0.01,0.005,-0.021,0.016,0.002,-1.529,0.027,-0.589,68.89,117.5,40.501633,-3.372122,603.7,3,5,237.3,0.703
69.65,1,0.009,0.022,0.025,-0.001,0.015,0.016,-1.531,0.023,-0.589,68.89,117.5,40.501633,-3.372122,603.7,3,5,237.3,0.703
69.75,1,0.011,-0.001,0.003,0.003,0.012,0.01,-1.532,0.021,-0.59,68.89,117.5,40.501633,-3.372122,603.7,3,5,237.3,0.703
69.86,1,-0.014,0.031,0.018,0.004,0.016,0.012,-1.532,0.02,-0.591,68.89,117.5,40.501633,-3.372122,603.7,3,5,237.3,0.703
69.95,1,-0.028,-0.001,0.011,-0.022,0.015,0.014,-1.533,0.018,-0.591,68.89,117.5,40.501633,-3.372122,603.7,3,5,237.3,0.703
70.05,1,0.009,-0.0,-0.001,-0.001,0.0,0.009,-1.533,0.016,-0.592,68.89,117.5,40.501633,-3.372122,603.7,3,5,237.3,0.703
70.15,1,0.011,-0.009,0.001,0.001,0.0,0.002,-1.534,0.016,-0.592,68.89,117.5,40.501633,-3.372122,603.7,3,5,237.3,0.703
70.25,1,-0.013,0.05,0.008,-0.01,0.015,0.004,-1.537,0.012,-0.592,69.88,117.1,40.501469,-3.37244,603.9,3,5,237.3,0.352
70.35,1,-0.025,0.002,0.01,-0.013,0.019,0.005,-1.538,0.012,-0.593,69.88,117.1,40.501469,-3.37244,603.9,3,5,237.3,0.352
70.45,1,0.034,0.009,0.003,0.005,0.011,0.009,-1.537,0.011,-0.594,69.88,117.1,40.501469,-3.37244,603.9,3,5,237.3,0.352
70.55,1,-0.036,-0.001,-0.012,0.01,0.007,-0.003,-1.537,0.01,-0.594,69.88,117.1,40.501469,-3.37244,603.9,3,5,237.3,0.352
70.65,1,-0.037,0.014,0.006,-0.035,0.005,-0.003,-1.538,0.01,-0.595,69.88,117.1,40.501469,-3.37244,603.9,3,5,237.3,0.352
70.75,1,0.011,0.018,0.001,-0.0,0.013,0.005,-1.538,0.011,-0.595,69.88,117.1,40.501469,-3.37244,603.9,3,5,237.3,0.352
70.85,1,-0.005,0.001,-0.001,-0.023,0.01,-0.003,-1.536,0.012,-0.595,69.88,117.1,40.501469,-3.37244,603.9,3,5,237.3,0.352
71.05,1,-0.063,0.001,-0.003,-0.042,0.002,0.002,-1.537,0.015,-0.596,69.88,117.1,40.501469,-3.37244,603.9,3,5,237.3,0.352
71.15,1,0.035,-0.011,0.008,-0.023,-0.004,0.003,-1.538,0.016,-0.596,69.88,117.1,40.501469,-3.37244,603.9,3,5,237.3,0.352
71.25,1,0.01,-0.016,0.013,0.023,-0.009,0.006,-1.539,0.018,-0.596,69.88,117.1,40.501469,-3.37244,603.9,3,5,237.3,0.352
71.35,1,-0.061,-0.023,-0.009,-0.021,-0.019,0.004,-1.539,0.019,-0.597,70.9,116.8,40.501308,-3.372756,602.4,3,5,237.3,0.0
71.45,1,0.017,0.036,0.028,-0.012,0.004,0.01,-1.54,0.018,-0.597,70.9,116.8,40.501308,-3.372756,602.4,3,5,237.3,0.0
71.55,1,-0.014,-0.023,0.018,-0.018,-0.0,0.015,-1.54,0.017,-0.597,70.9,116.8,40.501308,-3.372756,602.4,3,5,237.3,0.0
71.65,1,0.06,-0.042,0.01,0.02,-0.025,0.014,-1.538,0.02,-0.597,70.9,116.8,40.501308,-3.372756,602.4,3,5,237.3,0.0
71.75,1,0.023,0.019,-0.011,0.027,-0.004,0.007,-1.539,0.021,-0.597,70.9,116.8,40.501308,-3.372756,602.4,3,5,237.3,0.0
71.85,1,-0.033,-0.039,0.013,0.006,-0.015,0.002,-1.539,0.026,-0.596,70.9,116.8,40.501308,-3.372756,602.4,3,5,237.3,0.0
71.95,1,-0.097,-0.047,-0.008,-0.044,-0.04,0.002,-1.54,0.029,-0.595,70.9,116.8,40.501308,-3.372756,602.4,3,5,237.3,0.0
72.05,1,-0.004,-0.003,-0.015,-0.033,-0.016,-0.007,-1.539,0.021,-0.594,70.9,116.8,40.501308,-3.372756,602.4,3,5,237.3,0.0
72.16,1,-0.007,-0.02,-0.003,-0.02,-0.018,-0.009,-1.538,0.021,-0.593,70.9,116.8,40.501308,-3.372756,602.4,3,5,237.3,0.0
72.26,1,0.045,-0.003,-0.029,0.005,-0.013,-0.012,-1.535,0.025,-0.594,70.9,116.8,40.501308,-3.372756,602.4,3,5,237.3,0.0
72.36,1,-0.058,0.052,-0.005,-0.001,0.015,-0.013,-1.533,0.025,-0.595,71.88,116.4,40.501148,-3.373082,602.4,3,5,237.3,0.0
72.46,1,-0.029,0.06,0.018,-0.039,0.039,-0.003,-1.534,0.021,-0.597,71.88,116.4,40.501148,-3.373082,602.4,3,5,237.3,0.0
72.56,1,0.013,0.048,-0.003,-0.008,0.048,0.006,-1.535,0.018,-0.598,71.88,116.4,40.501148,-3.373082,602.4,3,5,237.3,0.0
72.66,1,-0.032,0.038,0.009,-0.014,0.046,0.003,-1.535,0.014,-0.6,71.88,116.4,40.501148,-3.373082,602.4,3,5,237.3,0.0
72.76,1,-0.01,0.039,0.006,-0.026,0.04,0.005,-1.537,0.01,-0.601,71.88,116.4,40.501148,-3.373082,602.4,3,5,237.3,0.0
72.86,1,-0.004,0.009,0.009,-0.006,0.026,0.008,-1.538,0.005,-0.602,71.88,116.4,40.501148,-3.373082,602.4,3,5,237.3,0.0
72.96,1,0.001,0.017,-0.001,-0.006,0.02,0.005,-1.538,0.003,-0.603,71.88,116.4,40.501148,-3.373082,602.4,3,5,237.3,0.0
73.06,1,-0.002,0.016,0.004,0.002,0.017,-0.001,-1.538,0.003,-0.603,71.88,116.4,40.501148,-3.373082,602.4,3,5,237.3,0.0
73.16,1,-0.043,0.001,0.009,-0.025,0.013,0.007,-1.539,0.005,-0.603,71.88,116.4,40.501148,-3.373082,602.4,3,5,237.3,0.0
73.27,1,-0.017,-0.01,0.008,-0.019,0.001,0.009,-1.54,0.008,-0.603,71.88,116.4,40.501148,-3.373082,602.4,3,5,237.3,0.0
73.36,1,-0.067,-0.004,-0.026,-0.036,-0.009,-0.006,-1.539,0.01,-0.602,72.88,116.3,40.500992,-3.373397,601.6,3,5,237.3,0.0
73.46,1,-0.02,0.012,0.018,-0.055,-0.0,0.001,-1.539,0.013,-0.602,72.88,116.3,40.500992,-3.373397,601.6,3,5,237.3,0.0
73.56,1,0.039,-0.012,0.001,-0.006,0.001,0.002,-1.539,0.016,-0.602,72.88,116.3,40.500992,-3.373397,601.6,3,5,237.3,0.0
73.66,1,-0.034,-0.012,0.011,0.003,0.0,0.007,-1.54,0.017,-0.602,72.88,116.3,40.500992,-3.373397,601.6,3,5,237.3,0.0
73.76,1,0.04,-0.041,0.013,0.008,-0.024,0.007,-1.54,0.02,-0.602,72.88,116.3,40.500992,-3.373397,601.6,3,5,237.3,0.0
73.86,1,0.003,-0.01,0.011,0.015,-0.025,0.015,-1.541,0.02,-0.602,72.88,116.3,40.500992,-3.373397,601.6,3,5,237.3,0.0
73.97,1,-0.011,-0.006,-0.004,-0.001,-0.01,0.005,-1.542,0.019,-0.602,72.88,116.3,40.500992,-3.373397,601.6,3,5,237.3,0.0
74.07,1,-0.033,-0.005,0.019,-0.011,-0.009,0.009,-1.542,0.018,-0.601,72.88,116.3,40.500992,-3.373397,601.6,3,5,237.3,0.0
74.16,1,-0.005,-0.016,0.016,-0.03,-0.008,0.009,-1.544,0.022,-0.6,72.88,116.3,40.500992,-3.373397,601.6,3,5,237.3,0.0
74.26,1,-0.027,-0.048,0.015,-0.014,-0.036,0.022,-1.542,0.025,-0.6,72.88,116.3,40.500992,-3.373397,601.6,3,5,237.3,0.0
74.36,1,-0.02,-0.01,-0.014,-0.014,-0.02,-0.003,-1.541,0.027,-0.599,73.96,116.2,40.500832,-3.373708,601.4,3,5,237.3,0.0
74.46,1,-0.016,0.021,0.015,-0.015,0.003,0.007,-1.542,0.029,-0.599,73.96,116.2,40.500832,-3.373708,601.4,3,5,237.3,0.0
74.57,1,-0.009,0.023,0.008,-0.015,0.011,0.009,-1.541,0.03,-0.599,73.96,116.2,40.500832,-3.373708,601.4,3,5,237.3,0.0
74.67,1,0.039,0.007,0.026,0.012,0.015,0.014,-1.541,0.032,-0.599,73.96,116.2,40.500832,-3.373708,601.4,3,5,237.3,0.0
74.76,1,0.014,0.003,-0.011,0.016,0.007,0.004,-1.542,0.03,-0.598,73.96,116.2,40.500832,-3.373708,601.4,3,5,237.3,0.0
74.86,1,-0.022,0.002,0.019,-0.008,0.005,0.009,-1.542,0.026,-0.598,73.96,116.2,40.500832,-3.373708,601.4,3,5,237.3,0.0
74.97,1,0.022,0.018,0.024,0.018,0.004,0.018,-1.542,0.022,-0.598,73.96,116.2,40.500832,-3.373708,601.4,3,5,237.3,0.0
75.07,1,-0.049,0.013,-0.008,-0.014,0.013,0.008,-1.542,0.019,-0.598,73.96,116.2,40.500832,-3.373708,601.4,3,5,237.3,0.0
75.17,1,-0.026,0.002,0.026,-0.03,0.009,0.012,-1.542,0.017,-0.598,73.96,116.2,40.500832,-3.373708,601.4,3,5,237.3,0.0
75.28,1,-0.027,-0.007,0.005,-0.031,0.004,0.014,-1.544,0.017,-0.598,73.96,116.2,40.500832,-3.373708,601.4,3,5,237.3,0.0
75.37,1,-0.02,0.007,0.004,-0.019,-0.002,0.006,-1.544,0.018,-0.598,74.89,116.6,40.50066,-3.374033,602.1,3,5,237.3,0.0
75.47,1,-0.031,0.026,0.007,-0.019,0.011,0.008,-1.546,0.016,-0.599,74.89,116.6,40.50066,-3.374033,602.1,3,5,237.3,0.0
75.57,1,0.026,0.026,0.041,-0.006,0.023,0.015,-1.549,0.015,-0.599,74.89,116.6,40.50066,-3.374033,602.1,3,5,237.3,0.0
75.68,1,0.017,0.033,-0.018,0.012,0.028,0.013,-1.548,0.014,-0.599,74.89,116.6,40.50066,-3.374033,602.1,3,5,237.3,0.0
75.78,1,-0.008,-0.01,-0.004,0.005,0.015,-0.0,-1.548,0.014,-0.599,74.89,116.6,40.50066,-3.374033,602.1,3,5,237.3,0.0
75.87,1,-0.003,-0.001,0.026,0.005,0.004,0.01,-1.55,0.014,-0.599,74.89,116.6,40.50066,-3.374033,602.1,3,5,237.3,0.0
75.97,1,-0.018,-0.003,-0.011,-0.016,-0.002,0.005,-1.548,0.014,-0.599,74.89,116.6,40.50066,-3.374033,602.1,3,5,237.3,0.0
76.07,1,0.032,-0.018,0.022,0.008,-0.008,0.008,-1.548,0.016,-0.599,74.89,116.6,40.50066,-3.374033,602.1,3,5,237.3,0.0
76.17,1,-0.004,0.028,0.005,-0.0,0.007,0.01,-1.548,0.014,-0.598,74.89,116.6,40.50066,-3.374033,602.1,3,5,237.3,0.0
76.27,1,-0.005,-0.018,0.02,-0.004,-0.004,0.011,-1.548,0.014,-0.598,74.89,116.6,40.50066,-3.374033,602.1,3,5,237.3,0.0
76.38,1,-0.019,-0.011,0.007,-0.009,-0.007,0.015,-1.548,0.014,-0.598,75.88,117.2,40.500507,-3.374349,600.7,3,5,237.3,0.0
76.47,1,0.019,-0.028,-0.003,0.006,-0.019,0.007,-1.548,0.017,-0.598,75.88,117.2,40.500507,-3.374349,600.7,3,5,237.3,0.0
76.57,1,-0.028,-0.005,-0.036,-0.011,-0.015,-0.015,-1.545,0.019,-0.597,75.88,117.2,40.500507,-3.374349,600.7,3,5,237.3,0.0
76.67,1,0.03,-0.002,-0.011,0.001,-0.008,-0.018,-1.543,0.018,-0.597,75.88,117.2,40.500507,-3.374349,600.7,3,5,237.3,0.0
76.77,1,-0.003,0.021,-0.011,0.013,0.009,-0.013,-1.541,0.018,-0.597,75.88,117.2,40.500507,-3.374349,600.7,3,5,237.3,0.0
76.88,1,0.024,-0.005,-0.018,0.01,0.007,-0.018,-1.539,0.02,-0.596,75.88,117.2,40.500507,-3.374349,600.7,3,5,237.3,0.0
76.97,1,-0.03,-0.031,-0.019,0.0,-0.012,-0.015,-1.537,0.024,-0.596,75.88,117.2,40.500507,-3.374349,600.7,3,5,237.3,0.0
77.07,1,-0.086,-0.025,0.001,-0.05,-0.024,-0.012,-1.535,0.027,-0.596,75.88,117.2,40.500507,-3.374349,600.7,3,5,237.3,0.0
77.17,1,0.027,0.039,-0.037,-0.025,0.005,-0.017,-1.533,0.024,-0.596,75.88,117.2,40.500507,-3.374349,600.7,3,5,237.3,0.0
77.27,1,-0.055,-0.025,-0.01,-0.032,0.004,-0.02,-1.532,0.025,-0.596,75.88,117.2,40.500507,-3.374349,600.7,3,5,237.3,0.0
77.37,1,-0.004,-0.01,-0.023,-0.016,-0.015,-0.021,-1.531,0.027,-0.596,76.9,116.7,40.500347,-3.374666,600.8,3,5,237.0,0.352
77.47,1,0.041,0.002,-0.022,0.007,-0.01,-0.018,-1.528,0.027,-0.595,76.9,116.7,40.500347,-3.374666,600.8,3,5,237.0,0.352
77.58,1,-0.014,-0.016,-0.029,0.011,-0.006,-0.027,-1.528,0.026,-0.595,76.9,116.7,40.500347,-3.374666,600.8,3,5,237.0,0.352
77.68,1,0.023,-0.007,-0.015,0.01,-0.007,-0.019,-1.527,0.025,-0.595,76.9,116.7,40.500347,-3.374666,600.8,3,5,237.0,0.352
77.78,1,-0.062,-0.018,-0.038,-0.021,-0.012,-0.03,-1.524,0.026,-0.594,76.9,116.7,40.500347,-3.374666,600.8,3,5,237.0,0.352
77.88,1,0.093,-0.003,-0.025,0.017,-0.012,-0.025,-1.522,0.026,-0.594,76.9,116.7,40.500347,-3.374666,600.8,3,5,237.0,0.352
77.98,1,-0.019,-0.004,-0.037,0.016,-0.004,-0.032,-1.52,0.027,-0.594,76.9,116.7,40.500347,-3.374666,600.8,3,5,237.0,0.352
78.08,1,0.039,0.008,-0.042,0.012,-0.009,-0.037,-1.518,0.028,-0.593,76.9,116.7,40.500347,-3.374666,600.8,3,5,237.0,0.352
78.18,1,-0.016,0.015,-0.022,0.018,0.011,-0.032,-1.515,0.026,-0.593,76.9,116.7,40.500347,-3.374666,600.8,3,5,237.0,0.352
78.28,1,-0.047,-0.006,-0.013,-0.021,0.008,-0.022,-1.514,0.025,-0.593,76.9,116.7,40.500347,-3.374666,600.8,3,5,237.0,0.352
78.38,1,0.03,0.004,-0.001,-0.005,-0.0,-0.01,-1.513,0.025,-0.593,77.88,116.2,40.500183,-3.374978,601.5,4,5,236.6,0.703
78.48,1,-0.005,0.046,0.005,0.007,0.021,-0.004,-1.513,0.02,-0.593,77.88,116.2,40.500183,-3.374978,601.5,4,5,236.6,0.703
78.58,1,0.014,0.045,0.017,0.016,0.036,0.01,-1.515,0.015,-0.594,77.88,116.2,40.500183,-3.374978,601.5,4,5,236.6,0.703
78.68,1,-0.101,0.016,-0.014,-0.03,0.032,-0.0,-1.517,0.01,-0.595,77.88,116.2,40.500183,-3.374978,601.5,4,5,236.6,0.703
78.79,1,0.01,0.036,0.008,-0.041,0.028,-0.003,-1.518,0.007,-0.596,77.88,116.2,40.500183,-3.374978,601.5,4,5,236.6,0.703
78.89,1,-0.049,0.017,0.008,-0.028,0.027,0.006,-1.517,0.007,-0.596,77.88,116.2,40.500183,-3.374978,601.5,4,5,236.6,0.703
78.98,1,-0.004,0.006,0.007,-0.031,0.015,0.007,-1.519,0.006,-0.597,77.88,116.2,40.500183,-3.374978,601.5,4,5,236.6,0.703
79.08,1,0.043,0.035,0.004,0.012,0.022,0.009,-1.521,0.003,-0.598,77.88,116.2,40.500183,-3.374978,601.5,4,5,236.6,0.703
79.18,1,-0.028,-0.002,-0.014,0.001,0.013,-0.006,-1.522,-0.001,-0.599,77.88,116.2,40.500183,-3.374978,601.5,4,5,236.6,0.703
79.28,1,-0.082,0.011,-0.008,-0.044,0.012,-0.008,-1.521,-0.003,-0.6,77.88,116.2,40.500183,-3.374978,601.5,4,5,236.6,0.703
79.38,1,0.031,0.032,0.027,-0.02,0.017,0.003,-1.522,-0.005,-0.601,78.93,114.6,40.500023,-3.375287,602.2,4,5,236.6,0.352
79.48,1,-0.043,0.016,0.003,-0.018,0.022,0.011,-1.524,-0.007,-0.602,78.93,114.6,40.500023,-3.375287,602.2,4,5,236.6,0.352
79.58,1,0.012,0.033,0.006,-0.019,0.018,0.006,-1.524,-0.01,-0.603,78.93,114.6,40.500023,-3.375287,602.2,4,5,236.6,0.352
79.68,1,-0.014,0.031,-0.006,0.014,0.034,0.004,-1.525,-0.013,-0.605,78.93,114.6,40.500023,-3.375287,602.2,4,5,236.6,0.352
79.79,1,-0.068,0.012,-0.007,-0.043,0.024,-0.007,-1.525,-0.015,-0.607,78.93,114.6,40.500023,-3.375287,602.2,4,5,236.6,0.352
79.88,1,-0.037,0.049,-0.013,-0.043,0.028,-0.008,-1.525,-0.016,-0.609,78.93,114.6,40.500023,-3.375287,602.2,4,5,236.6,0.352
79.99,1,-0.022,0.037,0.029,-0.026,0.036,0.008,-1.526,-0.018,-0.611,78.93,114.6,40.500023,-3.375287,602.2,4,5,236.6,0.352
80.09,1,-0.028,0.02,0.014,-0.033,0.034,0.013,-1.527,-0.021,-0.613,78.93,114.6,40.500023,-3.375287,602.2,4,5,236.6,0.352
80.18,1,0.013,0.065,-0.021,-0.026,0.037,0.001,-1.525,-0.024,-0.615,78.93,114.6,40.500023,-3.375287,602.2,4,5,236.6,0.352
80.29,1,0.029,0.05,0.024,0.023,0.053,0.004,-1.526,-0.028,-0.618,78.93,114.6,40.500023,-3.375287,602.2,4,5,236.6,0.352
80.39,1,-0.076,0.05,-0.005,-0.024,0.048,0.003,-1.526,-0.028,-0.62,79.89,114.1,40.499866,-3.375598,598.2,4,5,237.3,0.703
80.49,1,0.037,0.073,0.017,-0.012,0.064,0.006,-1.526,-0.028,-0.621,79.89,114.1,40.499866,-3.375598,598.2,4,5,237.3,0.703
80.6,1,-0.033,-0.003,0.014,-0.0,0.039,0.018,-1.526,-0.028,-0.623,79.89,114.1,40.499866,-3.375598,598.2,4,5,237.3,0.703
80.69,1,-0.038,-0.035,0.013,-0.041,-0.002,0.011,-1.526,-0.027,-0.623,79.89,114.1,40.499866,-3.375598,598.2,4,5,237.3,0.703
80.79,1,0.107,-0.007,0.025,0.049,-0.005,0.021,-1.529,-0.027,-0.623,79.89,114.1,40.499866,-3.375598,598.2,4,5,237.3,0.703
80.89,1,-0.089,-0.048,-0.002,-0.016,-0.033,0.008,-1.527,-0.027,-0.623,79.89,114.1,40.499866,-3.375598,598.2,4,5,237.3,0.703
80.99,1,0.056,-0.038,0.0,0.001,-0.033,0.004,-1.527,-0.022,-0.623,79.89,114.1,40.499866,-3.375598,598.2,4,5,237.3,0.703
81.09,1,0.002,-0.064,0.009,0.021,-0.048,0.004,-1.527,-0.016,-0.622,79.89,114.1,40.499866,-3.375598,598.2,4,5,237.3,0.703
81.19,1,-0.018,-0.064,0.007,-0.015,-0.062,0.007,-1.527,-0.014,-0.62,79.89,114.1,40.499866,-3.375598,598.2,4,5,237.3,0.703
81.29,1,-0.002,-0.058,0.011,0.006,-0.056,0.008,-1.527,-0.012,-0.619,79.89,114.1,40.499866,-3.375598,598.2,4,5,237.3,0.703
81.39,1,0.019,-0.019,0.014,0.009,-0.04,0.013,-1.528,-0.006,-0.617,80.89,112.9,40.499718,-3.375908,597.7,4,5,238.4,1.758
81.49,1,-0.046,-0.08,0.005,-0.016,-0.056,0.01,-1.529,0.002,-0.616,80.89,112.9,40.499718,-3.375908,597.7,4,5,238.4,1.758
81.59,1,0.034,-0.042,0.01,-0.003,-0.053,0.008,-1.53,0.006,-0.614,80.89,112.9,40.499718,-3.375908,597.7,4,5,238.4,1.758
81.69,1,-0.004,-0.059,-0.016,0.008,-0.054,0.0,-1.533,0.009,-0.613,80.89,112.9,40.499718,-3.375908,597.7,4,5,238.4,1.758
81.8,1,-0.011,-0.045,0.01,-0.02,-0.053,-0.002,-1.532,0.01,-0.612,80.89,112.9,40.499718,-3.375908,597.7,4,5,238.4,1.758
81.89,1,0.065,-0.009,0.001,0.03,-0.03,0.0,-1.531,0.007,-0.61,80.89,112.9,40.499718,-3.375908,597.7,4,5,238.4,1.758
81.99,1,-0.028,-0.054,0.014,0.006,-0.042,0.006,-1.532,0.009,-0.608,80.89,112.9,40.499718,-3.375908,597.7,4,5,238.4,1.758
82.09,1,-0.062,-0.072,0.003,-0.027,-0.06,0.008,-1.531,0.013,-0.607,80.89,112.9,40.499718,-3.375908,597.7,4,5,238.4,1.758
82.19,1,0.059,0.004,0.012,-0.013,-0.031,0.007,-1.53,0.013,-0.606,80.89,112.9,40.499718,-3.375908,597.7,4,5,238.4,1.758
82.29,1,0.077,-0.015,0.018,0.064,-0.012,0.016,-1.53,0.017,-0.605,80.89,112.9,40.499718,-3.375908,597.7,4,5,238.4,1.758
82.39,1,0.005,-0.024,0.023,0.035,-0.023,0.015,-1.53,0.019,-0.605,81.88,113.3,40.499569,-3.376226,598.0,4,5,238.0,0.703
82.49,1,0.053,0.013,0.016,0.038,-0.006,0.019,-1.531,0.02,-0.604,81.88,113.3,40.499569,-3.376226,598.0,4,5,238.0,0.703
82.59,1,-0.067,-0.063,-0.003,0.0,-0.021,0.012,-1.531,0.025,-0.603,81.88,113.3,40.499569,-3.376226,598.0,4,5,238.0,0.703
82.69,1,-0.033,0.024,0.011,-0.033,-0.019,0.002,-1.53,0.027,-0.602,81.88,113.3,40.499569,-3.376226,598.0,4,5,238.0,0.703
82.8,1,-0.035,0.005,-0.008,-0.025,0.005,0.002,-1.531,0.03,-0.601,81.88,113.3,40.499569,-3.376226,598.0,4,5,238.0,0.703
82.9,1,-0.076,-0.011,0.018,-0.062,-0.002,0.009,-1.532,0.029,-0.601,81.88,113.3,40.499569,-3.376226,598.0,4,5,238.0,0.703
83.0,1,0.029,0.016,0.029,-0.019,0.009,0.019,-1.533,0.029,-0.6,81.88,113.3,40.499569,-3.376226,598.0,4,5,238.0,0.703
83.09,1,0.008,-0.026,0.028,0.006,-0.005,0.025,-1.533,0.032,-0.599,81.88,113.3,40.499569,-3.376226,598.0,4,5,238.0,0.703
83.2,1,0.012,-0.005,0.015,0.004,-0.013,0.021,-1.534,0.036,-0.599,81.88,113.3,40.499569,-3.376226,598.0,4,5,238.0,0.703
83.3,1,0.019,0.036,-0.003,0.014,0.007,0.011,-1.533,0.038,-0.599,81.88,113.3,40.499569,-3.376226,598.0,4,5,238.0,0.703
83.4,1,0.009,0.02,0.002,0.008,0.02,0.002,-1.533,0.041,-0.598,82.89,113.3,40.49942,-3.376548,598.3,4,5,237.3,1.055
83.5,1,-0.073,0.009,-0.008,-0.023,0.013,0.001,-1.532,0.042,-0.597,82.89,113.3,40.49942,-3.376548,598.3,4,5,237.3,1.055
83.6,1,-0.064,0.027,-0.016,-0.057,0.018,-0.011,-1.531,0.04,-0.597,82.89,113.3,40.49942,-3.376548,598.3,4,5,237.3,1.055
83.7,1,0.037,0.013,0.016,-0.016,0.021,-0.004,-1.533,0.039,-0.596,82.89,113.3,40.49942,-3.376548,598.3,4,5,237.3,1.055
83.8,1,-0.01,0.022,-0.009,-0.013,0.013,0.003,-1.533,0.039,-0.596,82.89,113.3,40.49942,-3.376548,598.3,4,5,237.3,1.055
83.9,1,0.036,0.022,-0.013,0.012,0.023,-0.009,-1.531,0.043,-0.595,82.89,113.3,40.49942,-3.376548,598.3,4,5,237.3,1.055
84.0,1,-0.026,0.005,0.011,0.021,0.018,0.003,-1.531,0.042,-0.594,82.89,113.3,40.49942,-3.376548,598.3,4,5,237.3,1.055
84.1,1,-0.068,-0.007,-0.003,-0.039,-0.002,0.0,-1.531,0.042,-0.593,82.89,113.3,40.49942,-3.376548,598.3,4,5,237.3,1.055
84.2,1,-0.054,0.013,0.001,-0.043,0.0,0.0,-1.532,0.044,-0.593,82.89,113.3,40.49942,-3.376548,598.3,4,5,237.3,1.055
84.3,1,0.043,0.027,0.003,-0.021,0.017,0.003,-1.533,0.042,-0.592,82.89,113.3,40.49942,-3.376548,598.3,4,5,237.3,1.055
84.4,1,-0.032,0.0,0.001,-0.005,0.015,-0.001,-1.533,0.042,-0.592,83.88,113.2,40.499264,-3.376857,597.8,3,5,237.0,1.055
84.5,1,-0.017,0.032,-0.004,-0.027,0.016,0.002,-1.534,0.039,-0.591,83.88,113.2,40.499264,-3.376857,597.8,3,5,237.0,1.055
84.6,1,0.03,0.01,-0.014,0.016,0.025,-0.007,-1.534,0.037,-0.59,83.88,113.2,40.499264,-3.376857,597.8,3,5,237.0,1.055
84.7,1,-0.087,0.004,-0.019,-0.023,0.011,-0.015,-1.533,0.038,-0.59,83.88,113.2,40.499264,-3.376857,597.8,3,5,237.0,1.055
84.8,1,-0.029,0.013,-0.018,-0.054,0.006,-0.019,-1.533,0.038,-0.589,83.88,113.2,40.499264,-3.376857,597.8,3,5,237.0,1.055
84.91,1,0.078,0.031,0.002,0.012,0.021,-0.008,-1.534,0.039,-0.589,83.88,113.2,40.499264,-3.376857,597.8,3,5,237.0,1.055
85.0,1,-0.055,-0.006,-0.034,0.008,0.011,-0.01,-1.533,0.04,-0.589,83.88,113.2,40.499264,-3.376857,597.8,3,5,237.0,1.055
85.1,1,-0.007,-0.008,-0.019,-0.004,0.011,-0.023,-1.532,0.039,-0.588,83.88,113.2,40.499264,-3.376857,597.8,3,5,237.0,1.055
85.2,1,-0.048,-0.043,0.002,-0.027,-0.017,-0.018,-1.532,0.038,-0.588,83.88,113.2,40.499264,-3.376857,597.8,3,5,237.0,1.055
85.31,1,-0.022,0.029,-0.029,-0.044,-0.016,-0.014,-1.529,0.033,-0.587,83.88,113.2,40.499264,-3.376857,597.8,3,5,237.0,1.055
85.4,1,0.008,0.023,-0.026,-0.007,0.018,-0.021,-1.528,0.032,-0.587,84.9,113.0,40.499107,-3.377169,597.4,3,5,236.6,0.703
85.5,1,-0.103,-0.045,-0.016,-0.046,-0.012,-0.022,-1.528,0.034,-0.587,84.9,113.0,40.499107,-3.377169,597.4,3,5,236.6,0.703
85.6,1,0.041,0.042,-0.016,-0.037,-0.003,-0.015,-1.528,0.034,-0.587,84.9,113.0,40.499107,-3.377169,597.4,3,5,236.6,0.703
85.71,1,0.023,0.029,-0.022,0.006,0.018,-0.023,-1.525,0.036,-0.587,84.9,113.0,40.499107,-3.377169,597.4,3,5,236.6,0.703
85.8,1,0.072,0.073,-0.022,0.045,0.047,-0.02,-1.523,0.037,-0.588,84.9,113.0,40.499107,-3.377169,597.4,3,5,236.6,0.703
85.91,1,-0.081,-0.0,-0.026,0.005,0.038,-0.024,-1.523,0.038,-0.588,84.9,113.0,40.499107,-3.377169,597.4,3,5,236.6,0.703
86.01,1,0.028,0.01,-0.012,-0.016,0.017,-0.021,-1.522,0.036,-0.589,84.9,113.0,40.499107,-3.377169,597.4,3,5,236.6,0.703
86.11,1,0.054,0.048,0.012,0.027,0.028,-0.002,-1.522,0.037,-0.589,84.9,113.0,40.499107,-3.377169,597.4,3,5,236.6,0.703
86.21,1,0.02,0.021,-0.02,0.034,0.036,-0.012,-1.522,0.035,-0.589,84.9,113.0,40.499107,-3.377169,597.4,3,5,236.6,0.703
86.31,1,-0.055,0.051,-0.017,-0.003,0.028,-0.012,-1.522,0.034,-0.589,84.9,113.0,40.499107,-3.377169,597.4,3,5,236.6,0.703
86.41,1,-0.082,0.019,0.014,-0.049,0.036,-0.002,-1.525,0.034,-0.589,85.87,111.8,40.498951,-3.377475,597.3,3,5,236.6,0.352
86.51,1,-0.031,0.041,-0.004,-0.054,0.036,-0.002,-1.525,0.032,-0.589,85.87,111.8,40.498951,-3.377475,597.3,3,5,236.6,0.352
86.61,1,-0.019,-0.001,-0.001,-0.026,0.023,0.001,-1.524,0.032,-0.59,85.87,111.8,40.498951,-3.377475,597.3,3,5,236.6,0.352
86.71,1,0.006,0.022,0.003,-0.023,0.009,0.001,-1.526,0.03,-0.59,85.87,111.8,40.498951,-3.377475,597.3,3,5,236.6,0.352
86.81,1,0.058,0.062,0.021,0.022,0.041,0.006,-1.528,0.033,-0.59,85.87,111.8,40.498951,-3.377475,597.3,3,5,236.6,0.352
86.91,1,0.002,-0.028,-0.021,0.026,0.01,0.001,-1.53,0.039,-0.59,85.87,111.8,40.498951,-3.377475,597.3,3,5,236.6,0.352
87.01,1,-0.061,-0.021,-0.039,-0.016,-0.006,-0.019,-1.529,0.039,-0.59,85.87,111.8,40.498951,-3.377475,597.3,3,5,236.6,0.352
87.11,1,-0.036,0.027,-0.007,-0.037,-0.001,-0.017,-1.53,0.034,-0.59,85.87,111.8,40.498951,-3.377475,597.3,3,5,236.6,0.352
87.21,1,-0.041,0.053,-0.004,-0.032,0.033,-0.012,-1.532,0.029,-0.59,85.87,111.8,40.498951,-3.377475,597.3,3,5,236.6,0.352
87.32,1,-0.058,-0.005,-0.008,-0.049,0.022,-0.006,-1.533,0.031,-0.59,85.87,111.8,40.498951,-3.377475,597.3,3,5,236.6,0.352
87.41,1,0.041,0.004,-0.028,-0.019,0.003,-0.017,-1.531,0.037,-0.59,86.87,110.6,40.498802,-3.377782,596.7,3,5,236.6,0.0
87.52,1,0.014,0.029,-0.01,0.008,0.02,-0.016,-1.53,0.037,-0.59,86.87,110.6,40.498802,-3.377782,596.7,3,5,236.6,0.0
87.61,1,0.02,0.002,-0.005,0.017,0.013,-0.014,-1.529,0.037,-0.59,86.87,110.6,40.498802,-3.377782,596.7,3,5,236.6,0.0
87.71,1,0.008,-0.01,-0.022,0.016,-0.0,-0.012,-1.527,0.037,-0.591,86.87,110.6,40.498802,-3.377782,596.7,3,5,236.6,0.0
87.81,1,-0.041,0.023,-0.011,-0.006,0.005,-0.014,-1.526,0.035,-0.591,86.87,110.6,40.498802,-3.377782,596.7,3,5,236.6,0.0
87.91,1,-0.054,0.022,-0.016,-0.041,0.019,-0.015,-1.527,0.033,-0.591,86.87,110.6,40.498802,-3.377782,596.7,3,5,236.6,0.0
88.01,1,-0.042,0.025,0.002,-0.04,0.02,-0.008,-1.526,0.029,-0.591,86.87,110.6,40.498802,-3.377782,596.7,3,5,236.6,0.0
88.11,1,0.043,0.019,0.0,-0.013,0.022,-0.004,-1.525,0.028,-0.591,86.87,110.6,40.498802,-3.377782,596.7,3,5,236.6,0.0
88.22,1,0.012,-0.046,0.001,0.026,-0.006,-0.002,-1.523,0.029,-0.591,86.87,110.6,40.498802,-3.377782,596.7,3,5,236.6,0.0
88.32,1,-0.028,-0.004,-0.001,-0.008,-0.015,0.002,-1.525,0.03,-0.591,86.87,110.6,40.498802,-3.377782,596.7,3,5,236.6,0.0
88.41,1,0.032,0.041,-0.003,0.002,0.014,-0.0,-1.525,0.035,-0.591,87.89,109.6,40.49865,-3.378084,595.8,3,5,236.6,0.0
88.51,1,-0.028,-0.041,0.004,-0.005,-0.009,-0.001,-1.525,0.039,-0.591,87.89,109.6,40.49865,-3.378084,595.8,3,5,236.6,0.0
88.61,1,-0.034,-0.043,-0.011,-0.022,-0.026,-0.003,-1.524,0.039,-0.591,87.89,109.6,40.49865,-3.378084,595.8,3,5,236.6,0.0
88.72,1,-0.02,0.006,-0.007,-0.019,-0.01,-0.008,-1.523,0.037,-0.59,87.89,109.6,40.49865,-3.378084,595.8,3,5,236.6,0.0
88.82,1,0.006,0.003,0.001,-0.016,-0.006,-0.004,-1.523,0.035,-0.59,87.89,109.6,40.49865,-3.378084,595.8,3,5,236.6,0.0
88.93,1,0.028,0.031,0.011,0.012,0.013,0.005,-1.522,0.036,-0.59,87.89,109.6,40.49865,-3.378084,595.8,3,5,236.6,0.0
89.03,1,0.002,0.021,0.02,0.012,0.017,0.011,-1.523,0.037,-0.59,87.89,109.6,40.49865,-3.378084,595.8,3,5,236.6,0.0
89.12,1,0.016,0.003,0.004,0.012,0.013,0.01,-1.524,0.039,-0.59,87.89,109.6,40.49865,-3.378084,595.8,3,5,236.6,0.0
89.22,1,-0.035,-0.009,-0.004,-0.008,0.001,0.003,-1.524,0.038,-0.59,87.89,109.6,40.49865,-3.378084,595.8,3,5,236.6,0.0
89.32,1,-0.007,0.028,0.012,-0.018,0.011,0.007,-1.526,0.037,-0.59,87.89,109.6,40.49865,-3.378084,595.8,3,5,236.6,0.0
89.42,1,-0.017,-0.008,0.012,-0.011,0.01,0.008,-1.526,0.037,-0.589,88.91,109.4,40.498497,-3.378378,595.5,4,5,236.6,0.0
89.52,1,-0.021,-0.009,0.01,-0.013,-0.006,0.014,-1.528,0.035,-0.589,88.91,109.4,40.498497,-3.378378,595.5,4,5,236.6,0.0
89.62,1,-0.053,-0.003,0.006,-0.038,-0.008,0.004,-1.528,0.033,-0.589,88.91,109.4,40.498497,-3.378378,595.5,4,5,236.6,0.0
89.72,1,0.004,0.034,0.026,-0.021,0.01,0.017,-1.531,0.03,-0.589,88.91,109.4,40.498497,-3.378378,595.5,4,5,236.6,0.0
89.82,1,-0.04,-0.017,0.024,-0.027,0.007,0.02,-1.533,0.032,-0.589,88.91,109.4,40.498497,-3.378378,595.5,4,5,236.6,0.0
89.93,1,-0.03,-0.036,-0.011,-0.03,-0.013,0.01,-1.534,0.032,-0.589,88.91,109.4,40.498497,-3.378378,595.5,4,5,236.6,0.0
90.02,1,-0.007,0.004,0.025,-0.02,-0.015,0.011,-1.536,0.033,-0.588,88.91,109.4,40.498497,-3.378378,595.5,4,5,236.6,0.0
90.13,1,0.019,0.018,0.025,-0.002,0.0,0.017,-1.538,0.029,-0.588,88.91,109.4,40.498497,-3.378378,595.5,4,5,236.6,0.0
90.22,1,0.044,0.034,0.013,0.026,0.026,0.021,-1.538,0.031,-0.588,88.91,109.4,40.498497,-3.378378,595.5,4,5,236.6,0.0
90.32,1,0.076,0.059,0.046,0.06,0.049,0.029,-1.538,0.033,-0.588,88.91,109.4,40.498497,-3.378378,595.5,4,5,236.6,0.0
90.42,1,-0.037,-0.024,0.003,0.022,0.016,0.024,-1.538,0.033,-0.588,89.89,108.6,40.498341,-3.378677,595.4,4,5,236.2,0.352
90.53,1,-0.049,-0.02,-0.001,-0.041,-0.016,0.007,-1.537,0.032,-0.588,89.89,108.6,40.498341,-3.378677,595.4,4,5,236.2,0.352
90.62,1,0.04,0.026,-0.009,-0.002,0.002,-0.002,-1.537,0.031,-0.588,89.89,108.6,40.498341,-3.378677,595.4,4,5,236.2,0.352
90.73,1,-0.01,-0.0,-0.01,0.007,0.009,-0.006,-1.536,0.031,-0.588,89.89,108.6,40.498341,-3.378677,595.4,4,5,236.2,0.352
90.82,1,-0.045,-0.04,-0.018,-0.022,-0.017,-0.012,-1.536,0.031,-0.588,89.89,108.6,40.498341,-3.378677,595.4,4,5,236.2,0.352
90.92,1,-0.02,-0.019,0.011,-0.027,-0.019,0.0,-1.536,0.03,-0.588,89.89,108.6,40.498341,-3.378677,595.4,4,5,236.2,0.352
91.02,1,0.014,0.002,-0.013,-0.005,-0.017,-0.007,-1.535,0.029,-0.588,89.89,108.6,40.498341,-3.378677,595.4,4,5,236.2,0.352
91.13,1,-0.001,0.003,-0.011,-0.001,0.0,-0.011,-1.534,0.029,-0.588,89.89,108.6,40.498341,-3.378677,595.4,4,5,236.2,0.352
91.23,1,-0.003,-0.011,0.005,0.001,-0.004,-0.001,-1.534,0.029,-0.588,89.89,108.6,40.498341,-3.378677,595.4,4,5,236.2,0.352
91.33,1,-0.032,-0.012,0.001,-0.01,-0.006,-0.001,-1.535,0.027,-0.587,89.89,108.6,40.498341,-3.378677,595.4,4,5,236.2,0.352
91.43,1,0.012,-0.021,-0.027,-0.01,-0.015,-0.012,-1.532,0.027,-0.587,90.89,109.3,40.498184,-3.378973,594.7,4,5,236.2,0.352
91.53,1,-0.006,0.007,-0.029,0.0,-0.005,-0.02,-1.53,0.026,-0.587,90.89,109.3,40.498184,-3.378973,594.7,4,5,236.2,0.352
91.63,1,-0.024,0.019,-0.018,-0.015,0.005,-0.021,-1.528,0.025,-0.587,90.89,109.3,40.498184,-3.378973,594.7,4,5,236.2,0.352
91.73,1,-0.034,-0.001,-0.014,-0.026,0.005,-0.019,-1.526,0.026,-0.587,90.89,109.3,40.498184,-3.378973,594.7,4,5,236.2,0.352
91.84,1,0.033,0.001,-0.014,-0.005,-0.001,-0.014,-1.523,0.027,-0.587,90.89,109.3,40.498184,-3.378973,594.7,4,5,236.2,0.352
91.94,1,0.051,-0.01,-0.041,0.033,0.003,-0.025,-1.52,0.026,-0.587,90.89,109.3,40.498184,-3.378973,594.7,4,5,236.2,0.352
92.03,1,-0.005,-0.0,-0.028,0.019,-0.008,-0.031,-1.518,0.024,-0.587,90.89,109.3,40.498184,-3.378973,594.7,4,5,236.2,0.352
92.13,1,-0.038,0.025,-0.006,-0.007,0.006,-0.021,-1.516,0.024,-0.587,90.89,109.3,40.498184,-3.378973,594.7,4,5,236.2,0.352
92.23,1,-0.016,0.005,0.009,-0.022,0.016,-0.004,-1.515,0.022,-0.587,90.89,109.3,40.498184,-3.378973,594.7,4,5,236.2,0.352
92.33,1,-0.003,0.011,-0.02,-0.01,0.009,-0.007,-1.515,0.024,-0.587,90.89,109.3,40.498184,-3.378973,594.7,4,5,236.2,0.352
92.43,1,-0.034,-0.036,0.001,-0.022,-0.012,-0.008,-1.517,0.024,-0.587,91.89,108.4,40.498035,-3.379266,594.6,4,5,235.9,0.352
92.53,1,-0.014,-0.008,0.032,-0.021,-0.014,0.012,-1.52,0.023,-0.588,91.89,108.4,40.498035,-3.379266,594.6,4,5,235.9,0.352
92.63,1,0.005,-0.009,0.022,-0.006,-0.004,0.019,-1.522,0.022,-0.588,91.89,108.4,40.498035,-3.379266,594.6,4,5,235.9,0.352
92.73,1,0.027,0.023,0.036,0.009,0.003,0.025,-1.524,0.027,-0.588,91.89,108.4,40.498035,-3.379266,594.6,4,5,235.9,0.352
92.83,1,-0.011,-0.028,0.043,0.012,-0.008,0.038,-1.528,0.03,-0.586,91.89,108.4,40.498035,-3.379266,594.6,4,5,235.9,0.352
92.93,1,-0.014,-0.036,0.031,-0.01,-0.025,0.034,-1.533,0.029,-0.585,91.89,108.4,40.498035,-3.379266,594.6,4,5,235.9,0.352
93.04,1,0.021,-0.009,0.045,-0.001,-0.021,0.041,-1.536,0.029,-0.584,91.89,108.4,40.498035,-3.379266,594.6,4,5,235.9,0.352
93.13,1,0.028,-0.024,0.04,0.019,-0.018,0.039,-1.538,0.028,-0.583,91.89,108.4,40.498035,-3.379266,594.6,4,5,235.9,0.352
93.23,1,-0.016,-0.049,0.045,0.011,-0.034,0.041,-1.542,0.031,-0.583,91.89,108.4,40.498035,-3.379266,594.6,4,5,235.9,0.352
93.33,1,-0.048,-0.011,0.025,-0.027,-0.028,0.035,-1.544,0.029,-0.582,91.89,108.4,40.498035,-3.379266,594.6,4,5,235.9,0.352
93.43,1,-0.018,0.027,0.029,-0.029,-0.003,0.036,-1.546,0.027,-0.582,92.89,107.0,40.497887,-3.379556,594.7,3,5,235.9,0.352
93.53,1,-0.018,-0.006,0.028,-0.021,0.007,0.029,-1.548,0.028,-0.581,92.89,107.0,40.497887,-3.379556,594.7,3,5,235.9,0.352
93.64,1,-0.039,-0.042,0.011,-0.021,-0.019,0.022,-1.551,0.03,-0.58,92.89,107.0,40.497887,-3.379556,594.7,3,5,235.9,0.352
93.73,1,-0.048,-0.036,0.027,-0.038,-0.031,0.018,-1.553,0.033,-0.578,92.89,107.0,40.497887,-3.379556,594.7,3,5,235.9,0.352
93.83,1,0.008,-0.038,0.036,-0.025,-0.039,0.028,-1.556,0.038,-0.576,92.89,107.0,40.497887,-3.379556,594.7,3,5,235.9,0.352
93.93,1,0.018,-0.035,0.022,0.003,-0.032,0.029,-1.558,0.042,-0.574,92.89,107.0,40.497887,-3.379556,594.7,3,5,235.9,0.352
94.04,1,-0.014,-0.073,0.019,-0.002,-0.05,0.019,-1.559,0.048,-0.572,92.89,107.0,40.497887,-3.379556,594.7,3,5,235.9,0.352
94.14,1,-0.013,-0.068,0.031,-0.012,-0.065,0.028,-1.563,0.052,-0.57,92.89,107.0,40.497887,-3.379556,594.7,3,5,235.9,0.352
94.24,1,0.005,-0.012,0.022,-0.004,-0.046,0.026,-1.564,0.052,-0.568,92.89,107.0,40.497887,-3.379556,594.7,3,5,235.9,0.352
94.34,1,0.003,-0.017,0.013,0.006,-0.022,0.018,-1.565,0.053,-0.566,92.89,107.0,40.497887,-3.379556,594.7,3,5,235.9,0.352
94.44,1,0.008,-0.011,0.024,0.007,-0.017,0.018,-1.568,0.056,-0.565,93.89,107.9,40.497738,-3.379848,595.0,3,5,235.5,0.352
94.54,1,-0.057,-0.025,0.023,-0.02,-0.018,0.025,-1.571,0.055,-0.563,93.89,107.9,40.497738,-3.379848,595.0,3,5,235.5,0.352
94.64,1,-0.075,-0.024,0.02,-0.051,-0.019,0.023,-1.573,0.053,-0.562,93.89,107.9,40.497738,-3.379848,595.0,3,5,235.5,0.352
94.74,1,-0.013,-0.008,0.01,-0.048,-0.02,0.021,-1.573,0.054,-0.561,93.89,107.9,40.497738,-3.379848,595.0,3,5,235.5,0.352
94.84,1,0.043,0.014,0.018,0.002,-0.006,0.009,-1.573,0.057,-0.56,93.89,107.9,40.497738,-3.379848,595.0,3,5,235.5,0.352
94.94,1,-0.063,-0.019,0.017,-0.015,-0.002,0.016,-1.577,0.056,-0.558,93.89,107.9,40.497738,-3.379848,595.0,3,5,235.5,0.352
95.04,1,-0.025,-0.022,0.034,-0.032,-0.015,0.026,-1.577,0.056,-0.557,93.89,107.9,40.497738,-3.379848,595.0,3,5,235.5,0.352
95.14,1,0.052,0.013,0.007,0.011,-0.006,0.019,-1.577,0.057,-0.557,93.89,107.9,40.497738,-3.379848,595.0,3,5,235.5,0.352
95.24,1,-0.072,-0.019,0.014,-0.012,-0.005,0.016,-1.58,0.06,-0.555,93.89,107.9,40.497738,-3.379848,595.0,3,5,235.5,0.352
95.34,1,0.012,0.038,0.009,-0.022,0.007,0.011,-1.581,0.059,-0.554,93.89,107.9,40.497738,-3.379848,595.0,3,5,235.5,0.352
95.45,1,-0.022,0.02,-0.0,-0.014,0.021,0.009,-1.581,0.054,-0.554,94.89,109.0,40.497585,-3.380155,593.6,3,5,234.5,1.406
95.55,1,-0.023,0.051,0.016,-0.017,0.034,0.006,-1.583,0.046,-0.556,94.89,109.0,40.497585,-3.380155,593.6,3,5,234.5,1.406
95.64,1,-0.004,0.084,0.02,-0.017,0.054,0.016,-1.584,0.038,-0.558,94.89,109.0,40.497585,-3.380155,593.6,3,5,234.5,1.406
95.74,1,0.003,0.104,0.019,-0.001,0.087,0.016,-1.585,0.029,-0.56,94.89,109.0,40.497585,-3.380155,593.6,3,5,234.5,1.406
95.84,1,-0.042,0.095,0.009,-0.031,0.086,0.016,-1.585,0.024,-0.563,94.89,109.0,40.497585,-3.380155,593.6,3,5,234.5,1.406
95.94,1,0.02,0.114,-0.006,-0.007,0.101,0.002,-1.585,0.018,-0.566,94.89,109.0,40.497585,-3.380155,593.6,3,5,234.5,1.406
96.05,1,-0.02,0.098,0.004,0.006,0.108,0.0,-1.586,0.014,-0.569,94.89,109.0,40.497585,-3.380155,593.6,3,5,234.5,1.406
96.14,1,-0.077,0.062,-0.004,-0.037,0.089,0.002,-1.587,0.01,-0.572,94.89,109.0,40.497585,-3.380155,593.6,3,5,234.5,1.406
96.24,1,0.021,0.074,-0.009,-0.042,0.066,-0.005,-1.586,0.007,-0.574,94.89,109.0,40.497585,-3.380155,593.6,3,5,234.5,1.406
96.34,1,0.061,0.079,-0.006,0.03,0.082,-0.002,-1.585,0.002,-0.576,94.89,109.0,40.497585,-3.380155,593.6,3,5,234.5,1.406
96.45,1,-0.047,0.01,0.001,0.006,0.05,-0.005,-1.583,0.0,-0.579,95.92,109.7,40.497425,-3.380449,593.3,3,5,234.1,1.406
96.54,1,0.018,0.046,-0.013,-0.009,0.035,-0.009,-1.582,0.001,-0.581,95.92,109.7,40.497425,-3.380449,593.3,3,5,234.1,1.406
96.65,1,-0.02,0.047,-0.011,0.001,0.046,-0.007,-1.582,-0.002,-0.583,95.92,109.7,40.497425,-3.380449,593.3,3,5,234.1,1.406
96.75,1,-0.038,0.023,-0.026,-0.015,0.041,-0.018,-1.578,-0.008,-0.585,95.92,109.7,40.497425,-3.380449,593.3,3,5,234.1,1.406
96.85,1,-0.041,0.008,-0.023,-0.038,0.018,-0.02,-1.577,-0.007,-0.587,95.92,109.7,40.497425,-3.380449,593.3,3,5,234.1,1.406
96.95,1,-0.044,0.004,-0.023,-0.045,0.011,-0.023,-1.574,-0.008,-0.588,95.92,109.7,40.497425,-3.380449,593.3,3,5,234.1,1.406
97.05,1,0.024,0.015,-0.038,-0.014,0.014,-0.031,-1.57,-0.012,-0.589,95.92,109.7,40.497425,-3.380449,593.3,3,5,234.1,1.406
97.15,1,-0.023,-0.003,-0.017,-0.003,0.005,-0.024,-1.568,-0.013,-0.59,95.92,109.7,40.497425,-3.380449,593.3,3,5,234.1,1.406
97.26,1,-0.043,0.001,-0.028,-0.022,-0.0,-0.025,-1.567,-0.013,-0.592,95.92,109.7,40.497425,-3.380449,593.3,3,5,234.1,1.406
97.35,1,0.016,0.025,-0.021,-0.011,0.016,-0.025,-1.564,-0.011,-0.593,95.92,109.7,40.497425,-3.380449,593.3,3,5,234.1,1.406
97.45,1,-0.049,-0.02,0.009,-0.024,-0.001,-0.011,-1.564,-0.01,-0.594,96.96,112.0,40.497265,-3.380762,593.3,3,5,235.2,1.055
97.55,1,0.034,0.009,-0.019,-0.004,0.001,-0.006,-1.562,-0.011,-0.595,96.96,112.0,40.497265,-3.380762,593.3,3,5,235.2,1.055
97.65,1,-0.009,0.006,-0.014,-0.003,0.002,-0.015,-1.56,-0.011,-0.597,96.96,112.0,40.497265,-3.380762,593.3,3,5,235.2,1.055
97.75,1,0.012,0.014,-0.006,0.001,0.011,-0.012,-1.56,-0.011,-0.598,96.96,112.0,40.497265,-3.380762,593.3,3,5,235.2,1.055
97.86,1,-0.044,0.011,-0.027,-0.004,0.011,-0.017,-1.557,-0.011,-0.599,96.96,112.0,40.497265,-3.380762,593.3,3,5,235.2,1.055
97.95,1,0.024,0.032,-0.003,-0.005,0.02,-0.014,-1.556,-0.012,-0.6,96.96,112.0,40.497265,-3.380762,593.3,3,5,235.2,1.055
98.05,1,0.058,0.007,0.003,0.029,0.017,-0.002,-1.556,-0.012,-0.602,96.96,112.0,40.497265,-3.380762,593.3,3,5,235.2,1.055
98.15,1,-0.053,-0.011,-0.002,-0.0,0.004,-0.002,-1.556,-0.011,-0.603,96.96,112.0,40.497265,-3.380762,593.3,3,5,235.2,1.055
98.25,1,-0.005,0.027,-0.015,-0.019,0.006,-0.007,-1.556,-0.011,-0.604,96.96,112.0,40.497265,-3.380762,593.3,3,5,235.2,1.055
98.35,1,0.074,0.037,-0.006,0.03,0.032,-0.007,-1.555,-0.011,-0.605,96.96,112.0,40.497265,-3.380762,593.3,3,5,235.2,1.055
98.46,1,-0.111,-0.026,-0.01,-0.001,0.012,-0.009,-1.554,-0.011,-0.606,97.9,112.2,40.497093,-3.381074,593.2,3,5,235.5,1.406
98.55,1,-0.01,0.008,-0.008,-0.066,-0.013,-0.008,-1.554,-0.014,-0.607,97.9,112.2,40.497093,-3.381074,593.2,3,5,235.5,1.406
98.65,1,0.054,0.023,0.006,0.016,0.015,-0.002,-1.556,-0.013,-0.608,97.9,112.2,40.497093,-3.381074,593.2,3,5,235.5,1.406
98.75,1,-0.059,-0.016,-0.001,-0.004,0.004,-0.002,-1.555,-0.012,-0.609,97.9,112.2,40.497093,-3.381074,593.2,3,5,235.5,1.406
98.86,1,0.067,-0.009,-0.008,0.011,-0.002,-0.003,-1.554,-0.008,-0.61,97.9,112.2,40.497093,-3.381074,593.2,3,5,235.5,1.406
98.95,1,0.006,-0.017,-0.02,0.028,-0.01,-0.01,-1.553,-0.005,-0.61,97.9,112.2,40.497093,-3.381074,593.2,3,5,235.5,1.406
99.05,1,-0.056,-0.037,-0.021,-0.01,-0.024,-0.017,-1.552,-0.003,-0.609,97.9,112.2,40.497093,-3.381074,593.2,3,5,235.5,1.406
99.15,1,-0.169,-0.095,-0.038,-0.097,-0.058,-0.025,-1.552,-0.001,-0.609,97.9,112.2,40.497093,-3.381074,593.2,3,5,235.5,1.406
99.26,1,0.128,-0.016,0.018,-0.012,-0.045,-0.014,-1.553,-0.001,-0.608,97.9,112.2,40.497093,-3.381074,593.2,3,5,235.5,1.406
99.35,1,0.023,-0.038,-0.023,0.039,-0.036,-0.009,-1.553,0.002,-0.608,97.9,112.2,40.497093,-3.381074,593.2,3,5,235.5,1.406
99.46,1,-0.03,-0.059,-0.001,-0.017,-0.057,-0.008,-1.552,0.005,-0.607,98.9,112.1,40.496937,-3.381377,592.9,3,5,236.6,1.406
99.56,1,-0.011,-0.022,-0.0,0.007,-0.034,-0.006,-1.554,0.004,-0.607,98.9,112.1,40.496937,-3.381377,592.9,3,5,236.6,1.406
99.67,1,-0.074,-0.048,0.006,-0.048,-0.045,0.003,-1.555,0.005,-0.607,98.9,112.1,40.496937,-3.381377,592.9,3,5,236.6,1.406
99.76,1,-0.047,-0.057,-0.003,-0.059,-0.049,-0.003,-1.554,0.007,-0.607,98.9,112.1,40.496937,-3.381377,592.9,3,5,236.6,1.406
99.86,1,-0.0,-0.013,-0.022,-0.034,-0.033,-0.008,-1.554,0.006,-0.607,98.9,112.1,40.496937,-3.381377,592.9,3,5,236.6,1.406
99.96,1,-0.026,0.005,0.017,0.002,-0.003,-0.002,-1.556,0.005,-0.607,98.9,112.1,40.496937,-3.381377,592.9,3,5,236.6,1.406
100.07,1,-0.072,-0.007,0.006,-0.054,-0.018,0.006,-1.558,0.004,-0.608,98.9,112.1,40.496937,-3.381377,592.9,3,5,236.6,1.406
100.17,1,0.061,0.032,-0.001,-0.01,0.009,0.006,-1.56,0.003,-0.609,98.9,112.1,40.496937,-3.381377,592.9,3,5,236.6,1.406
100.26,1,-0.015,0.006,-0.01,0.01,0.01,-0.008,-1.557,0.008,-0.611,98.9,112.1,40.496937,-3.381377,592.9,3,5,236.6,1.406
100.36,1,-0.01,0.036,0.029,-0.01,0.023,0.009,-1.559,0.006,-0.613,98.9,112.1,40.496937,-3.381377,592.9,3,5,236.6,1.406
100.46,1,0.056,0.101,0.02,0.022,0.06,0.016,-1.561,0.002,-0.615,99.88,112.8,40.496784,-3.381671,593.5,3,5,236.2,0.703
100.57,1,-0.043,0.033,-0.004,0.004,0.058,0.01,-1.56,-0.001,-0.618,99.88,112.8,40.496784,-3.381671,593.5,3,5,236.2,0.703
100.66,1,-0.011,0.051,0.008,-0.023,0.044,0.004,-1.561,-0.008,-0.62,99.88,112.8,40.496784,-3.381671,593.5,3,5,236.2,0.703
100.77,1,0.001,0.058,0.034,0.0,0.056,0.021,-1.565,-0.015,-0.623,99.88,112.8,40.496784,-3.381671,593.5,3,5,236.2,0.703
100.87,1,-0.071,0.018,-0.01,-0.032,0.039,0.009,-1.567,-0.016,-0.625,99.88,112.8,40.496784,-3.381671,593.5,3,5,236.2,0.703
100.96,1,-0.001,0.039,-0.0,-0.036,0.034,0.001,-1.568,-0.02,-0.627,99.88,112.8,40.496784,-3.381671,593.5,3,5,236.2,0.703
101.06,1,-0.034,0.024,-0.002,-0.018,0.033,0.001,-1.568,-0.027,-0.63,99.88,112.8,40.496784,-3.381671,593.5,3,5,236.2,0.703
101.16,1,-0.069,0.002,0.012,-0.045,0.02,0.003,-1.568,-0.029,-0.632,99.88,112.8,40.496784,-3.381671,593.5,3,5,236.2,0.703
101.26,1,-0.002,0.051,0.01,-0.024,0.029,0.01,-1.569,-0.027,-0.634,99.88,112.8,40.496784,-3.381671,593.5,3,5,236.2,0.703
101.36,1,0.084,0.025,0.004,0.015,0.032,0.007,-1.568,-0.025,-0.635,99.88,112.8,40.496784,-3.381671,593.5,3,5,236.2,0.703
101.46,1,-0.072,-0.031,0.013,0.002,0.006,0.009,-1.568,-0.023,-0.636,100.87,113.0,40.496628,-3.381976,596.0,3,5,236.6,0.352
101.56,1,-0.068,-0.006,-0.014,-0.051,-0.014,0.0,-1.567,-0.024,-0.637,100.87,113.0,40.496628,-3.381976,596.0,3,5,236.6,0.352
101.66,1,-0.002,0.001,-0.008,-0.024,0.001,-0.007,-1.568,-0.025,-0.638,100.87,113.0,40.496628,-3.381976,596.0,3,5,236.6,0.352
101.77,1,-0.027,-0.025,0.007,-0.031,-0.011,-0.001,-1.568,-0.026,-0.639,100.87,113.0,40.496628,-3.381976,596.0,3,5,236.6,0.352
101.86,1,0.01,0.046,-0.003,-0.004,-0.0,0.002,-1.569,-0.022,-0.64,100.87,113.0,40.496628,-3.381976,596.0,3,5,236.6,0.352
101.98,1,-0.001,-0.03,0.003,-0.009,0.007,-0.004,-1.568,-0.018,-0.64,100.87,113.0,40.496628,-3.381976,596.0,3,5,236.6,0.352
102.07,1,-0.003,-0.043,0.016,-0.004,-0.02,0.008,-1.568,-0.014,-0.64,100.87,113.0,40.496628,-3.381976,596.0,3,5,236.6,0.352
102.16,1,-0.018,-0.039,0.004,-0.01,-0.036,0.01,-1.57,-0.009,-0.64,100.87,113.0,40.496628,-3.381976,596.0,3,5,236.6,0.352
102.26,1,0.015,-0.029,0.001,0.001,-0.034,0.003,-1.568,-0.003,-0.639,100.87,113.0,40.496628,-3.381976,596.0,3,5,236.6,0.352
102.37,1,-0.011,-0.022,0.021,-0.004,-0.033,0.012,-1.568,0.002,-0.639,100.87,113.0,40.496628,-3.381976,596.0,3,5,236.6,0.352
102.47,1,0.021,-0.053,0.007,-0.001,-0.036,0.01,-1.569,0.008,-0.638,101.9,113.4,40.496475,-3.382278,592.5,3,5,237.7,1.406
102.57,1,0.076,-0.037,-0.031,0.047,-0.037,-0.004,-1.568,0.015,-0.637,101.9,113.4,40.496475,-3.382278,592.5,3,5,237.7,1.406
102.67,1,-0.041,-0.056,0.0,0.022,-0.045,-0.008,-1.566,0.017,-0.635,101.9,113.4,40.496475,-3.382278,592.5,3,5,237.7,1.406
102.77,1,0.022,-0.052,0.005,-0.008,-0.05,-0.004,-1.566,0.018,-0.634,101.9,113.4,40.496475,-3.382278,592.5,3,5,237.7,1.406
102.87,1,-0.069,-0.046,-0.013,-0.013,-0.048,-0.002,-1.565,0.018,-0.633,101.9,113.4,40.496475,-3.382278,592.5,3,5,237.7,1.406
102.98,1,-0.021,-0.048,0.014,-0.038,-0.051,0.001,-1.568,0.022,-0.631,101.9,113.4,40.496475,-3.382278,592.5,3,5,237.7,1.406
103.07,1,-0.009,-0.054,-0.008,-0.012,-0.051,-0.002,-1.568,0.028,-0.629,101.9,113.4,40.496475,-3.382278,592.5,3,5,237.7,1.406
103.17,1,0.042,-0.025,-0.021,0.004,-0.041,-0.01,-1.565,0.036,-0.627,101.9,113.4,40.496475,-3.382278,592.5,3,5,237.7,1.406
103.27,1,-0.01,-0.04,-0.014,0.018,-0.041,-0.01,-1.565,0.042,-0.625,101.9,113.4,40.496475,-3.382278,592.5,3,5,237.7,1.406
103.37,1,-0.072,-0.047,-0.006,-0.038,-0.038,-0.014,-1.565,0.046,-0.623,101.9,113.4,40.496475,-3.382278,592.5,3,5,237.7,1.406
103.47,1,-0.042,-0.057,-0.032,-0.042,-0.048,-0.017,-1.564,0.05,-0.62,102.87,114.5,40.496323,-3.382595,593.0,4,5,237.7,1.055
103.57,1,0.019,-0.04,-0.012,-0.016,-0.052,-0.02,-1.564,0.052,-0.618,102.87,114.5,40.496323,-3.382595,593.0,4,5,237.7,1.055
103.67,1,-0.089,-0.017,-0.026,-0.037,-0.027,-0.023,-1.563,0.055,-0.616,102.87,114.5,40.496323,-3.382595,593.0,4,5,237.7,1.055
103.78,1,0.006,-0.029,0.003,-0.046,-0.028,-0.015,-1.562,0.056,-0.614,102.87,114.5,40.496323,-3.382595,593.0,4,5,237.7,1.055
103.87,1,0.038,-0.052,0.003,0.014,-0.043,0.004,-1.561,0.06,-0.612,102.87,114.5,40.496323,-3.382595,593.0,4,5,237.7,1.055
103.97,1,-0.005,-0.027,-0.02,0.005,-0.035,-0.013,-1.558,0.064,-0.61,102.87,114.5,40.496323,-3.382595,593.0,4,5,237.7,1.055
104.07,1,-0.007,-0.014,-0.008,0.005,-0.022,-0.008,-1.557,0.067,-0.608,102.87,114.5,40.496323,-3.382595,593.0,4,5,237.7,1.055
104.18,1,-0.035,-0.011,0.009,-0.013,-0.018,-0.004,-1.556,0.069,-0.607,102.87,114.5,40.496323,-3.382595,593.0,4,5,237.7,1.055
104.28,1,-0.051,0.003,-0.014,-0.047,-0.011,-0.003,-1.556,0.068,-0.605,102.87,114.5,40.496323,-3.382595,593.0,4,5,237.7,1.055
104.38,1,0.028,0.024,0.003,-0.007,0.009,-0.003,-1.555,0.068,-0.604,102.87,114.5,40.496323,-3.382595,593.0,4,5,237.7,1.055
104.48,1,-0.023,-0.004,0.013,0.003,0.007,0.003,-1.554,0.066,-0.603,103.87,114.8,40.496166,-3.382903,593.7,3,5,236.6,1.055
104.57,1,0.008,0.017,0.007,-0.014,0.007,0.007,-1.555,0.063,-0.602,103.87,114.8,40.496166,-3.382903,593.7,3,5,236.6,1.055
104.67,1,-0.016,-0.016,0.017,-0.011,0.001,0.012,-1.558,0.057,-0.601,103.87,114.8,40.496166,-3.382903,593.7,3,5,236.6,1.055
104.78,1,-0.029,-0.009,-0.011,-0.029,-0.01,0.002,-1.559,0.054,-0.6,103.87,114.8,40.496166,-3.382903,593.7,3,5,236.6,1.055
104.87,1,0.012,0.014,-0.001,-0.003,0.007,-0.001,-1.559,0.056,-0.599,103.87,114.8,40.496166,-3.382903,593.7,3,5,236.6,1.055
104.98,1,-0.019,-0.008,0.001,-0.004,-0.003,-0.001,-1.557,0.058,-0.598,103.87,114.8,40.496166,-3.382903,593.7,3,5,236.6,1.055
105.07,1,0.023,-0.002,-0.008,0.002,-0.003,-0.006,-1.557,0.059,-0.596,103.87,114.8,40.496166,-3.382903,593.7,3,5,236.6,1.055
105.18,1,-0.054,-0.03,-0.016,-0.015,-0.012,-0.006,-1.556,0.057,-0.595,103.87,114.8,40.496166,-3.382903,593.7,3,5,236.6,1.055
105.28,1,-0.012,0.029,-0.004,-0.02,-0.004,-0.009,-1.556,0.055,-0.594,103.87,114.8,40.496166,-3.382903,593.7,3,5,236.6,1.055
105.38,1,-0.009,-0.012,-0.015,-0.013,0.003,-0.01,-1.555,0.055,-0.593,103.87,114.8,40.496166,-3.382903,593.7,3,5,236.6,1.055
105.48,1,-0.027,-0.025,0.004,-0.024,-0.012,-0.006,-1.555,0.054,-0.592,104.87,114.2,40.496006,-3.383219,594.0,3,5,235.5,2.109
105.59,1,0.005,-0.01,-0.008,-0.006,-0.01,-0.006,-1.553,0.056,-0.591,104.87,114.2,40.496006,-3.383219,594.0,3,5,235.5,2.109
105.68,1,0.048,-0.026,0.002,0.009,-0.022,-0.004,-1.553,0.057,-0.589,104.87,114.2,40.496006,-3.383219,594.0,3,5,235.5,2.109
105.78,1,-0.005,0.003,-0.001,0.02,-0.009,-0.003,-1.552,0.059,-0.588,104.87,114.2,40.496006,-3.383219,594.0,3,5,235.5,2.109
105.88,1,0.003,-0.03,0.016,-0.001,-0.016,0.008,-1.552,0.062,-0.586,104.87,114.2,40.496006,-3.383219,594.0,3,5,235.5,2.109
105.98,1,-0.003,-0.01,0.0,0.009,-0.015,0.006,-1.551,0.062,-0.585,104.87,114.2,40.496006,-3.383219,594.0,3,5,235.5,2.109
106.08,1,-0.051,-0.025,0.008,-0.017,-0.021,0.007,-1.551,0.063,-0.584,104.87,114.2,40.496006,-3.383219,594.0,3,5,235.5,2.109
106.19,1,0.034,0.005,-0.013,-0.012,-0.008,-0.004,-1.551,0.062,-0.582,104.87,114.2,40.496006,-3.383219,594.0,3,5,235.5,2.109
106.28,1,-0.021,0.032,-0.019,-0.007,0.01,-0.01,-1.551,0.06,-0.581,104.87,114.2,40.496006,-3.383219,594.0,3,5,235.5,2.109
106.38,1,-0.061,0.001,-0.012,-0.024,0.013,-0.01,-1.55,0.06,-0.58,104.87,114.2,40.496006,-3.383219,594.0,3,5,235.5,2.109
106.48,1,-0.044,-0.012,-0.001,-0.048,-0.003,-0.009,-1.551,0.061,-0.579,105.87,114.5,40.495846,-3.383532,593.6,3,5,234.8,1.758
106.59,1,0.001,-0.013,0.001,-0.021,-0.006,-0.003,-1.55,0.062,-0.578,105.87,114.5,40.495846,-3.383532,593.6,3,5,234.8,1.758
106.68,1,0.002,0.003,-0.006,-0.007,-0.009,-0.007,-1.549,0.059,-0.578,105.87,114.5,40.495846,-3.383532,593.6,3,5,234.8,1.758
106.78,1,0.068,0.056,-0.013,0.033,0.028,-0.002,-1.547,0.06,-0.577,105.87,114.5,40.495846,-3.383532,593.6,3,5,234.8,1.758
106.88,1,-0.081,0.005,-0.006,-0.008,0.02,-0.008,-1.546,0.062,-0.576,105.87,114.5,40.495846,-3.383532,593.6,3,5,234.8,1.758
106.98,1,0.01,0.023,0.003,-0.026,0.02,-0.005,-1.546,0.062,-0.576,105.87,114.5,40.495846,-3.383532,593.6,3,5,234.8,1.758
107.08,1,0.002,0.004,-0.013,0.001,0.011,-0.004,-1.546,0.061,-0.575,105.87,114.5,40.495846,-3.383532,593.6,3,5,234.8,1.758
107.19,1,-0.08,0.019,-0.011,-0.039,0.012,-0.016,-1.544,0.059,-0.575,105.87,114.5,40.495846,-3.383532,593.6,3,5,234.8,1.758
107.29,1,0.032,0.046,0.001,-0.01,0.032,-0.001,-1.544,0.059,-0.575,105.87,114.5,40.495846,-3.383532,593.6,3,5,234.8,1.758
107.39,1,-0.094,0.006,-0.01,-0.034,0.019,-0.006,-1.546,0.059,-0.575,105.87,114.5,40.495846,-3.383532,593.6,3,5,234.8,1.758
107.48,1,0.011,0.037,0.0,-0.048,0.024,-0.005,-1.547,0.057,-0.575,106.87,114.5,40.495678,-3.383837,593.7,4,5,234.1,1.406
107.58,1,-0.021,0.004,-0.0,-0.005,0.026,-0.0,-1.547,0.056,-0.575,106.87,114.5,40.495678,-3.383837,593.7,4,5,234.1,1.406
107.68,1,0.027,0.031,-0.023,-0.008,0.013,-0.011,-1.544,0.056,-0.575,106.87,114.5,40.495678,-3.383837,593.7,4,5,234.1,1.406
107.79,1,0.019,0.043,0.006,0.033,0.041,-0.005,-1.545,0.054,-0.574,106.87,114.5,40.495678,-3.383837,593.7,4,5,234.1,1.406
107.89,1,0.003,0.031,0.001,0.01,0.033,-0.002,-1.545,0.052,-0.574,106.87,114.5,40.495678,-3.383837,593.7,4,5,234.1,1.406
107.99,1,-0.097,-0.02,-0.011,-0.047,0.006,-0.005,-1.544,0.052,-0.574,106.87,114.5,40.495678,-3.383837,593.7,4,5,234.1,1.406
108.09,1,0.019,0.017,0.003,-0.036,0.006,-0.004,-1.542,0.051,-0.574,106.87,114.5,40.495678,-3.383837,593.7,4,5,234.1,1.406
108.19,1,-0.008,0.002,0.013,-0.004,0.008,0.005,-1.543,0.052,-0.574,106.87,114.5,40.495678,-3.383837,593.7,4,5,234.1,1.406
108.29,1,-0.016,-0.006,0.011,-0.02,0.002,0.009,-1.542,0.054,-0.573,106.87,114.5,40.495678,-3.383837,593.7,4,5,234.1,1.406
108.39,1,0.012,0.008,-0.003,0.004,0.006,0.008,-1.543,0.053,-0.572,106.87,114.5,40.495678,-3.383837,593.7,4,5,234.1,1.406
108.5,1,0.01,0.001,0.015,0.002,-0.005,0.005,-1.541,0.058,-0.571,107.88,114.4,40.495522,-3.384142,594.1,4,5,233.8,1.055
108.6,1,0.048,0.013,-0.011,0.033,0.013,0.002,-1.539,0.061,-0.571,107.88,114.4,40.495522,-3.384142,594.1,4,5,233.8,1.055
108.69,1,0.071,0.016,0.005,0.051,0.007,0.0,-1.538,0.062,-0.57,107.88,114.4,40.495522,-3.384142,594.1,4,5,233.8,1.055
108.79,1,-0.086,-0.046,-0.014,-0.004,-0.008,-0.001,-1.538,0.064,-0.569,107.88,114.4,40.495522,-3.384142,594.1,4,5,233.8,1.055
108.89,1,-0.008,0.013,0.01,-0.024,-0.008,-0.001,-1.537,0.062,-0.569,107.88,114.4,40.495522,-3.384142,594.1,4,5,233.8,1.055
108.99,1,-0.014,0.02,-0.005,-0.012,0.01,-0.001,-1.536,0.058,-0.568,107.88,114.4,40.495522,-3.384142,594.1,4,5,233.8,1.055
109.1,1,-0.024,-0.013,-0.005,-0.024,-0.001,-0.006,-1.535,0.057,-0.567,107.88,114.4,40.495522,-3.384142,594.1,4,5,233.8,1.055
109.19,1,0.029,0.009,0.014,-0.002,-0.001,0.001,-1.536,0.055,-0.566,107.88,114.4,40.495522,-3.384142,594.1,4,5,233.8,1.055
109.29,1,-0.013,-0.005,0.019,0.001,0.003,0.016,-1.538,0.054,-0.565,107.88,114.4,40.495522,-3.384142,594.1,4,5,233.8,1.055
109.39,1,-0.015,-0.027,0.004,-0.005,-0.014,0.01,-1.539,0.053,-0.565,107.88,114.4,40.495522,-3.384142,594.1,4,5,233.8,1.055
109.5,1,-0.026,0.001,0.012,-0.016,-0.011,0.01,-1.539,0.051,-0.565,108.89,114.4,40.49535,-3.384444,593.7,4,5,233.8,0.352
109.59,1,-0.076,-0.027,-0.017,-0.043,-0.009,0.001,-1.54,0.049,-0.565,108.89,114.4,40.49535,-3.384444,593.7,4,5,233.8,0.352
109.7,1,-0.029,0.039,-0.007,-0.051,0.002,-0.01,-1.541,0.045,-0.565,108.89,114.4,40.49535,-3.384444,593.7,4,5,233.8,0.352
109.8,1,-0.03,0.018,0.008,-0.037,0.014,0.001,-1.541,0.04,-0.566,108.89,114.4,40.49535,-3.384444,593.7,4,5,233.8,0.352
109.89,1,0.038,0.022,-0.004,-0.003,0.019,-0.003,-1.542,0.035,-0.566,108.89,114.4,40.49535,-3.384444,593.7,4,5,233.8,0.352
109.99,1,0.007,0.025,-0.009,0.017,0.025,-0.008,-1.542,0.03,-0.567,108.89,114.4,40.49535,-3.384444,593.7,4,5,233.8,0.352
110.09,1,-0.041,-0.003,-0.004,-0.015,0.013,-0.001,-1.543,0.03,-0.567,108.89,114.4,40.49535,-3.384444,593.7,4,5,233.8,0.352
110.19,1,-0.084,0.002,0.006,-0.046,0.003,-0.001,-1.543,0.031,-0.567,108.89,114.4,40.49535,-3.384444,593.7,4,5,233.8,0.352
110.29,1,0.034,0.002,-0.002,-0.024,0.005,0.001,-1.543,0.034,-0.567,108.89,114.4,40.49535,-3.384444,593.7,4,5,233.8,0.352
110.39,1,-0.029,-0.015,0.007,-0.012,-0.002,-0.001,-1.541,0.033,-0.567,108.89,114.4,40.49535,-3.384444,593.7,4,5,233.8,0.352
110.49,1,0.005,0.03,0.011,-0.013,0.006,0.009,-1.542,0.033,-0.567,109.87,112.6,40.495171,-3.384761,593.3,4,5,232.7,1.055
110.59,1,0.041,0.027,-0.014,0.03,0.026,-0.001,-1.542,0.037,-0.567,109.87,112.6,40.495171,-3.384761,593.3,4,5,232.7,1.055
110.7,1,-0.048,-0.009,0.007,-0.016,0.008,0.001,-1.542,0.041,-0.567,109.87,112.6,40.495171,-3.384761,593.3,4,5,232.7,1.055
110.8,1,-0.021,-0.005,0.017,-0.011,0.001,0.007,-1.542,0.041,-0.567,109.87,112.6,40.495171,-3.384761,593.3,4,5,232.7,1.055
111.01,1,-0.004,0.014,0.001,-0.01,-0.013,0.005,-1.543,0.04,-0.566,109.87,112.6,40.495171,-3.384761,593.3,4,5,232.7,1.055
111.1,1,-0.012,0.007,0.004,-0.017,0.007,0.0,-1.545,0.039,-0.566,109.87,112.6,40.495171,-3.384761,593.3,4,5,232.7,1.055
111.2,1,0.025,-0.03,0.028,0.002,-0.008,0.022,-1.545,0.038,-0.565,109.87,112.6,40.495171,-3.384761,593.3,4,5,232.7,1.055
111.3,1,0.1,0.029,-0.016,0.06,0.001,-0.002,-1.542,0.04,-0.564,109.87,112.6,40.495171,-3.384761,593.3,4,5,232.7,1.055
111.4,1,-0.015,-0.028,0.005,0.035,-0.007,0.001,-1.544,0.043,-0.564,109.87,112.6,40.495171,-3.384761,593.3,4,5,232.7,1.055
111.51,1,-0.064,-0.02,-0.001,-0.021,-0.016,0.005,-1.545,0.044,-0.563,109.87,112.6,40.495171,-3.384761,593.3,4,5,232.7,1.055
111.6,1,-0.034,-0.016,-0.001,-0.038,-0.022,0.0,-1.543,0.042,-0.562,110.87,112.9,40.495003,-3.385071,593.6,4,5,233.1,0.703
111.7,1,-0.02,-0.006,0.02,-0.023,-0.008,0.004,-1.543,0.041,-0.561,110.87,112.9,40.495003,-3.385071,593.6,4,5,233.1,0.703
111.8,1,-0.024,-0.018,-0.012,-0.029,-0.009,0.006,-1.544,0.041,-0.56,110.87,112.9,40.495003,-3.385071,593.6,4,5,233.1,0.703
111.91,1,0.007,0.016,0.005,-0.011,-0.004,-0.001,-1.545,0.043,-0.559,110.87,112.9,40.495003,-3.385071,593.6,4,5,233.1,0.703
112.0,1,-0.019,-0.015,0.016,-0.005,-0.001,0.006,-1.545,0.045,-0.558,110.87,112.9,40.495003,-3.385071,593.6,4,5,233.1,0.703
112.1,1,0.003,-0.0,0.009,-0.009,-0.009,0.008,-1.546,0.047,-0.556,110.87,112.9,40.495003,-3.385071,593.6,4,5,233.1,0.703
112.21,1,0.017,-0.025,-0.017,0.005,-0.01,0.001,-1.545,0.049,-0.555,110.87,112.9,40.495003,-3.385071,593.6,4,5,233.1,0.703
112.3,1,-0.029,-0.011,-0.003,-0.002,-0.015,-0.007,-1.544,0.05,-0.555,110.87,112.9,40.495003,-3.385071,593.6,4,5,233.1,0.703
112.4,1,-0.064,-0.003,-0.001,-0.038,-0.015,-0.002,-1.545,0.048,-0.554,110.87,112.9,40.495003,-3.385071,593.6,4,5,233.1,0.703
