Timestamp_Accel,SystemActivated,accelerometerXAxis,accelerometerYAxis,accelerometerZAxis,AccelX_KF,AccelY_KF,AccelZ_KF,gyroscopeXAxis,gyroscopeYAxis,gyroscopeZAxis,Timestamp_GPS,Speed,latitude,longitude,Altitude,VerticalAccuracy,HorizontalAccuracy,Course,Difcourse
8.92,1,0.013,0.034,-0.019,0.029,0.026,-0.001,-1.628,0.003,0.317,8.94,95.3,40.505821,-3.361932,604.7,6,5,260.5,0.352
9.03,1,-0.045,-0.028,0.017,-0.007,0.003,0.001,-1.628,0.008,0.319,8.94,95.3,40.505821,-3.361932,604.7,6,5,260.5,0.352
9.12,1,-0.026,-0.015,0.019,-0.028,-0.012,0.015,-1.63,0.012,0.322,8.94,95.3,40.505821,-3.361932,604.7,6,5,260.5,0.352
9.22,1,0.019,0.005,0.008,-0.008,0.002,0.01,-1.629,0.011,0.326,8.94,95.3,40.505821,-3.361932,604.7,6,5,260.5,0.352
9.32,1,-0.014,-0.016,-0.012,-0.009,-0.003,0.004,-1.629,0.011,0.329,8.94,95.3,40.505821,-3.361932,604.7,6,5,260.5,0.352
9.43,1,-0.002,-0.031,0.001,-0.005,-0.022,-0.002,-1.629,0.013,0.333,8.94,95.3,40.505821,-3.361932,604.7,6,5,260.5,0.352
9.53,1,-0.01,-0.0,-0.001,0.004,-0.025,0.0,-1.628,0.014,0.336,8.94,95.3,40.505821,-3.361932,604.7,6,5,260.5,0.352
9.63,1,-0.009,-0.005,-0.005,-0.012,-0.002,-0.003,-1.627,0.014,0.338,8.94,95.3,40.505821,-3.361932,604.7,6,5,260.5,0.352
9.73,1,-0.008,0.006,-0.003,-0.011,0.005,-0.003,-1.628,0.012,0.34,8.94,95.3,40.505821,-3.361932,604.7,6,5,260.5,0.352
9.83,1,-0.048,0.012,0.025,-0.018,0.004,0.009,-1.628,0.014,0.342,8.94,95.3,40.505821,-3.361932,604.7,6,5,260.5,0.352
9.93,1,0.004,0.025,-0.016,-0.021,0.01,0.003,-1.627,0.016,0.344,9.92,97.6,40.505779,-3.362244,605.4,6,5,258.4,2.461
10.03,1,-0.005,0.024,-0.02,0.001,0.024,-0.011,-1.625,0.017,0.347,9.92,97.6,40.505779,-3.362244,605.4,6,5,258.4,2.461
10.13,1,-0.021,0.026,-0.022,-0.02,0.021,-0.019,-1.624,0.017,0.349,9.92,97.6,40.505779,-3.362244,605.4,6,5,258.4,2.461
10.24,1,-0.012,0.026,-0.02,-0.014,0.029,-0.02,-1.622,0.017,0.352,9.92,97.6,40.505779,-3.362244,605.4,6,5,258.4,2.461
10.33,1,-0.051,-0.041,0.009,-0.026,-0.002,-0.01,-1.621,0.02,0.354,9.92,97.6,40.505779,-3.362244,605.4,6,5,258.4,2.461
10.43,1,-0.018,-0.004,-0.004,-0.038,-0.017,-0.001,-1.621,0.021,0.357,9.92,97.6,40.505779,-3.362244,605.4,6,5,258.4,2.461
10.53,1,0.032,0.025,-0.021,0.004,0.002,-0.005,-1.62,0.021,0.359,9.92,97.6,40.505779,-3.362244,605.4,6,5,258.4,2.461
10.63,1,0.013,-0.009,-0.068,0.013,0.008,-0.036,-1.613,0.021,0.361,9.92,97.6,40.505779,-3.362244,605.4,6,5,258.4,2.461
10.73,1,-0.045,-0.0,-0.078,-0.011,0.0,-0.062,-1.607,0.021,0.364,9.92,97.6,40.505779,-3.362244,605.4,6,5,258.4,2.461
10.83,1,0.019,0.01,-0.072,-0.012,0.008,-0.07,-1.6,0.017,0.366,9.92,97.6,40.505779,-3.362244,605.4,6,5,258.4,2.461
10.93,1,0.005,0.007,-0.07,0.006,0.009,-0.072,-1.591,0.017,0.368,10.98,101.8,40.505665,-3.3629,606.4,4,5,255.2,3.164
11.03,1,0.004,0.022,-0.063,0.002,0.006,-0.066,-1.585,0.017,0.371,10.98,101.8,40.505665,-3.3629,606.4,4,5,255.2,3.164
11.13,1,-0.017,0.009,-0.05,-0.002,0.015,-0.062,-1.578,0.018,0.373,10.98,101.8,40.505665,-3.3629,606.4,4,5,255.2,3.164
11.24,1,0.003,-0.008,-0.041,-0.003,0.006,-0.049,-1.575,0.018,0.376,10.98,101.8,40.505665,-3.3629,606.4,4,5,255.2,3.164
11.33,1,-0.032,0.007,-0.032,-0.012,0.002,-0.043,-1.571,0.021,0.378,10.98,101.8,40.505665,-3.3629,606.4,4,5,255.2,3.164
11.43,1,-0.007,-0.009,0.015,-0.017,-0.006,-0.017,-1.571,0.02,0.38,10.98,101.8,40.505665,-3.3629,606.4,4,5,255.2,3.164
11.53,1,-0.032,0.015,0.012,-0.009,0.006,0.009,-1.573,0.019,0.383,10.98,101.8,40.505665,-3.3629,606.4,4,5,255.2,3.164
11.63,1,-0.051,0.029,-0.001,-0.05,0.014,-0.002,-1.573,0.018,0.385,10.98,101.8,40.505665,-3.3629,606.4,4,5,255.2,3.164
11.73,1,0.104,0.051,0.066,0.017,0.034,0.034,-1.575,0.02,0.386,10.98,101.8,40.505665,-3.3629,606.4,4,5,255.2,3.164
11.83,1,0.001,-0.014,0.035,0.027,0.016,0.037,-1.575,0.023,0.388,10.98,101.8,40.505665,-3.3629,606.4,4,5,255.2,3.164
11.94,1,0.014,0.024,0.043,0.018,0.011,0.035,-1.576,0.022,0.39,11.93,101.8,40.505665,-3.3629,606.4,4,5,255.2,3.164
12.04,1,-0.008,0.046,0.035,0.012,0.032,0.043,-1.581,0.018,0.391,11.93,101.8,40.505665,-3.3629,606.4,4,5,255.2,3.164
12.13,1,-0.038,0.004,0.028,-0.014,0.023,0.032,-1.584,0.018,0.393,11.93,101.8,40.505665,-3.3629,606.4,4,5,255.2,3.164
12.23,1,-0.052,0.028,0.027,-0.034,0.018,0.028,-1.587,0.016,0.394,11.93,101.8,40.505665,-3.3629,606.4,4,5,255.2,3.164
12.33,1,0.003,0.023,0.033,-0.025,0.021,0.03,-1.588,0.014,0.395,11.93,101.8,40.505665,-3.3629,606.4,4,5,255.2,3.164
12.43,1,-0.009,-0.013,0.016,-0.015,0.008,0.026,-1.589,0.015,0.396,11.93,101.8,40.505665,-3.3629,606.4,4,5,255.2,3.164
12.53,1,0.018,0.013,0.034,-0.001,0.008,0.023,-1.592,0.011,0.397,11.93,101.8,40.505665,-3.3629,606.4,4,5,255.2,3.164
12.64,1,0.009,0.004,0.035,0.01,0.009,0.033,-1.594,0.012,0.399,11.93,101.8,40.505665,-3.3629,606.4,4,5,255.2,3.164
12.74,1,0.032,0.006,0.012,0.021,0.006,0.025,-1.593,0.012,0.4,11.93,101.8,40.505665,-3.3629,606.4,4,5,255.2,3.164
12.84,1,-0.032,-0.012,0.031,0.006,0.0,0.023,-1.593,0.012,0.402,11.93,101.8,40.505665,-3.3629,606.4,4,5,255.2,3.164
12.94,1,-0.024,-0.025,0.016,-0.023,-0.013,0.021,-1.596,0.013,0.404,12.99,101.9,40.50552,-3.363543,607.0,4,5,252.1,3.164
13.04,1,-0.037,-0.019,0.031,-0.027,-0.017,0.028,-1.597,0.016,0.407,12.99,101.9,40.50552,-3.363543,607.0,4,5,252.1,3.164
13.14,1,-0.013,-0.003,0.011,-0.025,-0.018,0.021,-1.599,0.017,0.41,12.99,101.9,40.50552,-3.363543,607.0,4,5,252.1,3.164
13.24,1,0.017,-0.011,0.036,0.0,-0.005,0.023,-1.601,0.02,0.412,12.99,101.9,40.50552,-3.363543,607.0,4,5,252.1,3.164
13.34,1,0.049,0.005,0.034,0.018,-0.004,0.033,-1.605,0.021,0.415,12.99,101.9,40.50552,-3.363543,607.0,4,5,252.1,3.164
13.44,1,0.009,0.008,0.002,0.028,0.005,0.021,-1.606,0.022,0.417,12.99,101.9,40.50552,-3.363543,607.0,4,5,252.1,3.164
13.54,1,-0.033,-0.013,0.015,-0.005,-0.01,0.01,-1.607,0.025,0.419,12.99,101.9,40.50552,-3.363543,607.0,4,5,252.1,3.164
13.65,1,-0.004,-0.015,0.037,-0.009,-0.01,0.024,-1.61,0.026,0.422,12.99,101.9,40.50552,-3.363543,607.0,4,5,252.1,3.164
13.74,1,-0.008,-0.018,-0.002,-0.013,-0.008,0.016,-1.61,0.027,0.424,12.99,101.9,40.50552,-3.363543,607.0,4,5,252.1,3.164
13.85,1,0.047,0.004,0.002,0.016,-0.007,0.006,-1.61,0.027,0.426,12.99,101.9,40.50552,-3.363543,607.0,4,5,252.1,3.164
13.94,1,0.002,-0.011,0.011,0.018,-0.012,0.005,-1.612,0.026,0.428,14.01,105.3,40.505436,-3.36387,607.4,4,5,250.3,3.164
14.04,1,0.007,0.008,0.013,0.011,-0.001,0.014,-1.613,0.025,0.43,14.01,105.3,40.505436,-3.36387,607.4,4,5,250.3,3.164
14.14,1,-0.041,-0.015,0.012,-0.008,0.003,0.009,-1.614,0.026,0.432,14.01,105.3,40.505436,-3.36387,607.4,4,5,250.3,3.164
14.24,1,-0.013,-0.01,0.016,-0.022,-0.012,0.017,-1.615,0.025,0.434,14.01,105.3,40.505436,-3.36387,607.4,4,5,250.3,3.164
14.35,1,-0.023,0.014,-0.005,-0.017,-0.004,0.004,-1.615,0.025,0.436,14.01,105.3,40.505436,-3.36387,607.4,4,5,250.3,3.164
14.45,1,-0.026,-0.006,0.016,-0.025,0.004,0.009,-1.617,0.022,0.438,14.01,105.3,40.505436,-3.36387,607.4,4,5,250.3,3.164
14.54,1,-0.029,-0.051,-0.008,-0.023,-0.019,0.003,-1.617,0.022,0.44,14.01,105.3,40.505436,-3.36387,607.4,4,5,250.3,3.164
14.64,1,0.035,-0.043,0.029,-0.005,-0.039,0.01,-1.62,0.023,0.442,14.01,105.3,40.505436,-3.36387,607.4,4,5,250.3,3.164
14.74,1,0.065,-0.009,0.001,0.034,-0.03,0.013,-1.62,0.022,0.444,14.01,105.3,40.505436,-3.36387,607.4,4,5,250.3,3.164
14.85,1,-0.048,-0.032,-0.012,0.009,-0.024,-0.002,-1.619,0.024,0.448,14.01,105.3,40.505436,-3.36387,607.4,4,5,250.3,3.164
14.94,1,-0.027,-0.008,0.001,-0.024,-0.021,-0.005,-1.62,0.026,0.451,14.99,107.5,40.505341,-3.3642,608.9,4,5,248.9,3.516
15.05,1,-0.057,-0.063,0.013,-0.034,-0.033,0.006,-1.621,0.03,0.454,14.99,107.5,40.505341,-3.3642,608.9,4,5,248.9,3.516
15.14,1,-0.023,-0.06,-0.003,-0.037,-0.053,0.004,-1.622,0.034,0.458,14.99,107.5,40.505341,-3.3642,608.9,4,5,248.9,3.516
15.24,1,0.004,-0.059,0.001,-0.015,-0.058,0.001,-1.621,0.038,0.461,14.99,107.5,40.505341,-3.3642,608.9,4,5,248.9,3.516
15.35,1,0.011,-0.039,0.0,0.001,-0.051,-0.002,-1.62,0.043,0.465,14.99,107.5,40.505341,-3.3642,608.9,4,5,248.9,3.516
15.45,1,-0.004,-0.033,-0.007,0.001,-0.039,0.0,-1.62,0.045,0.468,14.99,107.5,40.505341,-3.3642,608.9,4,5,248.9,3.516
15.55,1,-0.028,-0.062,-0.008,-0.007,-0.045,-0.003,-1.619,0.046,0.472,14.99,107.5,40.505341,-3.3642,608.9,4,5,248.9,3.516
15.65,1,-0.014,-0.042,0.012,-0.02,-0.05,-0.001,-1.619,0.049,0.475,14.99,107.5,40.505341,-3.3642,608.9,4,5,248.9,3.516
15.75,1,0.001,-0.048,-0.017,-0.013,-0.046,-0.002,-1.62,0.051,0.478,14.99,107.5,40.505341,-3.3642,608.9,4,5,248.9,3.516
15.85,1,0.006,-0.028,-0.012,0.007,-0.039,-0.015,-1.62,0.052,0.482,14.99,107.5,40.505341,-3.3642,608.9,4,5,248.9,3.516
15.95,1,-0.039,-0.025,-0.001,-0.015,-0.027,-0.006,-1.62,0.053,0.485,15.93,107.5,40.505341,-3.3642,608.9,4,5,248.9,3.164
16.05,1,-0.033,-0.041,0.015,-0.031,-0.034,0.004,-1.621,0.053,0.488,15.93,107.5,40.505341,-3.3642,608.9,4,5,248.9,3.164
16.15,1,-0.005,-0.062,-0.016,-0.022,-0.052,-0.001,-1.621,0.056,0.491,15.93,107.5,40.505341,-3.3642,608.9,4,5,248.9,3.164
16.26,1,-0.004,-0.001,-0.004,-0.008,-0.034,-0.003,-1.621,0.054,0.494,15.93,107.5,40.505341,-3.3642,608.9,4,5,248.9,3.164
16.35,1,0.019,0.016,0.013,-0.003,-0.005,-0.002,-1.621,0.051,0.497,15.93,107.5,40.505341,-3.3642,608.9,4,5,248.9,3.164
16.45,1,0.016,-0.013,-0.002,0.017,-0.006,0.006,-1.621,0.05,0.499,15.93,107.5,40.505341,-3.3642,608.9,4,5,248.9,3.164
16.55,1,-0.035,-0.014,-0.019,-0.003,-0.001,-0.007,-1.619,0.048,0.501,15.93,107.5,40.505341,-3.3642,608.9,4,5,248.9,3.164
16.65,1,-0.035,0.023,0.007,-0.021,0.004,-0.005,-1.619,0.047,0.503,15.93,107.5,40.505341,-3.3642,608.9,4,5,248.9,3.164
16.75,1,-0.005,0.029,-0.007,-0.023,0.015,-0.005,-1.618,0.045,0.505,15.93,107.5,40.505341,-3.3642,608.9,4,5,248.9,3.164
16.85,1,0.008,0.018,-0.012,-0.006,0.023,-0.006,-1.615,0.041,0.506,15.93,107.5,40.505341,-3.3642,608.9,4,5,248.9,3.164
16.95,1,0.039,0.019,0.007,0.017,0.016,-0.001,-1.613,0.038,0.508,16.97,109.1,40.505234,-3.364536,608.2,4,5,245.7,4.57
17.05,1,-0.03,0.032,0.002,0.004,0.028,-0.001,-1.612,0.037,0.51,16.97,109.1,40.505234,-3.364536,608.2,4,5,245.7,4.57
17.15,1,-0.071,-0.003,0.006,-0.036,0.01,0.004,-1.613,0.037,0.512,16.97,109.1,40.505234,-3.364536,608.2,4,5,245.7,4.57
17.26,1,-0.023,0.004,0.012,-0.041,0.002,0.009,-1.614,0.037,0.513,16.97,109.1,40.505234,-3.364536,608.2,4,5,245.7,4.57
17.35,1,0.025,0.05,0.017,-0.015,0.027,0.014,-1.615,0.035,0.514,16.97,109.1,40.505234,-3.364536,608.2,4,5,245.7,4.57
17.45,1,0.046,0.032,0.007,0.025,0.035,0.008,-1.616,0.035,0.515,16.97,109.1,40.505234,-3.364536,608.2,4,5,245.7,4.57
17.55,1,-0.001,0.007,0.035,0.025,0.022,0.024,-1.618,0.036,0.516,16.97,109.1,40.505234,-3.364536,608.2,4,5,245.7,4.57
17.65,1,0.004,0.039,-0.0,0.001,0.021,0.02,-1.619,0.037,0.517,16.97,109.1,40.505234,-3.364536,608.2,4,5,245.7,4.57
17.75,1,-0.017,0.032,-0.002,0.001,0.038,-0.001,-1.617,0.035,0.518,16.97,109.1,40.505234,-3.364536,608.2,4,5,245.7,4.57
17.85,1,-0.089,0.037,0.007,-0.054,0.033,0.003,-1.616,0.032,0.518,16.97,109.1,40.505234,-3.364536,608.2,4,5,245.7,4.57
17.95,1,-0.06,0.054,-0.002,-0.048,0.04,0.004,-1.616,0.031,0.519,17.94,111.7,40.505116,-3.364861,608.7,4,5,243.3,5.625
18.15,1,-0.02,0.014,0.003,0.016,0.036,-0.007,-1.615,0.029,0.52,17.94,111.7,40.505116,-3.364861,608.7,4,5,243.3,5.625
18.25,1,-0.064,0.057,-0.001,-0.03,0.042,0.003,-1.614,0.031,0.52,17.94,111.7,40.505116,-3.364861,608.7,4,5,243.3,5.625
18.36,1,0.001,0.049,0.015,-0.023,0.044,0.006,-1.615,0.028,0.52,17.94,111.7,40.505116,-3.364861,608.7,4,5,243.3,5.625
18.46,1,-0.025,0.044,-0.001,-0.024,0.044,0.009,-1.615,0.026,0.521,17.94,111.7,40.505116,-3.364861,608.7,4,5,243.3,5.625
18.56,1,0.026,0.001,0.016,-0.016,0.026,-0.001,-1.616,0.027,0.521,17.94,111.7,40.505116,-3.364861,608.7,4,5,243.3,5.625
18.66,1,-0.026,0.013,-0.011,0.008,0.018,0.008,-1.615,0.028,0.522,17.94,111.7,40.505116,-3.364861,608.7,4,5,243.3,5.625
18.76,1,-0.039,0.006,0.004,-0.021,0.016,-0.003,-1.611,0.027,0.522,17.94,111.7,40.505116,-3.364861,608.7,4,5,243.3,5.625
18.86,1,-0.015,0.014,0.015,-0.016,0.01,0.01,-1.612,0.027,0.524,17.94,111.7,40.505116,-3.364861,608.7,4,5,243.3,5.625
18.96,1,-0.068,0.031,-0.001,-0.048,0.019,0.004,-1.612,0.028,0.525,17.94,111.7,40.505116,-3.364861,608.7,4,5,243.3,5.625
19.06,1,0.063,0.019,-0.012,-0.006,0.021,-0.002,-1.611,0.027,0.526,18.97,112.6,40.504982,-3.365192,609.1,4,5,241.9,3.867
19.16,1,0.026,-0.005,0.006,0.025,0.015,-0.002,-1.611,0.028,0.526,18.97,112.6,40.504982,-3.365192,609.1,4,5,241.9,3.867
19.26,1,0.021,0.007,0.041,0.021,0.005,0.019,-1.612,0.027,0.527,18.97,112.6,40.504982,-3.365192,609.1,4,5,241.9,3.867
19.36,1,0.008,-0.003,0.008,0.027,0.002,0.016,-1.613,0.029,0.528,18.97,112.6,40.504982,-3.365192,609.1,4,5,241.9,3.867
19.46,1,-0.083,-0.013,0.039,-0.031,-0.006,0.027,-1.616,0.032,0.529,18.97,112.6,40.504982,-3.365192,609.1,4,5,241.9,3.867
19.56,1,0.006,0.036,-0.006,-0.026,0.009,0.015,-1.617,0.033,0.53,18.97,112.6,40.504982,-3.365192,609.1,4,5,241.9,3.867
19.67,1,-0.008,0.046,-0.003,-0.012,0.027,0.004,-1.615,0.035,0.53,18.97,112.6,40.504982,-3.365192,609.1,4,5,241.9,3.867
19.76,1,-0.042,0.016,-0.003,-0.02,0.029,-0.0,-1.615,0.036,0.531,18.97,112.6,40.504982,-3.365192,609.1,4,5,241.9,3.867
19.87,1,-0.026,0.022,0.018,-0.035,0.024,0.006,-1.616,0.037,0.531,18.97,112.6,40.504982,-3.365192,609.1,4,5,241.9,3.867
19.96,1,-0.0,0.018,0.012,-0.014,0.021,0.011,-1.618,0.038,0.531,18.97,112.6,40.504982,-3.365192,609.1,4,5,241.9,3.867
20.06,1,-0.02,0.027,-0.008,-0.019,0.025,0.003,-1.617,0.039,0.531,19.97,116.1,40.504841,-3.36553,608.7,4,5,240.8,2.461
20.16,1,0.045,-0.007,0.027,0.01,0.008,0.011,-1.618,0.044,0.532,19.97,116.1,40.504841,-3.36553,608.7,4,5,240.8,2.461
20.26,1,0.01,0.064,0.0,0.021,0.033,0.014,-1.617,0.048,0.532,19.97,116.1,40.504841,-3.36553,608.7,4,5,240.8,2.461
20.36,1,-0.047,0.022,-0.013,-0.015,0.028,-0.002,-1.617,0.051,0.532,19.97,116.1,40.504841,-3.36553,608.7,4,5,240.8,2.461
20.46,1,-0.044,0.027,0.013,-0.035,0.026,0.002,-1.617,0.051,0.532,19.97,116.1,40.504841,-3.36553,608.7,4,5,240.8,2.461
20.56,1,0.014,0.018,0.001,-0.013,0.03,0.003,-1.615,0.047,0.531,19.97,116.1,40.504841,-3.36553,608.7,4,5,240.8,2.461
20.66,1,-0.011,0.058,-0.016,-0.005,0.036,-0.003,-1.615,0.052,0.532,19.97,116.1,40.504841,-3.36553,608.7,4,5,240.8,2.461
20.77,1,-0.046,-0.026,-0.017,-0.027,0.011,-0.017,-1.615,0.057,0.532,19.97,116.1,40.504841,-3.36553,608.7,4,5,240.8,2.461
20.87,1,0.022,0.042,0.017,-0.009,0.017,0.001,-1.618,0.055,0.532,19.97,116.1,40.504841,-3.36553,608.7,4,5,240.8,2.461
20.97,1,-0.016,0.008,0.007,-0.002,0.022,0.007,-1.617,0.057,0.531,19.97,116.1,40.504841,-3.36553,608.7,4,5,240.8,2.461
21.07,1,0.011,0.019,0.011,-0.009,0.023,0.008,-1.616,0.059,0.531,20.93,118.2,40.504684,-3.365855,609.1,4,5,239.4,2.461
21.16,1,-0.013,0.056,-0.022,0.01,0.022,-0.003,-1.616,0.062,0.531,20.93,118.2,40.504684,-3.365855,609.1,4,5,239.4,2.461
21.26,1,-0.003,0.006,0.01,-0.01,0.028,-0.003,-1.615,0.061,0.53,20.93,118.2,40.504684,-3.365855,609.1,4,5,239.4,2.461
21.37,1,0.026,0.062,0.008,0.006,0.035,0.004,-1.613,0.055,0.529,20.93,118.2,40.504684,-3.365855,609.1,4,5,239.4,2.461
21.47,1,-0.004,0.007,-0.02,0.007,0.028,-0.004,-1.613,0.054,0.528,20.93,118.2,40.504684,-3.365855,609.1,4,5,239.4,2.461
21.57,1,-0.02,0.051,-0.005,-0.015,0.038,-0.008,-1.613,0.054,0.527,20.93,118.2,40.504684,-3.365855,609.1,4,5,239.4,2.461
21.67,1,0.004,0.067,0.02,-0.0,0.053,0.002,-1.612,0.049,0.525,20.93,118.2,40.504684,-3.365855,609.1,4,5,239.4,2.461
21.77,1,0.025,0.043,-0.028,0.006,0.056,-0.002,-1.609,0.045,0.524,20.93,118.2,40.504684,-3.365855,609.1,4,5,239.4,2.461
21.87,1,-0.038,0.052,0.02,0.002,0.05,-0.007,-1.607,0.042,0.523,20.93,118.2,40.504684,-3.365855,609.1,4,5,239.4,2.461
21.97,1,0.0,-0.016,0.025,-0.011,0.02,0.02,-1.606,0.043,0.521,20.93,118.2,40.504684,-3.365855,609.1,4,5,239.4,2.461
22.07,1,-0.013,0.071,0.016,-0.019,0.034,0.012,-1.605,0.045,0.519,21.92,120.6,40.504528,-3.366187,609.8,4,5,238.0,2.812
22.17,1,0.019,0.043,0.012,0.004,0.042,0.017,-1.608,0.048,0.518,21.92,120.6,40.504528,-3.366187,609.8,4,5,238.0,2.812
22.27,1,-0.013,-0.011,0.017,0.0,0.023,0.018,-1.609,0.05,0.517,21.92,120.6,40.504528,-3.366187,609.8,4,5,238.0,2.812
22.37,1,-0.02,0.026,0.016,-0.006,0.012,0.019,-1.611,0.049,0.515,21.92,120.6,40.504528,-3.366187,609.8,4,5,238.0,2.812
22.47,1,-0.019,0.059,0.016,-0.015,0.039,0.011,-1.609,0.047,0.513,21.92,120.6,40.504528,-3.366187,609.8,4,5,238.0,2.812
22.57,1,0.036,0.031,0.008,0.003,0.048,0.013,-1.609,0.045,0.511,21.92,120.6,40.504528,-3.366187,609.8,4,5,238.0,2.812
22.67,1,-0.043,0.047,-0.006,-0.008,0.047,0.003,-1.609,0.045,0.509,21.92,120.6,40.504528,-3.366187,609.8,4,5,238.0,2.812
22.77,1,-0.05,0.033,0.001,-0.028,0.027,0.004,-1.607,0.047,0.507,21.92,120.6,40.504528,-3.366187,609.8,4,5,238.0,2.812
22.87,1,0.025,0.003,0.028,-0.015,0.024,0.011,-1.608,0.045,0.505,21.92,120.6,40.504528,-3.366187,609.8,4,5,238.0,2.812
22.97,1,-0.016,0.081,0.005,0.003,0.044,0.011,-1.608,0.045,0.502,21.92,120.6,40.504528,-3.366187,609.8,4,5,238.0,2.812
23.07,1,0.043,0.018,0.022,0.003,0.041,0.013,-1.607,0.046,0.5,22.94,122.2,40.504345,-3.366546,609.4,4,5,237.7,1.758
23.17,1,0.01,0.03,-0.001,0.014,0.036,0.011,-1.606,0.049,0.498,22.94,122.2,40.504345,-3.366546,609.4,4,5,237.7,1.758
23.28,1,-0.057,0.063,0.014,-0.01,0.032,0.01,-1.606,0.05,0.496,22.94,122.2,40.504345,-3.366546,609.4,4,5,237.7,1.758
23.37,1,-0.038,-0.003,0.024,-0.029,0.031,0.016,-1.605,0.05,0.494,22.94,122.2,40.504345,-3.366546,609.4,4,5,237.7,1.758
23.47,1,0.041,0.048,-0.016,-0.009,0.043,0.001,-1.604,0.051,0.492,22.94,122.2,40.504345,-3.366546,609.4,4,5,237.7,1.758
23.57,1,0.026,0.024,-0.009,0.022,0.016,-0.005,-1.605,0.052,0.491,22.94,122.2,40.504345,-3.366546,609.4,4,5,237.7,1.758
23.67,1,0.002,-0.052,0.012,0.019,-0.005,0.008,-1.605,0.05,0.49,22.94,122.2,40.504345,-3.366546,609.4,4,5,237.7,1.758
23.78,1,0.012,-0.019,0.01,-0.003,-0.013,0.008,-1.604,0.049,0.488,22.94,122.2,40.504345,-3.366546,609.4,4,5,237.7,1.758
23.88,1,0.014,0.044,0.012,0.013,0.01,0.004,-1.603,0.048,0.487,22.94,122.2,40.504345,-3.366546,609.4,4,5,237.7,1.758
23.97,1,-0.031,-0.019,0.024,-0.002,0.007,0.017,-1.603,0.048,0.486,22.94,122.2,40.504345,-3.366546,609.4,4,5,237.7,1.758
24.08,1,-0.004,-0.01,-0.006,-0.011,-0.014,0.008,-1.604,0.042,0.485,23.99,128.2,40.504002,-3.367247,609.5,4,5,236.5,0.557
24.17,1,0.049,-0.033,-0.011,0.011,-0.016,-0.004,-1.604,0.04,0.483,23.99,128.2,40.504002,-3.367247,609.5,4,5,236.5,0.557
24.27,1,-0.021,0.079,-0.013,0.001,0.016,-0.006,-1.604,0.04,0.482,23.99,128.2,40.504002,-3.367247,609.5,4,5,236.5,0.557
24.37,1,-0.023,0.034,0.011,-0.0,0.026,-0.002,-1.604,0.039,0.481,23.99,128.2,40.504002,-3.367247,609.5,4,5,236.5,0.557
24.48,1,0.005,-0.016,-0.01,-0.004,0.014,-0.003,-1.604,0.039,0.479,23.99,128.2,40.504002,-3.367247,609.5,4,5,236.5,0.557
24.58,1,0.007,0.009,0.005,0.003,0.017,0.001,-1.602,0.039,0.478,23.99,128.2,40.504002,-3.367247,609.5,4,5,236.5,0.557
24.69,1,0.025,-0.012,-0.017,0.01,-0.001,-0.008,-1.601,0.04,0.476,23.99,128.2,40.504002,-3.367247,609.5,4,5,236.5,0.557
24.78,1,0.008,-0.015,0.005,0.007,-0.005,-0.001,-1.603,0.042,0.475,23.99,128.2,40.504002,-3.367247,609.5,4,5,236.5,0.557
24.88,1,-0.023,0.02,-0.032,-0.005,-0.001,-0.015,-1.602,0.046,0.474,23.99,128.2,40.504002,-3.367247,609.5,4,5,236.5,0.557
24.98,1,-0.005,0.032,-0.003,-0.009,0.012,-0.012,-1.601,0.042,0.472,23.99,128.2,40.504002,-3.367247,609.5,4,5,236.5,0.557
25.08,1,0.015,0.014,0.004,0.01,0.021,-0.006,-1.601,0.036,0.47,24.95,128.2,40.504002,-3.367247,609.5,4,5,236.5,1.667
25.18,1,-0.026,0.002,-0.001,-0.004,0.012,0.001,-1.602,0.032,0.468,24.95,128.2,40.504002,-3.367247,609.5,4,5,236.5,1.667
25.29,1,-0.016,0.031,0.011,-0.019,0.02,-0.0,-1.601,0.025,0.465,24.95,128.2,40.504002,-3.367247,609.5,4,5,236.5,1.667
25.38,1,0.025,0.037,-0.008,0.004,0.027,0.004,-1.603,0.027,0.463,24.95,128.2,40.504002,-3.367247,609.5,4,5,236.5,1.667
25.48,1,-0.012,0.017,-0.008,-0.003,0.031,-0.009,-1.601,0.025,0.461,24.95,128.2,40.504002,-3.367247,609.5,4,5,236.5,1.667
25.58,1,0.042,0.023,0.006,0.004,0.027,0.006,-1.598,0.025,0.459,24.95,128.2,40.504002,-3.367247,609.5,4,5,236.5,1.667
25.68,1,-0.006,0.009,-0.021,0.021,0.015,-0.01,-1.595,0.027,0.457,24.95,128.2,40.504002,-3.367247,609.5,4,5,236.5,1.667
25.78,1,-0.022,-0.027,-0.017,-0.005,-0.007,-0.016,-1.592,0.03,0.455,24.95,128.2,40.504002,-3.367247,609.5,4,5,236.5,1.667
25.89,1,0.025,0.009,-0.022,0.003,-0.005,-0.016,-1.592,0.025,0.453,24.95,128.2,40.504002,-3.367247,609.5,4,5,236.5,1.667
25.98,1,-0.035,0.028,-0.029,-0.003,0.008,-0.021,-1.59,0.022,0.451,24.95,128.2,40.504002,-3.367247,609.5,4,5,236.5,1.667
26.08,1,-0.034,-0.0,-0.011,-0.026,0.009,-0.025,-1.59,0.019,0.449,26.02,129.7,40.503822,-3.367608,609.4,4,5,236.5,1.667
26.18,1,0.025,0.034,-0.002,-0.009,0.025,-0.005,-1.59,0.018,0.447,26.02,129.7,40.503822,-3.367608,609.4,4,5,236.5,1.667
26.29,1,-0.001,-0.03,-0.027,0.011,0.005,-0.017,-1.59,0.019,0.446,26.02,129.7,40.503822,-3.367608,609.4,4,5,236.5,1.667
26.38,1,-0.034,-0.031,-0.017,-0.018,-0.017,-0.018,-1.59,0.017,0.444,26.02,129.7,40.503822,-3.367608,609.4,4,5,236.5,1.667
26.49,1,-0.057,0.001,-0.006,-0.041,-0.017,-0.016,-1.591,0.015,0.442,26.02,129.7,40.503822,-3.367608,609.4,4,5,236.5,1.667
26.59,1,-0.061,-0.028,0.004,-0.046,-0.009,-0.006,-1.592,0.014,0.441,26.02,129.7,40.503822,-3.367608,609.4,4,5,236.5,1.667
26.68,1,0.058,-0.108,0.04,-0.011,-0.063,0.017,-1.59,0.013,0.44,26.02,129.7,40.503822,-3.367608,609.4,4,5,236.5,1.667
26.78,1,0.134,-0.002,-0.073,0.079,-0.044,-0.014,-1.588,0.01,0.439,26.02,129.7,40.503822,-3.367608,609.4,4,5,236.5,1.667
26.88,1,0.05,0.018,-0.003,0.084,-0.007,-0.019,-1.589,0.007,0.437,26.02,129.7,40.503822,-3.367608,609.4,4,5,236.5,1.667
26.98,1,-0.152,-0.046,0.01,-0.023,-0.02,-0.009,-1.585,0.002,0.434,26.02,129.7,40.503822,-3.367608,609.4,4,5,236.5,1.667
27.09,1,-0.041,-0.029,-0.019,-0.069,-0.032,-0.005,-1.583,-0.001,0.432,26.92,130.4,40.503643,-3.367971,608.7,4,5,236.5,0.0
27.18,1,-0.061,0.026,-0.042,-0.056,-0.001,-0.027,-1.579,-0.004,0.431,26.92,130.4,40.503643,-3.367971,608.7,4,5,236.5,0.0
27.28,1,-0.095,-0.034,0.002,-0.081,-0.011,-0.018,-1.579,0.001,0.429,26.92,130.4,40.503643,-3.367971,608.7,4,5,236.5,0.0
27.39,1,-0.029,-0.011,0.001,-0.067,-0.019,-0.004,-1.581,-0.003,0.427,26.92,130.4,40.503643,-3.367971,608.7,4,5,236.5,0.0
27.49,1,-0.041,-0.037,0.014,-0.045,-0.024,0.003,-1.583,-0.001,0.426,26.92,130.4,40.503643,-3.367971,608.7,4,5,236.5,0.0
27.59,1,0.007,-0.018,-0.012,-0.025,-0.029,0.002,-1.584,-0.003,0.424,26.92,130.4,40.503643,-3.367971,608.7,4,5,236.5,0.0
27.69,1,-0.03,-0.018,-0.002,-0.011,-0.019,-0.004,-1.583,-0.002,0.422,26.92,130.4,40.503643,-3.367971,608.7,4,5,236.5,0.0
27.79,1,-0.057,-0.008,-0.009,-0.032,-0.009,-0.005,-1.583,0.0,0.42,26.92,130.4,40.503643,-3.367971,608.7,4,5,236.5,0.0
27.89,1,-0.083,-0.032,-0.011,-0.063,-0.025,-0.01,-1.583,-0.002,0.418,26.92,130.4,40.503643,-3.367971,608.7,4,5,236.5,0.0
27.99,1,-0.059,0.004,-0.02,-0.067,-0.012,-0.015,-1.582,-0.001,0.416,26.92,130.4,40.503643,-3.367971,608.7,4,5,236.5,0.0
28.09,1,-0.056,0.002,-0.015,-0.058,-0.001,-0.019,-1.582,-0.002,0.414,27.98,133.7,40.503273,-3.368702,607.8,4,5,237.5,0.959
28.19,1,-0.053,0.023,-0.003,-0.059,0.007,-0.007,-1.583,-0.004,0.411,27.98,133.7,40.503273,-3.368702,607.8,4,5,237.5,0.959
28.3,1,-0.042,0.012,-0.007,-0.051,0.011,-0.006,-1.583,-0.005,0.409,27.98,133.7,40.503273,-3.368702,607.8,4,5,237.5,0.959
28.39,1,-0.031,0.01,0.002,-0.044,0.011,-0.005,-1.583,-0.007,0.407,27.98,133.7,40.503273,-3.368702,607.8,4,5,237.5,0.959
28.49,1,-0.01,-0.022,-0.012,-0.028,-0.004,-0.003,-1.583,-0.003,0.405,27.98,133.7,40.503273,-3.368702,607.8,4,5,237.5,0.959
28.59,1,-0.018,-0.021,-0.029,-0.017,-0.018,-0.02,-1.58,-0.001,0.404,27.98,133.7,40.503273,-3.368702,607.8,4,5,237.5,0.959
28.69,1,-0.028,-0.0,-0.014,-0.024,-0.01,-0.013,-1.58,-0.001,0.402,27.98,133.7,40.503273,-3.368702,607.8,4,5,237.5,0.959
28.79,1,-0.017,-0.021,-0.01,-0.029,-0.007,-0.014,-1.576,-0.003,0.4,27.98,133.7,40.503273,-3.368702,607.8,4,5,237.5,0.959
28.9,1,0.025,0.008,0.005,0.003,-0.008,-0.008,-1.575,-0.003,0.398,27.98,133.7,40.503273,-3.368702,607.8,4,5,237.5,0.959
28.99,1,0.021,0.011,-0.011,0.022,0.001,-0.002,-1.577,-0.004,0.395,27.98,133.7,40.503273,-3.368702,607.8,4,5,237.5,0.959
29.09,1,-0.022,0.005,-0.021,0.001,0.008,-0.014,-1.575,-0.006,0.393,28.93,133.7,40.503273,-3.368702,607.8,4,5,237.5,0.959
29.19,1,-0.02,0.016,-0.063,-0.014,0.008,-0.033,-1.571,-0.007,0.391,28.93,133.7,40.503273,-3.368702,607.8,4,5,237.5,0.959
29.3,1,-0.053,-0.003,-0.053,-0.031,0.006,-0.052,-1.564,-0.007,0.388,28.93,133.7,40.503273,-3.368702,607.8,4,5,237.5,0.959
29.39,1,0.021,0.019,-0.052,-0.016,0.01,-0.049,-1.56,-0.009,0.386,28.93,133.7,40.503273,-3.368702,607.8,4,5,237.5,0.959
29.5,1,0.005,-0.013,-0.059,0.006,0.004,-0.054,-1.557,-0.01,0.385,28.93,133.7,40.503273,-3.368702,607.8,4,5,237.5,0.959
29.59,1,-0.013,-0.027,-0.027,-0.009,-0.013,-0.046,-1.552,-0.009,0.384,28.93,133.7,40.503273,-3.368702,607.8,4,5,237.5,0.959
29.69,1,0.014,-0.019,-0.022,0.004,-0.019,-0.029,-1.551,-0.006,0.382,28.93,133.7,40.503273,-3.368702,607.8,4,5,237.5,0.959
29.79,1,-0.03,-0.034,-0.036,-0.01,-0.022,-0.035,-1.548,-0.006,0.381,28.93,133.7,40.503273,-3.368702,607.8,4,5,237.5,0.959
29.9,1,0.022,-0.036,-0.021,0.001,-0.031,-0.026,-1.546,-0.004,0.381,28.93,133.7,40.503273,-3.368702,607.8,4,5,237.5,0.959
30.0,1,0.02,-0.03,-0.034,0.016,-0.027,-0.032,-1.544,-0.002,0.38,28.93,133.7,40.503273,-3.368702,607.8,4,5,237.5,0.959
30.1,1,-0.004,-0.04,0.001,0.008,-0.038,-0.018,-1.543,-0.001,0.379,29.93,134.2,40.503098,-3.369068,608.2,4,5,237.5,0.0
30.21,1,-0.018,-0.022,0.006,-0.006,-0.03,-0.005,-1.544,-0.0,0.378,29.93,134.2,40.503098,-3.369068,608.2,4,5,237.5,0.0
30.29,1,-0.033,-0.052,0.04,-0.02,-0.037,0.016,-1.546,0.001,0.377,29.93,134.2,40.503098,-3.369068,608.2,4,5,237.5,0.0
30.39,1,0.008,-0.028,-0.003,-0.012,-0.045,0.017,-1.548,0.003,0.376,29.93,134.2,40.503098,-3.369068,608.2,4,5,237.5,0.0
30.5,1,-0.03,-0.032,-0.008,-0.008,-0.028,-0.004,-1.545,0.004,0.376,29.93,134.2,40.503098,-3.369068,608.2,4,5,237.5,0.0
30.6,1,-0.026,-0.022,0.003,-0.024,-0.04,0.003,-1.546,0.007,0.375,29.93,134.2,40.503098,-3.369068,608.2,4,5,237.5,0.0
30.71,1,0.005,-0.031,-0.014,-0.012,-0.018,-0.003,-1.544,0.01,0.374,29.93,134.2,40.503098,-3.369068,608.2,4,5,237.5,0.0
30.8,1,-0.036,-0.082,-0.007,-0.019,-0.054,-0.008,-1.545,0.008,0.374,29.93,134.2,40.503098,-3.369068,608.2,4,5,237.5,0.0
30.9,1,-0.029,-0.052,-0.002,-0.032,-0.053,-0.009,-1.545,0.01,0.373,29.93,134.2,40.503098,-3.369068,608.2,4,5,237.5,0.0
31.0,1,-0.012,-0.033,-0.004,-0.019,-0.046,0.003,-1.547,0.009,0.373,29.93,134.2,40.503098,-3.369068,608.2,4,5,237.5,0.0
31.11,1,-0.019,-0.043,0.016,-0.016,-0.047,0.004,-1.547,0.009,0.372,30.93,133.6,40.502914,-3.369452,606.7,4,5,236.7,0.765
31.2,1,0.007,-0.001,-0.003,-0.014,-0.021,0.002,-1.545,0.011,0.371,30.93,133.6,40.502914,-3.369452,606.7,4,5,236.7,0.765
31.3,1,0.027,0.015,-0.001,0.013,-0.005,0.001,-1.544,0.009,0.369,30.93,133.6,40.502914,-3.369452,606.7,4,5,236.7,0.765
31.41,1,0.003,0.026,0.008,0.013,0.014,0.001,-1.542,0.008,0.368,30.93,133.6,40.502914,-3.369452,606.7,4,5,236.7,0.765
31.5,1,-0.023,0.025,0.03,-0.002,0.022,0.014,-1.543,0.007,0.366,30.93,133.6,40.502914,-3.369452,606.7,4,5,236.7,0.765
31.6,1,-0.005,0.011,0.017,-0.01,0.014,0.02,-1.546,0.006,0.365,30.93,133.6,40.502914,-3.369452,606.7,4,5,236.7,0.765
31.7,1,0.018,-0.007,0.004,-0.001,0.011,0.014,-1.546,0.008,0.363,30.93,133.6,40.502914,-3.369452,606.7,4,5,236.7,0.765
31.8,1,0.03,-0.006,0.009,0.02,-0.006,0.01,-1.546,0.008,0.362,30.93,133.6,40.502914,-3.369452,606.7,4,5,236.7,0.765
31.91,1,0.031,-0.005,0.02,0.026,-0.001,0.012,-1.545,0.006,0.36,30.93,133.6,40.502914,-3.369452,606.7,4,5,236.7,0.765
32.0,1,0.01,-0.011,0.013,0.02,-0.011,0.017,-1.546,0.005,0.359,30.93,133.6,40.502914,-3.369452,606.7,4,5,236.7,0.765
32.11,1,-0.002,0.016,-0.027,0.01,0.003,-0.004,-1.544,0.004,0.357,31.93,133.3,40.502735,-3.369821,609.1,4,5,237.0,0.496
32.2,1,-0.017,0.006,-0.021,-0.006,0.01,-0.016,-1.541,0.005,0.356,31.93,133.3,40.502735,-3.369821,609.1,4,5,237.0,0.496
32.3,1,-0.043,-0.004,-0.028,-0.025,-0.004,-0.022,-1.537,0.005,0.354,31.93,133.3,40.502735,-3.369821,609.1,4,5,237.0,0.496
32.41,1,-0.036,0.022,-0.038,-0.027,0.004,-0.036,-1.534,0.005,0.353,31.93,133.3,40.502735,-3.369821,609.1,4,5,237.0,0.496
32.51,1,-0.009,-0.021,-0.018,-0.021,0.004,-0.027,-1.531,0.005,0.351,31.93,133.3,40.502735,-3.369821,609.1,4,5,237.0,0.496
32.61,1,-0.023,0.006,-0.021,-0.028,0.004,-0.021,-1.53,0.005,0.35,31.93,133.3,40.502735,-3.369821,609.1,4,5,237.0,0.496
32.7,1,-0.01,-0.007,-0.021,-0.01,-0.005,-0.022,-1.529,0.005,0.349,31.93,133.3,40.502735,-3.369821,609.1,4,5,237.0,0.496
32.8,1,0.068,-0.001,-0.01,0.019,-0.003,-0.013,-1.529,0.004,0.348,31.93,133.3,40.502735,-3.369821,609.1,4,5,237.0,0.496
32.9,1,0.031,-0.002,-0.011,0.036,-0.002,-0.015,-1.528,0.006,0.347,31.93,133.3,40.502735,-3.369821,609.1,4,5,237.0,0.496
33.0,1,-0.005,-0.015,0.014,0.016,-0.005,0.002,-1.528,0.008,0.347,31.93,133.3,40.502735,-3.369821,609.1,4,5,237.0,0.496
33.11,1,0.01,-0.016,0.009,0.007,-0.015,0.006,-1.529,0.011,0.347,32.92,133.6,40.502552,-3.370179,605.9,4,5,237.0,0.27
33.21,1,-0.024,-0.01,0.017,-0.006,-0.014,0.012,-1.53,0.014,0.346,32.92,133.6,40.502552,-3.370179,605.9,4,5,237.0,0.27
33.3,1,0.002,-0.03,0.017,-0.003,-0.018,0.013,-1.53,0.017,0.346,32.92,133.6,40.502552,-3.370179,605.9,4,5,237.0,0.27
33.41,1,-0.011,-0.034,0.038,0.0,-0.027,0.023,-1.53,0.021,0.346,32.92,133.6,40.502552,-3.370179,605.9,4,5,237.0,0.27
33.51,1,-0.034,-0.068,0.015,-0.024,-0.043,0.025,-1.532,0.025,0.347,32.92,133.6,40.502552,-3.370179,605.9,4,5,237.0,0.27
33.61,1,-0.011,-0.05,0.035,-0.021,-0.054,0.023,-1.535,0.03,0.348,32.92,133.6,40.502552,-3.370179,605.9,4,5,237.0,0.27
33.71,1,0.003,-0.052,0.01,-0.008,-0.053,0.022,-1.536,0.035,0.349,32.92,133.6,40.502552,-3.370179,605.9,4,5,237.0,0.27
33.81,1,-0.0,-0.054,0.002,0.001,-0.049,0.012,-1.537,0.039,0.35,32.92,133.6,40.502552,-3.370179,605.9,4,5,237.0,0.27
33.91,1,0.019,-0.018,0.024,0.007,-0.041,0.015,-1.54,0.042,0.351,32.92,133.6,40.502552,-3.370179,605.9,4,5,237.0,0.27
34.01,1,0.01,-0.006,0.019,0.011,-0.024,0.02,-1.541,0.041,0.35,32.92,133.6,40.502552,-3.370179,605.9,4,5,237.0,0.27
34.11,1,0.027,0.009,0.027,0.017,-0.009,0.024,-1.544,0.04,0.35,33.92,132.8,40.502373,-3.370542,606.3,4,5,237.4,0.365
34.21,1,-0.03,-0.024,0.007,0.005,-0.006,0.009,-1.545,0.041,0.351,33.92,132.8,40.502373,-3.370542,606.3,4,5,237.4,0.365
34.32,1,0.013,-0.029,0.009,-0.006,-0.022,0.013,-1.545,0.047,0.352,33.92,132.8,40.502373,-3.370542,606.3,4,5,237.4,0.365
34.41,1,-0.029,-0.052,0.002,-0.006,-0.033,0.008,-1.545,0.047,0.354,33.92,132.8,40.502373,-3.370542,606.3,4,5,237.4,0.365
34.51,1,-0.053,-0.058,0.011,-0.036,-0.048,0.008,-1.545,0.046,0.356,33.92,132.8,40.502373,-3.370542,606.3,4,5,237.4,0.365
34.61,1,0.016,-0.044,0.019,-0.017,-0.049,0.013,-1.548,0.051,0.358,33.92,132.8,40.502373,-3.370542,606.3,4,5,237.4,0.365
34.71,1,-0.026,-0.045,0.008,-0.015,-0.049,0.016,-1.549,0.051,0.358,33.92,132.8,40.502373,-3.370542,606.3,4,5,237.4,0.365
34.81,1,-0.034,-0.026,0.01,-0.031,-0.039,0.011,-1.551,0.047,0.358,33.92,132.8,40.502373,-3.370542,606.3,4,5,237.4,0.365
34.92,1,-0.019,0.019,0.011,-0.023,-0.014,0.013,-1.551,0.043,0.358,33.92,132.8,40.502373,-3.370542,606.3,4,5,237.4,0.365
35.03,1,-0.006,0.0,0.014,-0.006,-0.0,0.01,-1.553,0.042,0.357,33.92,132.8,40.502373,-3.370542,606.3,4,5,237.4,0.365
35.11,1,0.009,0.014,0.008,-0.014,0.004,0.007,-1.554,0.042,0.357,34.91,132.6,40.50219,-3.37091,605.5,4,5,237.3,0.291
35.21,1,0.072,0.032,0.026,0.031,0.017,0.026,-1.556,0.04,0.357,34.91,132.6,40.50219,-3.37091,605.5,4,5,237.3,0.291
35.31,1,0.015,0.007,0.011,0.04,0.026,0.009,-1.556,0.037,0.357,34.91,132.6,40.50219,-3.37091,605.5,4,5,237.3,0.291
35.41,1,-0.045,0.015,0.011,-0.007,0.015,0.016,-1.559,0.035,0.356,34.91,132.6,40.50219,-3.37091,605.5,4,5,237.3,0.291
35.52,1,-0.033,0.028,0.007,-0.029,0.019,0.009,-1.557,0.031,0.355,34.91,132.6,40.50219,-3.37091,605.5,4,5,237.3,0.291
35.61,1,-0.008,0.028,0.002,-0.016,0.025,0.007,-1.557,0.031,0.354,34.91,132.6,40.50219,-3.37091,605.5,4,5,237.3,0.291
35.71,1,0.004,0.0,0.022,-0.01,0.02,0.01,-1.558,0.029,0.353,34.91,132.6,40.50219,-3.37091,605.5,4,5,237.3,0.291
35.81,1,-0.025,0.032,0.033,-0.007,0.019,0.021,-1.56,0.025,0.353,34.91,132.6,40.50219,-3.37091,605.5,4,5,237.3,0.291
35.92,1,-0.025,0.038,0.001,-0.022,0.029,0.017,-1.562,0.02,0.351,34.91,132.6,40.50219,-3.37091,605.5,4,5,237.3,0.291
36.02,1,-0.003,0.021,0.016,-0.009,0.027,0.01,-1.562,0.017,0.35,34.91,132.6,40.50219,-3.37091,605.5,4,5,237.3,0.291
36.12,1,-0.022,0.042,0.013,-0.011,0.031,0.015,-1.563,0.012,0.348,35.93,133.5,40.502007,-3.371268,605.0,4,5,235.9,1.476
36.23,1,-0.068,0.049,0.025,-0.043,0.037,0.022,-1.564,0.007,0.346,35.93,133.5,40.502007,-3.371268,605.0,4,5,235.9,1.476
36.31,1,0.042,0.071,0.019,-0.008,0.052,0.018,-1.564,0.003,0.343,35.93,133.5,40.502007,-3.371268,605.0,4,5,235.9,1.476
36.42,1,-0.009,0.072,0.008,-0.005,0.068,0.016,-1.566,-0.003,0.341,35.93,133.5,40.502007,-3.371268,605.0,4,5,235.9,1.476
36.52,1,-0.047,0.086,0.019,-0.024,0.078,0.012,-1.568,-0.01,0.339,35.93,133.5,40.502007,-3.371268,605.0,4,5,235.9,1.476
36.62,1,-0.025,0.032,0.016,-0.024,0.06,0.018,-1.569,-0.012,0.337,35.93,133.5,40.502007,-3.371268,605.0,4,5,235.9,1.476
36.73,1,0.028,0.02,0.015,-0.002,0.037,0.016,-1.571,-0.011,0.335,35.93,133.5,40.502007,-3.371268,605.0,4,5,235.9,1.476
36.82,1,0.011,0.034,0.046,0.004,0.039,0.023,-1.57,-0.016,0.333,35.93,133.5,40.502007,-3.371268,605.0,4,5,235.9,1.476
36.92,1,0.039,0.017,0.02,0.022,0.019,0.036,-1.573,-0.016,0.331,35.93,133.5,40.502007,-3.371268,605.0,4,5,235.9,1.476
37.02,1,-0.032,0.033,0.01,0.008,0.024,0.018,-1.574,-0.019,0.329,35.93,133.5,40.502007,-3.371268,605.0,4,5,235.9,1.476
37.12,1,-0.012,0.066,0.024,-0.01,0.044,0.016,-1.575,-0.022,0.327,36.94,134.8,40.501812,-3.371636,604.9,3,5,235.5,1.754
37.22,1,0.003,0.004,0.022,-0.007,0.038,0.023,-1.577,-0.019,0.324,36.94,134.8,40.501812,-3.371636,604.9,3,5,235.5,1.754
37.32,1,-0.022,-0.005,-0.007,-0.014,0.006,0.009,-1.578,-0.021,0.323,36.94,134.8,40.501812,-3.371636,604.9,3,5,235.5,1.754
37.43,1,-0.02,0.032,0.012,-0.018,0.017,0.005,-1.578,-0.023,0.321,36.94,134.8,40.501812,-3.371636,604.9,3,5,235.5,1.754
37.52,1,-0.025,0.048,0.01,-0.022,0.033,0.016,-1.582,-0.022,0.319,36.94,134.8,40.501812,-3.371636,604.9,3,5,235.5,1.754
37.62,1,-0.053,0.005,-0.007,-0.03,0.028,0.0,-1.582,-0.019,0.318,36.94,134.8,40.501812,-3.371636,604.9,3,5,235.5,1.754
37.72,1,-0.086,0.047,0.019,-0.065,0.028,0.009,-1.582,-0.019,0.316,36.94,134.8,40.501812,-3.371636,604.9,3,5,235.5,1.754
37.82,1,-0.012,-0.027,0.015,-0.042,0.018,0.014,-1.581,-0.02,0.314,36.94,134.8,40.501812,-3.371636,604.9,3,5,235.5,1.754
37.92,1,-0.04,-0.002,0.005,-0.039,-0.007,0.004,-1.582,-0.019,0.313,36.94,134.8,40.501812,-3.371636,604.9,3,5,235.5,1.754
38.02,1,0.016,0.037,0.015,-0.018,0.012,0.015,-1.582,-0.019,0.311,36.94,134.8,40.501812,-3.371636,604.9,3,5,235.5,1.754
38.12,1,0.005,0.001,0.014,0.002,0.014,0.012,-1.581,-0.015,0.31,37.94,135.3,40.501633,-3.372004,605.2,3,5,236.2,0.703
38.22,1,-0.025,-0.013,-0.025,-0.017,-0.007,0.0,-1.58,-0.015,0.31,37.94,135.3,40.501633,-3.372004,605.2,3,5,236.2,0.703
38.32,1,0.019,-0.03,0.002,-0.009,-0.012,-0.004,-1.581,-0.017,0.309,37.94,135.3,40.501633,-3.372004,605.2,3,5,236.2,0.703
38.42,1,0.045,-0.024,0.008,0.032,-0.022,0.004,-1.584,-0.018,0.308,37.94,135.3,40.501633,-3.372004,605.2,3,5,236.2,0.703
38.53,1,-0.005,-0.03,0.012,0.025,-0.025,0.004,-1.582,-0.018,0.307,37.94,135.3,40.501633,-3.372004,605.2,3,5,236.2,0.703
38.63,1,-0.051,-0.02,-0.006,-0.015,-0.024,0.007,-1.585,-0.017,0.306,37.94,135.3,40.501633,-3.372004,605.2,3,5,236.2,0.703
38.72,1,0.004,0.011,-0.016,-0.016,-0.012,-0.01,-1.581,-0.018,0.305,37.94,135.3,40.501633,-3.372004,605.2,3,5,236.2,0.703
38.83,1,-0.046,0.012,-0.014,-0.022,0.005,-0.013,-1.582,-0.019,0.304,37.94,135.3,40.501633,-3.372004,605.2,3,5,236.2,0.703
38.92,1,0.011,-0.016,0.005,-0.017,-0.002,-0.012,-1.58,-0.017,0.304,37.94,135.3,40.501633,-3.372004,605.2,3,5,236.2,0.703
39.02,1,0.005,-0.006,0.012,0.001,-0.011,0.001,-1.576,-0.015,0.303,37.94,135.3,40.501633,-3.372004,605.2,3,5,236.2,0.703
39.12,1,-0.038,-0.017,0.018,-0.012,-0.005,0.012,-1.577,-0.014,0.302,39.03,137.3,40.501259,-3.372752,605.3,4,5,237.0,1.406
39.22,1,-0.064,-0.067,0.02,-0.045,-0.035,0.021,-1.577,-0.013,0.302,39.03,137.3,40.501259,-3.372752,605.3,4,5,237.0,1.406
39.33,1,0.014,-0.02,0.019,-0.026,-0.038,0.021,-1.577,-0.011,0.301,39.03,137.3,40.501259,-3.372752,605.3,4,5,237.0,1.406
39.43,1,0.005,0.013,-0.01,0.004,-0.012,0.005,-1.575,-0.01,0.301,39.03,137.3,40.501259,-3.372752,605.3,4,5,237.0,1.406
39.53,1,-0.003,-0.014,-0.014,-0.003,-0.004,-0.005,-1.574,-0.01,0.3,39.03,137.3,40.501259,-3.372752,605.3,4,5,237.0,1.406
39.63,1,0.032,-0.018,-0.004,0.01,-0.012,-0.004,-1.573,-0.008,0.3,39.03,137.3,40.501259,-3.372752,605.3,4,5,237.0,1.406
39.73,1,0.048,0.003,-0.003,0.031,-0.01,-0.006,-1.569,-0.007,0.299,39.03,137.3,40.501259,-3.372752,605.3,4,5,237.0,1.406
39.83,1,0.028,0.001,0.009,0.039,-0.003,-0.002,-1.565,-0.005,0.299,39.03,137.3,40.501259,-3.372752,605.3,4,5,237.0,1.406
39.93,1,-0.017,-0.054,0.019,0.009,-0.016,0.008,-1.563,-0.002,0.298,39.03,137.3,40.501259,-3.372752,605.3,4,5,237.0,1.406
40.03,1,-0.022,-0.01,0.006,-0.008,-0.032,0.014,-1.567,-0.001,0.298,39.03,137.3,40.501259,-3.372752,605.3,4,5,237.0,1.406
40.13,1,-0.073,-0.011,0.02,-0.037,-0.011,0.012,-1.567,-0.002,0.298,39.91,137.3,40.501259,-3.372752,605.3,4,5,237.0,0.703
40.23,1,-0.038,-0.003,0.009,-0.052,-0.01,0.015,-1.566,-0.002,0.298,39.91,137.3,40.501259,-3.372752,605.3,4,5,237.0,0.703
40.33,1,0.012,0.013,0.012,-0.02,0.002,0.015,-1.567,-0.006,0.297,39.91,137.3,40.501259,-3.372752,605.3,4,5,237.0,0.703
40.43,1,-0.002,-0.031,-0.006,-0.002,-0.011,0.001,-1.567,-0.005,0.297,39.91,137.3,40.501259,-3.372752,605.3,4,5,237.0,0.703
40.53,1,0.0,-0.031,0.014,-0.008,-0.024,0.007,-1.569,-0.005,0.297,39.91,137.3,40.501259,-3.372752,605.3,4,5,237.0,0.703
40.63,1,0.052,-0.016,-0.004,0.024,-0.024,0.005,-1.57,-0.005,0.297,39.91,137.3,40.501259,-3.372752,605.3,4,5,237.0,0.703
40.73,1,-0.002,-0.013,0.001,0.014,-0.02,0.001,-1.569,-0.006,0.297,39.91,137.3,40.501259,-3.372752,605.3,4,5,237.0,0.703
40.83,1,-0.004,0.018,-0.011,0.007,-0.003,-0.005,-1.571,-0.007,0.296,39.91,137.3,40.501259,-3.372752,605.3,4,5,237.0,0.703
40.93,1,-0.049,0.0,0.003,-0.018,0.005,-0.005,-1.569,-0.006,0.296,39.91,137.3,40.501259,-3.372752,605.3,4,5,237.0,0.703
41.03,1,-0.04,-0.003,-0.013,-0.035,0.002,-0.007,-1.566,-0.006,0.296,39.91,137.3,40.501259,-3.372752,605.3,4,5,237.0,0.703
41.13,1,-0.041,-0.014,-0.006,-0.037,-0.008,-0.007,-1.567,-0.006,0.295,40.94,138.3,40.501076,-3.37312,605.6,4,5,237.0,0.0
41.23,1,-0.048,-0.019,-0.009,-0.043,-0.011,-0.008,-1.568,-0.007,0.295,40.94,138.3,40.501076,-3.37312,605.6,4,5,237.0,0.0
41.34,1,-0.018,0.002,0.006,-0.04,-0.007,-0.0,-1.569,-0.007,0.295,40.94,138.3,40.501076,-3.37312,605.6,4,5,237.0,0.0
41.44,1,0.008,-0.04,0.003,-0.011,-0.016,0.001,-1.569,-0.005,0.295,40.94,138.3,40.501076,-3.37312,605.6,4,5,237.0,0.0
41.53,1,0.037,0.025,0.023,0.013,-0.014,0.012,-1.571,-0.004,0.295,40.94,138.3,40.501076,-3.37312,605.6,4,5,237.0,0.0
41.63,1,0.0,-0.032,-0.018,0.01,-0.008,0.002,-1.57,-0.004,0.295,40.94,138.3,40.501076,-3.37312,605.6,4,5,237.0,0.0
41.73,1,0.028,-0.028,-0.003,0.017,-0.02,-0.005,-1.57,-0.003,0.295,40.94,138.3,40.501076,-3.37312,605.6,4,5,237.0,0.0
41.83,1,-0.006,0.005,0.015,0.017,-0.011,0.004,-1.57,-0.004,0.295,40.94,138.3,40.501076,-3.37312,605.6,4,5,237.0,0.0
41.94,1,-0.082,-0.02,-0.003,-0.04,-0.014,0.002,-1.57,-0.006,0.295,40.94,138.3,40.501076,-3.37312,605.6,4,5,237.0,0.0
42.03,1,-0.021,0.014,-0.014,-0.031,-0.006,-0.004,-1.57,-0.006,0.295,40.94,138.3,40.501076,-3.37312,605.6,4,5,237.0,0.0
42.13,1,-0.021,-0.024,0.007,-0.028,-0.0,-0.0,-1.572,-0.004,0.295,41.92,139.4,40.500881,-3.373504,603.5,4,5,237.0,0.0
42.24,1,0.082,-0.047,0.016,0.011,-0.033,0.006,-1.572,-0.0,0.294,41.92,139.4,40.500881,-3.373504,603.5,4,5,237.0,0.0
42.33,1,0.05,0.015,0.006,0.055,-0.016,0.011,-1.571,-0.002,0.294,41.92,139.4,40.500881,-3.373504,603.5,4,5,237.0,0.0
42.44,1,0.024,0.004,-0.01,0.035,0.004,0.001,-1.571,-0.002,0.295,41.92,139.4,40.500881,-3.373504,603.5,4,5,237.0,0.0
42.54,1,0.008,0.023,-0.006,0.021,0.01,-0.005,-1.569,-0.002,0.295,41.92,139.4,40.500881,-3.373504,603.5,4,5,237.0,0.0
42.64,1,-0.07,-0.051,-0.018,-0.02,-0.008,-0.012,-1.568,-0.001,0.294,41.92,139.4,40.500881,-3.373504,603.5,4,5,237.0,0.0
42.74,1,-0.064,-0.02,-0.008,-0.043,-0.023,-0.01,-1.569,-0.003,0.294,41.92,139.4,40.500881,-3.373504,603.5,4,5,237.0,0.0
42.84,1,-0.071,0.001,-0.011,-0.067,-0.014,-0.015,-1.569,-0.007,0.294,41.92,139.4,40.500881,-3.373504,603.5,4,5,237.0,0.0
42.94,1,-0.017,-0.024,-0.008,-0.045,-0.016,-0.006,-1.569,-0.004,0.294,41.92,139.4,40.500881,-3.373504,603.5,4,5,237.0,0.0
43.04,1,-0.046,-0.015,0.001,-0.033,-0.017,-0.007,-1.571,-0.003,0.294,41.92,139.4,40.500881,-3.373504,603.5,4,5,237.0,0.0
43.14,1,-0.038,0.019,0.01,-0.043,0.0,-0.0,-1.572,-0.003,0.294,42.94,140.3,40.500702,-3.373881,605.0,4,5,237.0,0.0
43.24,1,-0.041,-0.048,0.024,-0.041,-0.015,0.016,-1.572,0.001,0.294,42.94,140.3,40.500702,-3.373881,605.0,4,5,237.0,0.0
43.34,1,0.073,-0.029,-0.012,0.009,-0.025,0.007,-1.571,0.001,0.294,42.94,140.3,40.500702,-3.373881,605.0,4,5,237.0,0.0
43.45,1,0.039,0.018,0.015,0.029,-0.015,0.008,-1.571,0.002,0.294,42.94,140.3,40.500702,-3.373881,605.0,4,5,237.0,0.0
43.54,1,-0.043,-0.0,-0.007,0.008,-0.003,0.001,-1.572,-0.003,0.294,42.94,140.3,40.500702,-3.373881,605.0,4,5,237.0,0.0
43.64,1,-0.04,0.026,-0.02,-0.028,0.014,-0.011,-1.571,-0.005,0.294,42.94,140.3,40.500702,-3.373881,605.0,4,5,237.0,0.0
43.74,1,-0.017,-0.015,-0.01,-0.023,0.006,-0.012,-1.571,-0.004,0.294,42.94,140.3,40.500702,-3.373881,605.0,4,5,237.0,0.0
43.85,1,-0.017,-0.011,-0.001,-0.017,-0.004,-0.008,-1.569,-0.001,0.294,42.94,140.3,40.500702,-3.373881,605.0,4,5,237.0,0.0
43.94,1,-0.022,-0.003,0.01,-0.026,-0.006,0.001,-1.57,0.001,0.294,42.94,140.3,40.500702,-3.373881,605.0,4,5,237.0,0.0
44.04,1,0.02,-0.013,0.021,-0.005,-0.007,0.012,-1.571,0.004,0.295,42.94,140.3,40.500702,-3.373881,605.0,4,5,237.0,0.0
44.14,1,0.002,-0.027,0.023,0.0,-0.022,0.019,-1.574,0.007,0.295,43.97,141.0,40.500511,-3.374271,605.4,3,5,237.3,0.352
44.24,1,-0.035,-0.026,0.024,-0.012,-0.023,0.022,-1.569,0.011,0.296,43.97,141.0,40.500511,-3.374271,605.4,3,5,237.3,0.352
44.34,1,0.005,-0.022,-0.008,-0.007,-0.028,0.003,-1.566,0.011,0.296,43.97,141.0,40.500511,-3.374271,605.4,3,5,237.3,0.352
44.44,1,-0.033,-0.012,-0.019,-0.002,-0.019,-0.005,-1.568,0.012,0.297,43.97,141.0,40.500511,-3.374271,605.4,3,5,237.3,0.352
44.54,1,-0.018,-0.027,-0.023,-0.03,-0.017,-0.012,-1.57,0.013,0.298,43.97,141.0,40.500511,-3.374271,605.4,3,5,237.3,0.352
44.64,1,0.021,-0.059,0.013,-0.004,-0.033,-0.003,-1.567,0.014,0.299,43.97,141.0,40.500511,-3.374271,605.4,3,5,237.3,0.352
44.75,1,0.032,-0.029,0.005,0.012,-0.043,0.002,-1.565,0.015,0.3,43.97,141.0,40.500511,-3.374271,605.4,3,5,237.3,0.352
44.84,1,-0.012,-0.01,0.01,0.012,-0.031,0.008,-1.564,0.017,0.3,43.97,141.0,40.500511,-3.374271,605.4,3,5,237.3,0.352
44.94,1,0.015,-0.05,-0.01,0.007,-0.032,-0.005,-1.561,0.017,0.301,43.97,141.0,40.500511,-3.374271,605.4,3,5,237.3,0.352
45.05,1,0.029,-0.019,-0.016,0.018,-0.024,-0.007,-1.557,0.019,0.302,43.97,141.0,40.500511,-3.374271,605.4,3,5,237.3,0.352
45.15,1,0.035,-0.011,-0.037,0.03,-0.022,-0.024,-1.557,0.014,0.302,44.96,140.9,40.50032,-3.374663,604.2,3,5,237.3,0.352
45.25,1,0.024,-0.024,0.014,0.025,-0.018,-0.009,-1.557,0.012,0.302,44.96,140.9,40.50032,-3.374663,604.2,3,5,237.3,0.352
45.35,1,0.051,0.023,-0.0,0.034,-0.005,0.001,-1.558,0.009,0.302,44.96,140.9,40.50032,-3.374663,604.2,3,5,237.3,0.352
45.45,1,-0.032,-0.002,-0.007,0.013,0.005,0.002,-1.561,0.006,0.302,44.96,140.9,40.50032,-3.374663,604.2,3,5,237.3,0.352
45.55,1,-0.08,0.003,-0.005,-0.038,0.001,-0.006,-1.561,0.003,0.302,44.96,140.9,40.50032,-3.374663,604.2,3,5,237.3,0.352
45.65,1,-0.037,0.015,-0.005,-0.05,0.011,-0.007,-1.558,0.004,0.302,44.96,140.9,40.50032,-3.374663,604.2,3,5,237.3,0.352
45.75,1,-0.039,0.008,-0.008,-0.036,0.006,-0.009,-1.558,0.008,0.302,44.96,140.9,40.50032,-3.374663,604.2,3,5,237.3,0.352
45.85,1,-0.035,0.004,0.002,-0.035,0.005,-0.004,-1.558,0.006,0.302,44.96,140.9,40.50032,-3.374663,604.2,3,5,237.3,0.352
45.95,1,-0.023,-0.029,-0.011,-0.034,-0.008,-0.003,-1.56,0.007,0.302,44.96,140.9,40.50032,-3.374663,604.2,3,5,237.3,0.352
46.05,1,-0.014,0.015,-0.006,-0.023,-0.004,-0.01,-1.56,0.009,0.302,44.96,140.9,40.50032,-3.374663,604.2,3,5,237.3,0.352
46.16,1,-0.014,0.025,-0.005,-0.017,0.015,-0.003,-1.56,0.009,0.303,45.95,140.9,40.500122,-3.375053,604.2,3,5,236.6,0.703
46.26,1,0.004,0.02,-0.004,-0.005,0.016,-0.004,-1.56,0.01,0.303,45.95,140.9,40.500122,-3.375053,604.2,3,5,236.6,0.703
46.35,1,-0.03,-0.01,-0.023,-0.014,0.007,-0.017,-1.559,0.011,0.303,45.95,140.9,40.500122,-3.375053,604.2,3,5,236.6,0.703
46.46,1,-0.005,-0.01,-0.017,-0.02,-0.003,-0.015,-1.558,0.01,0.304,45.95,140.9,40.500122,-3.375053,604.2,3,5,236.6,0.703
46.55,1,-0.008,0.014,-0.007,-0.005,0.004,-0.014,-1.558,0.012,0.304,45.95,140.9,40.500122,-3.375053,604.2,3,5,236.6,0.703
46.65,1,0.012,0.0,0.003,-0.001,0.002,-0.002,-1.557,0.012,0.304,45.95,140.9,40.500122,-3.375053,604.2,3,5,236.6,0.703
46.75,1,0.02,0.032,0.012,0.012,0.014,0.005,-1.557,0.01,0.303,45.95,140.9,40.500122,-3.375053,604.2,3,5,236.6,0.703
46.85,1,0.005,0.054,0.01,0.009,0.039,0.007,-1.556,0.003,0.301,45.95,140.9,40.500122,-3.375053,604.2,3,5,236.6,0.703
46.96,1,0.002,0.065,-0.004,0.01,0.049,0.002,-1.557,-0.006,0.299,45.95,140.9,40.500122,-3.375053,604.2,3,5,236.6,0.703
47.05,1,-0.076,0.085,-0.002,-0.028,0.066,-0.003,-1.555,-0.012,0.296,45.95,140.9,40.500122,-3.375053,604.2,3,5,236.6,0.703
47.15,1,-0.029,0.074,0.014,-0.047,0.075,0.007,-1.553,-0.019,0.294,46.91,143.0,40.499928,-3.375443,603.8,4,5,236.6,0.703
47.25,1,0.014,0.055,0.006,-0.015,0.07,0.009,-1.554,-0.027,0.292,46.91,143.0,40.499928,-3.375443,603.8,4,5,236.6,0.703
47.35,1,0.014,0.065,0.008,0.003,0.064,0.003,-1.555,-0.032,0.29,46.91,143.0,40.499928,-3.375443,603.8,4,5,236.6,0.703
47.46,1,0.035,0.024,0.034,0.014,0.05,0.019,-1.554,-0.034,0.288,46.91,143.0,40.499928,-3.375443,603.8,4,5,236.6,0.703
47.56,1,0.064,0.026,0.02,0.044,0.026,0.022,-1.552,-0.033,0.287,46.91,143.0,40.499928,-3.375443,603.8,4,5,236.6,0.703
47.66,1,-0.049,0.013,0.027,0.015,0.024,0.024,-1.553,-0.035,0.286,46.91,143.0,40.499928,-3.375443,603.8,4,5,236.6,0.703
47.76,1,-0.07,0.016,-0.003,-0.04,0.014,0.018,-1.555,-0.035,0.285,46.91,143.0,40.499928,-3.375443,603.8,4,5,236.6,0.703
47.85,1,-0.067,-0.041,-0.004,-0.06,-0.003,0.002,-1.555,-0.037,0.285,46.91,143.0,40.499928,-3.375443,603.8,4,5,236.6,0.703
48.05,1,-0.022,-0.018,0.024,-0.032,-0.026,0.016,-1.56,-0.035,0.285,46.91,143.0,40.499928,-3.375443,603.8,4,5,236.6,0.703
48.16,1,0.028,-0.011,-0.008,-0.009,-0.015,0.006,-1.562,-0.033,0.284,46.91,143.0,40.499928,-3.375443,603.8,4,5,236.6,0.703
48.25,1,0.001,0.008,-0.001,0.006,-0.004,-0.004,-1.561,-0.034,0.284,47.92,143.3,40.499729,-3.375841,603.9,3,5,236.6,0.0
48.36,1,-0.002,-0.007,0.004,0.0,-0.008,0.001,-1.559,-0.033,0.284,47.92,143.3,40.499729,-3.375841,603.9,3,5,236.6,0.0
48.46,1,0.005,-0.024,0.006,0.004,-0.015,0.005,-1.559,-0.032,0.283,47.92,143.3,40.499729,-3.375841,603.9,3,5,236.6,0.0
48.56,1,-0.001,-0.03,0.0,0.001,-0.02,0.004,-1.558,-0.029,0.283,47.92,143.3,40.499729,-3.375841,603.9,3,5,236.6,0.0
48.66,1,0.01,-0.003,-0.015,0.003,-0.016,-0.006,-1.557,-0.029,0.283,47.92,143.3,40.499729,-3.375841,603.9,3,5,236.6,0.0
48.76,1,-0.037,-0.04,0.001,-0.009,-0.019,-0.006,-1.556,-0.027,0.283,47.92,143.3,40.499729,-3.375841,603.9,3,5,236.6,0.0
48.86,1,-0.016,-0.02,0.023,-0.019,-0.03,0.009,-1.558,-0.023,0.283,47.92,143.3,40.499729,-3.375841,603.9,3,5,236.6,0.0
48.96,1,-0.004,-0.017,0.023,-0.008,-0.02,0.021,-1.56,-0.024,0.283,47.92,143.3,40.499729,-3.375841,603.9,3,5,236.6,0.0
49.06,1,-0.044,-0.039,-0.019,-0.029,-0.025,0.002,-1.56,-0.024,0.283,47.92,143.3,40.499729,-3.375841,603.9,3,5,236.6,0.0
49.16,1,0.002,0.01,-0.002,-0.013,-0.013,-0.004,-1.559,-0.023,0.283,47.92,143.3,40.499729,-3.375841,603.9,3,5,236.6,0.0
49.26,1,-0.024,-0.023,0.009,-0.017,-0.013,0.001,-1.56,-0.021,0.283,48.92,143.5,40.499535,-3.376237,601.6,4,5,237.7,1.055
49.37,1,0.018,0.028,0.022,-0.005,-0.005,0.012,-1.563,-0.021,0.284,48.92,143.5,40.499535,-3.376237,601.6,4,5,237.7,1.055
49.46,1,-0.041,-0.01,-0.002,-0.01,0.016,0.008,-1.563,-0.019,0.284,48.92,143.5,40.499535,-3.376237,601.6,4,5,237.7,1.055
49.56,1,-0.01,-0.079,-0.004,-0.025,-0.043,0.002,-1.562,-0.014,0.285,48.92,143.5,40.499535,-3.376237,601.6,4,5,237.7,1.055
49.66,1,0.06,-0.024,0.013,0.019,-0.036,0.001,-1.559,-0.014,0.286,48.92,143.5,40.499535,-3.376237,601.6,4,5,237.7,1.055
49.76,1,-0.026,-0.068,-0.008,0.001,-0.054,0.006,-1.558,-0.012,0.287,48.92,143.5,40.499535,-3.376237,601.6,4,5,237.7,1.055
49.86,1,0.011,-0.05,0.004,-0.001,-0.057,-0.002,-1.559,-0.005,0.289,48.92,143.5,40.499535,-3.376237,601.6,4,5,237.7,1.055
49.97,1,0.002,-0.06,0.011,0.009,-0.051,0.005,-1.559,-0.001,0.29,48.92,143.5,40.499535,-3.376237,601.6,4,5,237.7,1.055
50.07,1,-0.02,-0.062,0.019,-0.006,-0.057,0.015,-1.562,0.006,0.292,48.92,143.5,40.499535,-3.376237,601.6,4,5,237.7,1.055
50.16,1,0.022,-0.026,-0.029,0.008,-0.05,-0.004,-1.564,0.005,0.293,48.92,143.5,40.499535,-3.376237,601.6,4,5,237.7,1.055
50.26,1,-0.068,-0.048,-0.001,-0.021,-0.042,-0.011,-1.565,0.004,0.294,49.92,143.9,40.499348,-3.376637,601.5,3,5,237.7,1.055
50.36,1,-0.066,-0.006,0.001,-0.063,-0.032,-0.007,-1.567,0.005,0.295,49.92,143.9,40.499348,-3.376637,601.5,3,5,237.7,1.055
50.46,1,-0.013,0.0,-0.022,-0.038,-0.007,-0.009,-1.567,0.003,0.296,49.92,143.9,40.499348,-3.376637,601.5,3,5,237.7,1.055
50.57,1,-0.037,-0.043,-0.005,-0.025,-0.022,-0.006,-1.569,0.005,0.297,49.92,143.9,40.499348,-3.376637,601.5,3,5,237.7,1.055
50.66,1,0.017,-0.016,-0.002,-0.022,-0.029,-0.009,-1.569,0.005,0.298,49.92,143.9,40.499348,-3.376637,601.5,3,5,237.7,1.055
50.76,1,0.042,-0.045,-0.009,0.02,-0.026,-0.008,-1.568,0.01,0.298,49.92,143.9,40.499348,-3.376637,601.5,3,5,237.7,1.055
50.86,1,-0.032,-0.035,-0.006,0.005,-0.037,-0.0,-1.566,0.015,0.299,49.92,143.9,40.499348,-3.376637,601.5,3,5,237.7,1.055
50.97,1,-0.059,-0.044,0.001,-0.036,-0.039,-0.01,-1.562,0.016,0.3,49.92,143.9,40.499348,-3.376637,601.5,3,5,237.7,1.055
51.07,1,0.007,0.001,-0.036,-0.01,-0.023,-0.015,-1.556,0.017,0.3,49.92,143.9,40.499348,-3.376637,601.5,3,5,237.7,1.055
51.18,1,-0.014,0.008,-0.01,-0.013,-0.007,-0.015,-1.553,0.018,0.3,49.92,143.9,40.499348,-3.376637,601.5,3,5,237.7,1.055
51.28,1,0.023,-0.008,0.013,-0.004,0.003,-0.001,-1.552,0.022,0.301,50.94,140.7,40.499157,-3.377034,601.0,4,5,237.7,0.0
51.37,1,0.032,-0.01,0.005,0.021,-0.006,0.002,-1.551,0.022,0.301,50.94,140.7,40.499157,-3.377034,601.0,4,5,237.7,0.0
51.47,1,0.049,-0.001,0.0,0.035,-0.01,0.003,-1.553,0.02,0.302,50.94,140.7,40.499157,-3.377034,601.0,4,5,237.7,0.0
51.57,1,-0.052,0.022,-0.019,0.009,0.007,-0.009,-1.55,0.018,0.302,50.94,140.7,40.499157,-3.377034,601.0,4,5,237.7,0.0
51.67,1,-0.104,-0.024,0.021,-0.061,0.003,0.002,-1.549,0.018,0.303,50.94,140.7,40.499157,-3.377034,601.0,4,5,237.7,0.0
51.78,1,-0.072,0.01,-0.029,-0.061,-0.006,-0.006,-1.549,0.019,0.303,50.94,140.7,40.499157,-3.377034,601.0,4,5,237.7,0.0
51.87,1,-0.063,-0.031,0.032,-0.08,-0.011,0.006,-1.55,0.019,0.304,50.94,140.7,40.499157,-3.377034,601.0,4,5,237.7,0.0
51.97,1,0.102,0.004,0.018,-0.005,-0.007,0.015,-1.551,0.018,0.304,50.94,140.7,40.499157,-3.377034,601.0,4,5,237.7,0.0
52.07,1,0.055,-0.022,-0.024,0.051,-0.009,0.002,-1.551,0.017,0.304,50.94,140.7,40.499157,-3.377034,601.0,4,5,237.7,0.0
52.18,1,0.035,-0.024,0.001,0.04,-0.025,-0.006,-1.55,0.013,0.304,50.94,140.7,40.499157,-3.377034,601.0,4,5,237.7,0.0
52.27,1,-0.027,-0.004,-0.016,0.03,-0.011,-0.006,-1.548,0.01,0.304,51.93,144.5,40.498966,-3.377432,600.3,4,5,237.0,0.703
52.37,1,-0.115,0.013,0.018,-0.055,-0.006,0.0,-1.548,0.006,0.305,51.93,144.5,40.498966,-3.377432,600.3,4,5,237.0,0.703
52.47,1,-0.038,0.028,-0.003,-0.062,0.011,0.002,-1.551,0.005,0.305,51.93,144.5,40.498966,-3.377432,600.3,4,5,237.0,0.703
52.57,1,0.004,-0.013,0.006,-0.033,0.011,0.002,-1.551,0.004,0.306,51.93,144.5,40.498966,-3.377432,600.3,4,5,237.0,0.703
52.67,1,0.042,-0.035,0.002,0.004,-0.014,0.003,-1.55,0.006,0.306,51.93,144.5,40.498966,-3.377432,600.3,4,5,237.0,0.703
52.77,1,-0.006,-0.031,-0.011,0.022,-0.025,-0.006,-1.554,0.009,0.307,51.93,144.5,40.498966,-3.377432,600.3,4,5,237.0,0.703
52.87,1,-0.049,-0.013,-0.014,-0.016,-0.021,-0.01,-1.559,0.011,0.308,51.93,144.5,40.498966,-3.377432,600.3,4,5,237.0,0.703
52.98,1,-0.106,-0.032,-0.024,-0.064,-0.028,-0.013,-1.559,0.01,0.309,51.93,144.5,40.498966,-3.377432,600.3,4,5,237.0,0.703
53.07,1,-0.073,-0.014,0.03,-0.085,-0.02,-0.0,-1.56,0.011,0.309,51.93,144.5,40.498966,-3.377432,600.3,4,5,237.0,0.703
53.17,1,0.061,-0.011,-0.003,-0.02,-0.017,0.006,-1.56,0.014,0.309,51.93,144.5,40.498966,-3.377432,600.3,4,5,237.0,0.703
53.27,1,0.049,-0.004,0.008,0.025,-0.007,0.008,-1.561,0.016,0.31,52.95,144.6,40.498562,-3.378231,599.6,4,5,236.6,0.352
53.37,1,0.026,0.0,-0.03,0.031,-0.004,-0.009,-1.56,0.018,0.311,52.95,144.6,40.498562,-3.378231,599.6,4,5,236.6,0.352
53.47,1,0.033,-0.024,-0.02,0.031,-0.008,-0.015,-1.557,0.021,0.311,52.95,144.6,40.498562,-3.378231,599.6,4,5,236.6,0.352
53.58,1,-0.029,-0.01,0.001,0.011,-0.016,-0.011,-1.557,0.022,0.312,52.95,144.6,40.498562,-3.378231,599.6,4,5,236.6,0.352
53.68,1,-0.001,0.003,0.012,0.002,-0.01,0.001,-1.554,0.023,0.312,52.95,144.6,40.498562,-3.378231,599.6,4,5,236.6,0.352
53.77,1,0.005,-0.006,-0.003,-0.004,-0.003,0.001,-1.556,0.023,0.313,52.95,144.6,40.498562,-3.378231,599.6,4,5,236.6,0.352
53.87,1,0.022,0.017,0.012,0.009,0.002,0.004,-1.555,0.024,0.312,52.95,144.6,40.498562,-3.378231,599.6,4,5,236.6,0.352
53.97,1,0.022,0.02,-0.001,0.013,0.014,0.005,-1.555,0.025,0.312,52.95,144.6,40.498562,-3.378231,599.6,4,5,236.6,0.352
54.07,1,-0.019,0.025,-0.001,0.007,0.022,0.001,-1.555,0.021,0.312,52.95,144.6,40.498562,-3.378231,599.6,4,5,236.6,0.352
54.18,1,-0.027,0.016,-0.009,-0.008,0.022,-0.006,-1.554,0.019,0.312,52.95,144.6,40.498562,-3.378231,599.6,4,5,236.6,0.352
54.27,1,-0.026,0.005,0.017,-0.022,0.008,0.002,-1.555,0.018,0.312,53.93,144.6,40.498562,-3.378231,599.6,4,5,236.6,0.352
54.38,1,-0.022,0.015,0.017,-0.024,0.016,0.012,-1.557,0.014,0.312,53.93,144.6,40.498562,-3.378231,599.6,4,5,236.6,0.352
54.48,1,-0.002,0.027,-0.019,-0.018,0.016,0.001,-1.558,0.012,0.312,53.93,144.6,40.498562,-3.378231,599.6,4,5,236.6,0.352
54.58,1,0.004,0.033,-0.037,0.001,0.027,-0.019,-1.556,0.007,0.311,53.93,144.6,40.498562,-3.378231,599.6,4,5,236.6,0.352
54.68,1,-0.031,0.034,-0.043,-0.016,0.031,-0.033,-1.551,0.006,0.31,53.93,144.6,40.498562,-3.378231,599.6,4,5,236.6,0.352
54.78,1,-0.026,0.023,-0.053,-0.022,0.025,-0.042,-1.547,0.003,0.31,53.93,144.6,40.498562,-3.378231,599.6,4,5,236.6,0.352
54.88,1,-0.023,0.025,-0.056,-0.023,0.026,-0.054,-1.541,0.003,0.31,53.93,144.6,40.498562,-3.378231,599.6,4,5,236.6,0.352
54.98,1,-0.035,0.008,-0.019,-0.025,0.02,-0.039,-1.54,0.002,0.309,53.93,144.6,40.498562,-3.378231,599.6,4,5,236.6,0.352
55.08,1,0.004,-0.013,-0.038,-0.021,0.002,-0.029,-1.538,0.004,0.309,53.93,144.6,40.498562,-3.378231,599.6,4,5,236.6,0.352
55.18,1,0.035,-0.002,-0.022,0.01,0.001,-0.034,-1.537,0.007,0.309,53.93,144.6,40.498562,-3.378231,599.6,4,5,236.6,0.352
55.28,1,0.023,0.022,-0.022,0.023,0.005,-0.027,-1.538,0.008,0.309,55.01,144.6,40.498154,-3.379021,600.2,4,5,236.2,0.0
55.39,1,0.077,0.013,0.015,0.045,0.02,-0.006,-1.537,0.01,0.309,55.01,144.6,40.498154,-3.379021,600.2,4,5,236.2,0.0
55.48,1,-0.009,-0.033,-0.028,0.025,-0.011,-0.012,-1.534,0.013,0.31,55.01,144.6,40.498154,-3.379021,600.2,4,5,236.2,0.0
55.58,1,-0.004,-0.014,-0.01,-0.0,-0.014,-0.014,-1.533,0.009,0.31,55.01,144.6,40.498154,-3.379021,600.2,4,5,236.2,0.0
55.68,1,-0.04,0.05,-0.019,-0.007,0.017,-0.015,-1.53,0.011,0.31,55.01,144.6,40.498154,-3.379021,600.2,4,5,236.2,0.0
55.78,1,-0.019,0.023,-0.012,-0.025,0.019,-0.015,-1.528,0.011,0.31,55.01,144.6,40.498154,-3.379021,600.2,4,5,236.2,0.0
55.88,1,0.019,0.01,0.009,-0.002,0.019,-0.002,-1.529,0.011,0.31,55.01,144.6,40.498154,-3.379021,600.2,4,5,236.2,0.0
55.99,1,-0.023,-0.019,0.004,-0.008,0.002,0.002,-1.528,0.014,0.31,55.01,144.6,40.498154,-3.379021,600.2,4,5,236.2,0.0
56.09,1,0.016,0.022,-0.023,-0.002,0.003,-0.008,-1.527,0.012,0.31,55.01,144.6,40.498154,-3.379021,600.2,4,5,236.2,0.0
56.18,1,-0.028,-0.012,-0.011,-0.008,0.004,-0.015,-1.526,0.011,0.31,55.01,144.6,40.498154,-3.379021,600.2,4,5,236.2,0.0
56.28,1,-0.05,-0.015,-0.017,-0.028,-0.009,-0.014,-1.527,0.013,0.31,55.92,144.6,40.498154,-3.379021,600.2,4,5,236.2,0.352
56.38,1,-0.011,-0.01,-0.0,-0.03,-0.014,-0.009,-1.526,0.013,0.311,55.92,144.6,40.498154,-3.379021,600.2,4,5,236.2,0.352
56.48,1,0.038,-0.004,-0.008,0.005,-0.006,-0.004,-1.526,0.014,0.312,55.92,144.6,40.498154,-3.379021,600.2,4,5,236.2,0.352
56.58,1,0.033,-0.014,-0.005,0.022,-0.008,-0.007,-1.524,0.019,0.312,55.92,144.6,40.498154,-3.379021,600.2,4,5,236.2,0.352
56.68,1,0.008,-0.029,0.002,0.022,-0.021,-0.002,-1.522,0.022,0.313,55.92,144.6,40.498154,-3.379021,600.2,4,5,236.2,0.352
56.78,1,-0.02,-0.012,-0.007,0.004,-0.018,-0.003,-1.523,0.022,0.313,55.92,144.6,40.498154,-3.379021,600.2,4,5,236.2,0.352
56.88,1,-0.009,0.004,-0.008,-0.009,-0.006,-0.009,-1.525,0.021,0.313,55.92,144.6,40.498154,-3.379021,600.2,4,5,236.2,0.352
56.98,1,-0.051,0.041,-0.017,-0.022,0.013,-0.01,-1.528,0.021,0.313,55.92,144.6,40.498154,-3.379021,600.2,4,5,236.2,0.352
57.09,1,-0.078,0.028,-0.028,-0.058,0.024,-0.021,-1.528,0.019,0.313,55.92,144.6,40.498154,-3.379021,600.2,4,5,236.2,0.352
57.19,1,-0.029,0.029,-0.027,-0.049,0.034,-0.025,-1.529,0.017,0.313,55.92,144.6,40.498154,-3.379021,600.2,4,5,236.2,0.352
57.29,1,-0.027,-0.013,0.015,-0.038,0.01,-0.007,-1.528,0.017,0.313,56.91,142.4,40.497959,-3.379415,598.8,4,5,236.2,0.352
57.38,1,0.005,0.002,0.014,-0.018,0.003,0.004,-1.53,0.015,0.313,56.91,142.4,40.497959,-3.379415,598.8,4,5,236.2,0.352
57.49,1,0.014,0.022,0.019,0.0,0.01,0.012,-1.531,0.014,0.313,56.91,142.4,40.497959,-3.379415,598.8,4,5,236.2,0.352
57.59,1,0.031,-0.009,0.023,0.022,0.003,0.018,-1.534,0.013,0.312,56.91,142.4,40.497959,-3.379415,598.8,4,5,236.2,0.352
57.69,1,-0.003,0.025,-0.001,0.011,0.012,0.013,-1.536,0.013,0.312,56.91,142.4,40.497959,-3.379415,598.8,4,5,236.2,0.352
57.79,1,-0.018,0.029,-0.017,-0.003,0.018,-0.002,-1.537,0.012,0.312,56.91,142.4,40.497959,-3.379415,598.8,4,5,236.2,0.352
57.89,1,-0.036,0.022,-0.035,-0.018,0.028,-0.02,-1.533,0.011,0.311,56.91,142.4,40.497959,-3.379415,598.8,4,5,236.2,0.352
58.09,1,0.002,0.019,-0.02,-0.038,0.003,-0.019,-1.534,0.002,0.31,56.91,142.4,40.497959,-3.379415,598.8,4,5,236.2,0.352
58.19,1,0.0,0.013,0.011,-0.003,0.005,-0.002,-1.533,-0.0,0.31,56.91,142.4,40.497959,-3.379415,598.8,4,5,236.2,0.352
58.29,1,-0.032,0.033,0.0,-0.018,0.021,-0.005,-1.53,-0.003,0.309,56.91,142.4,40.497959,-3.379415,598.8,4,5,236.2,0.352
58.39,1,0.012,0.021,0.001,-0.014,0.023,-0.001,-1.526,-0.003,0.309,57.92,142.0,40.497757,-3.379805,600.8,3,5,235.9,0.352
58.5,1,-0.012,0.003,-0.006,0.001,0.016,-0.004,-1.521,-0.003,0.308,57.92,142.0,40.497757,-3.379805,600.8,3,5,235.9,0.352
58.59,1,-0.021,0.01,0.019,-0.018,0.008,0.009,-1.517,-0.004,0.308,57.92,142.0,40.497757,-3.379805,600.8,3,5,235.9,0.352
58.69,1,-0.007,0.028,-0.007,-0.012,0.016,-0.001,-1.518,-0.006,0.307,57.92,142.0,40.497757,-3.379805,600.8,3,5,235.9,0.352
58.79,1,-0.041,-0.006,0.018,-0.029,0.012,0.011,-1.519,-0.005,0.307,57.92,142.0,40.497757,-3.379805,600.8,3,5,235.9,0.352
58.9,1,-0.005,-0.006,0.008,-0.018,-0.004,0.011,-1.515,-0.002,0.307,57.92,142.0,40.497757,-3.379805,600.8,3,5,235.9,0.352
58.99,1,-0.037,-0.025,-0.008,-0.018,-0.009,0.003,-1.512,0.001,0.307,57.92,142.0,40.497757,-3.379805,600.8,3,5,235.9,0.352
59.1,1,-0.036,-0.032,0.019,-0.035,-0.024,0.005,-1.51,0.002,0.307,57.92,142.0,40.497757,-3.379805,600.8,3,5,235.9,0.352
59.19,1,0.013,-0.0,-0.003,-0.018,-0.019,0.002,-1.506,0.001,0.308,57.92,142.0,40.497757,-3.379805,600.8,3,5,235.9,0.352
59.29,1,0.018,-0.011,0.005,0.01,-0.001,-0.002,-1.504,0.001,0.308,57.92,142.0,40.497757,-3.379805,600.8,3,5,235.9,0.352
59.39,1,-0.006,-0.023,0.003,0.004,-0.028,0.011,-1.503,-0.0,0.308,58.92,140.9,40.497551,-3.380196,597.5,3,5,236.2,0.352
59.5,1,0.016,-0.006,0.018,0.008,-0.011,0.011,-1.5,-0.001,0.309,58.92,140.9,40.497551,-3.380196,597.5,3,5,236.2,0.352
59.59,1,-0.017,-0.004,0.005,0.001,-0.002,0.005,-1.499,0.003,0.309,58.92,140.9,40.497551,-3.380196,597.5,3,5,236.2,0.352
59.7,1,-0.031,-0.028,0.012,-0.023,-0.017,0.012,-1.502,0.004,0.309,58.92,140.9,40.497551,-3.380196,597.5,3,5,236.2,0.352
59.79,1,-0.012,-0.006,-0.003,-0.018,-0.014,0.003,-1.502,0.003,0.31,58.92,140.9,40.497551,-3.380196,597.5,3,5,236.2,0.352
59.89,1,-0.04,0.007,0.004,-0.024,-0.002,0.003,-1.502,0.003,0.31,58.92,140.9,40.497551,-3.380196,597.5,3,5,236.2,0.352
59.99,1,-0.026,-0.007,-0.001,-0.026,-0.005,0.002,-1.505,0.003,0.31,58.92,140.9,40.497551,-3.380196,597.5,3,5,236.2,0.352
60.1,1,0.006,0.015,0.017,-0.013,0.006,0.004,-1.502,0.0,0.309,58.92,140.9,40.497551,-3.380196,597.5,3,5,236.2,0.352
60.2,1,-0.003,0.011,0.028,-0.006,0.008,0.021,-1.506,-0.002,0.309,58.92,140.9,40.497551,-3.380196,597.5,3,5,236.2,0.352
60.3,1,-0.005,-0.013,0.022,-0.005,-0.0,0.023,-1.509,-0.003,0.308,58.92,140.9,40.497551,-3.380196,597.5,3,5,236.2,0.352
60.39,1,-0.014,-0.007,0.028,-0.008,-0.002,0.022,-1.513,-0.004,0.308,59.91,138.5,40.497353,-3.380581,598.3,3,5,236.6,0.703
60.5,1,-0.005,-0.013,0.028,-0.005,-0.011,0.026,-1.515,-0.004,0.308,59.91,138.5,40.497353,-3.380581,598.3,3,5,236.6,0.703
60.6,1,0.007,-0.003,0.019,-0.013,-0.009,0.021,-1.517,-0.005,0.308,59.91,138.5,40.497353,-3.380581,598.3,3,5,236.6,0.703
60.7,1,-0.017,-0.002,0.027,-0.004,-0.005,0.026,-1.521,-0.005,0.307,59.91,138.5,40.497353,-3.380581,598.3,3,5,236.6,0.703
60.8,1,-0.035,-0.004,-0.005,-0.02,-0.002,0.014,-1.525,-0.006,0.307,59.91,138.5,40.497353,-3.380581,598.3,3,5,236.6,0.703
60.91,1,0.017,0.003,-0.003,-0.009,-0.004,0.007,-1.529,-0.005,0.307,59.91,138.5,40.497353,-3.380581,598.3,3,5,236.6,0.703
61.0,1,-0.072,0.014,-0.033,-0.017,0.009,-0.019,-1.53,-0.007,0.307,59.91,138.5,40.497353,-3.380581,598.3,3,5,236.6,0.703
61.1,1,-0.06,-0.009,0.011,-0.057,-0.0,-0.009,-1.533,-0.009,0.306,59.91,138.5,40.497353,-3.380581,598.3,3,5,236.6,0.703
61.2,1,0.031,0.002,-0.018,-0.019,-0.001,-0.003,-1.534,-0.008,0.306,59.91,138.5,40.497353,-3.380581,598.3,3,5,236.6,0.703
61.31,1,0.026,0.013,-0.022,0.014,0.01,-0.016,-1.531,-0.007,0.306,59.91,138.5,40.497353,-3.380581,598.3,3,5,236.6,0.703
61.4,1,-0.039,-0.016,-0.003,-0.004,-0.002,-0.017,-1.533,-0.006,0.305,60.92,138.1,40.497158,-3.380952,598.1,3,5,236.6,0.352
61.5,1,-0.06,-0.022,-0.001,-0.038,-0.015,-0.004,-1.534,-0.004,0.305,60.92,138.1,40.497158,-3.380952,598.1,3,5,236.6,0.352
61.61,1,-0.013,-0.007,-0.005,-0.035,-0.008,-0.002,-1.533,-0.005,0.305,60.92,138.1,40.497158,-3.380952,598.1,3,5,236.6,0.352
61.7,1,0.016,-0.056,-0.021,-0.008,-0.035,-0.012,-1.531,-0.005,0.305,60.92,138.1,40.497158,-3.380952,598.1,3,5,236.6,0.352
61.8,1,0.012,0.01,-0.017,0.012,-0.017,-0.013,-1.531,-0.005,0.305,60.92,138.1,40.497158,-3.380952,598.1,3,5,236.6,0.352
61.9,1,-0.015,-0.022,0.012,-0.003,-0.014,-0.005,-1.532,-0.005,0.305,60.92,138.1,40.497158,-3.380952,598.1,3,5,236.6,0.352
62.0,1,-0.01,-0.013,-0.004,-0.012,-0.013,0.001,-1.534,-0.004,0.305,60.92,138.1,40.497158,-3.380952,598.1,3,5,236.6,0.352
62.11,1,-0.042,0.02,-0.029,-0.02,0.001,-0.016,-1.531,-0.006,0.305,60.92,138.1,40.497158,-3.380952,598.1,3,5,236.6,0.352
62.2,1,-0.118,-0.002,0.011,-0.064,-0.006,-0.006,-1.532,-0.007,0.305,60.92,138.1,40.497158,-3.380952,598.1,3,5,236.6,0.352
62.3,1,-0.01,-0.048,0.029,-0.055,-0.016,0.011,-1.532,-0.006,0.305,60.92,138.1,40.497158,-3.380952,598.1,3,5,236.6,0.352
62.4,1,0.016,-0.051,-0.015,-0.021,-0.029,0.006,-1.532,-0.005,0.305,61.92,139.0,40.496967,-3.381336,597.0,3,5,236.2,0.352
62.5,1,0.006,-0.015,0.003,-0.002,-0.034,0.002,-1.534,0.001,0.305,61.92,139.0,40.496967,-3.381336,597.0,3,5,236.2,0.352
62.6,1,-0.001,-0.015,-0.018,0.009,-0.025,-0.008,-1.532,-0.0,0.306,61.92,139.0,40.496967,-3.381336,597.0,3,5,236.2,0.352
62.71,1,0.0,-0.016,0.006,-0.004,-0.02,-0.008,-1.53,0.002,0.306,61.92,139.0,40.496967,-3.381336,597.0,3,5,236.2,0.352
62.83,1,-0.026,-0.022,0.011,-0.013,-0.012,0.003,-1.532,0.005,0.306,61.92,139.0,40.496967,-3.381336,597.0,3,5,236.2,0.352
62.91,1,-0.027,-0.004,0.013,-0.017,-0.008,0.012,-1.536,0.003,0.306,61.92,139.0,40.496967,-3.381336,597.0,3,5,236.2,0.352
63.01,1,-0.05,-0.018,0.004,-0.039,-0.02,0.007,-1.535,0.004,0.307,61.92,139.0,40.496967,-3.381336,597.0,3,5,236.2,0.352
63.1,1,-0.039,-0.028,-0.001,-0.04,-0.022,0.004,-1.536,0.003,0.307,61.92,139.0,40.496967,-3.381336,597.0,3,5,236.2,0.352
63.21,1,0.024,0.007,0.001,-0.014,-0.011,-0.003,-1.537,0.003,0.307,61.92,139.0,40.496967,-3.381336,597.0,3,5,236.2,0.352
63.31,1,0.01,0.001,0.009,0.009,-0.001,0.009,-1.538,0.002,0.307,61.92,139.0,40.496967,-3.381336,597.0,3,5,236.2,0.352
63.4,1,-0.047,-0.038,0.008,-0.017,-0.019,0.008,-1.54,0.001,0.307,62.98,137.8,40.49659,-3.382094,598.7,3,5,236.2,0.352
63.5,1,-0.003,-0.005,0.002,-0.015,-0.012,0.005,-1.543,0.005,0.308,62.98,137.8,40.49659,-3.382094,598.7,3,5,236.2,0.352
63.61,1,-0.082,0.0,-0.008,-0.048,-0.01,0.0,-1.545,0.007,0.308,62.98,137.8,40.49659,-3.382094,598.7,3,5,236.2,0.352
63.71,1,-0.03,-0.013,-0.006,-0.049,-0.012,-0.005,-1.545,0.006,0.308,62.98,137.8,40.49659,-3.382094,598.7,3,5,236.2,0.352
63.81,1,-0.038,-0.024,0.004,-0.033,-0.015,0.001,-1.548,0.009,0.309,62.98,137.8,40.49659,-3.382094,598.7,3,5,236.2,0.352
63.91,1,-0.02,-0.011,0.013,-0.032,-0.018,0.007,-1.548,0.009,0.309,62.98,137.8,40.49659,-3.382094,598.7,3,5,236.2,0.352
64.01,1,0.007,-0.028,-0.003,-0.012,-0.011,0.005,-1.549,0.013,0.31,62.98,137.8,40.49659,-3.382094,598.7,3,5,236.2,0.352
64.11,1,-0.001,-0.023,0.01,-0.005,-0.022,0.001,-1.547,0.017,0.31,62.98,137.8,40.49659,-3.382094,598.7,3,5,236.2,0.352
64.21,1,0.056,-0.062,0.034,0.016,-0.04,0.019,-1.547,0.016,0.311,62.98,137.8,40.49659,-3.382094,598.7,3,5,236.2,0.352
64.31,1,0.044,-0.01,0.003,0.048,-0.041,0.013,-1.545,0.014,0.312,62.98,137.8,40.49659,-3.382094,598.7,3,5,236.2,0.352
64.41,1,0.01,-0.027,0.004,0.028,-0.016,0.007,-1.545,0.015,0.313,63.92,137.8,40.49659,-3.382094,598.7,3,5,236.2,0.0
64.51,1,-0.014,-0.027,-0.047,0.011,-0.026,-0.015,-1.54,0.019,0.314,63.92,137.8,40.49659,-3.382094,598.7,3,5,236.2,0.0
64.61,1,-0.047,-0.04,-0.019,-0.023,-0.038,-0.025,-1.539,0.021,0.316,63.92,137.8,40.49659,-3.382094,598.7,3,5,236.2,0.0
64.71,1,-0.056,-0.027,0.039,-0.044,-0.029,-0.0,-1.538,0.022,0.317,63.92,137.8,40.49659,-3.382094,598.7,3,5,236.2,0.0
64.81,1,-0.011,-0.021,0.002,-0.034,-0.031,0.017,-1.539,0.027,0.318,63.92,137.8,40.49659,-3.382094,598.7,3,5,236.2,0.0
64.92,1,-0.04,0.004,-0.006,-0.034,-0.012,0.0,-1.54,0.03,0.318,63.92,137.8,40.49659,-3.382094,598.7,3,5,236.2,0.0
65.01,1,-0.008,-0.024,-0.004,-0.017,-0.012,-0.001,-1.539,0.029,0.319,63.92,137.8,40.49659,-3.382094,598.7,3,5,236.2,0.0
65.12,1,-0.048,-0.046,0.029,-0.033,-0.028,0.007,-1.535,0.032,0.319,63.92,137.8,40.49659,-3.382094,598.7,3,5,236.2,0.0
65.22,1,-0.022,-0.006,0.006,-0.027,-0.021,0.018,-1.537,0.034,0.32,63.92,137.8,40.49659,-3.382094,598.7,3,5,236.2,0.0
65.31,1,-0.082,-0.031,-0.007,-0.055,-0.021,0.0,-1.539,0.035,0.322,63.92,137.8,40.49659,-3.382094,598.7,3,5,236.2,0.0
65.41,1,-0.029,-0.039,0.019,-0.048,-0.026,0.009,-1.539,0.037,0.324,64.92,137.1,40.496391,-3.382472,595.8,3,5,236.2,0.0
65.51,1,-0.024,-0.023,-0.026,-0.02,-0.031,-0.005,-1.539,0.037,0.325,64.92,137.1,40.496391,-3.382472,595.8,3,5,236.2,0.0
65.61,1,-0.064,-0.016,0.008,-0.058,-0.026,0.002,-1.539,0.039,0.326,64.92,137.1,40.496391,-3.382472,595.8,3,5,236.2,0.0
65.71,1,-0.021,-0.029,-0.001,-0.042,-0.02,-0.001,-1.536,0.038,0.327,64.92,137.1,40.496391,-3.382472,595.8,3,5,236.2,0.0
65.82,1,-0.016,-0.037,0.02,-0.024,-0.03,0.001,-1.532,0.039,0.328,64.92,137.1,40.496391,-3.382472,595.8,3,5,236.2,0.0
65.91,1,0.012,-0.007,0.018,-0.004,-0.028,0.016,-1.534,0.038,0.329,64.92,137.1,40.496391,-3.382472,595.8,3,5,236.2,0.0
66.01,1,-0.018,-0.041,-0.001,-0.003,-0.027,0.01,-1.536,0.041,0.331,64.92,137.1,40.496391,-3.382472,595.8,3,5,236.2,0.0
66.12,1,-0.024,-0.009,-0.01,-0.023,-0.023,-0.001,-1.533,0.042,0.333,64.92,137.1,40.496391,-3.382472,595.8,3,5,236.2,0.0
66.21,1,-0.033,-0.017,0.014,-0.02,-0.015,0.002,-1.535,0.042,0.334,64.92,137.1,40.496391,-3.382472,595.8,3,5,236.2,0.0
66.32,1,-0.023,0.003,-0.016,-0.029,-0.012,0.0,-1.534,0.041,0.335,64.92,137.1,40.496391,-3.382472,595.8,3,5,236.2,0.0
66.41,1,-0.011,0.02,-0.014,-0.015,0.007,-0.015,-1.531,0.038,0.335,65.94,136.0,40.496201,-3.382844,596.5,3,5,235.9,0.352
66.52,1,-0.033,0.019,0.003,-0.025,0.013,-0.006,-1.533,0.037,0.336,65.94,136.0,40.496201,-3.382844,596.5,3,5,235.9,0.352
66.62,1,-0.036,0.012,-0.009,-0.029,0.016,-0.001,-1.533,0.036,0.336,65.94,136.0,40.496201,-3.382844,596.5,3,5,235.9,0.352
66.72,1,0.014,0.022,-0.024,-0.014,0.012,-0.015,-1.535,0.035,0.337,65.94,136.0,40.496201,-3.382844,596.5,3,5,235.9,0.352
66.82,1,0.015,0.002,0.021,0.004,0.013,-0.001,-1.537,0.035,0.337,65.94,136.0,40.496201,-3.382844,596.5,3,5,235.9,0.352
66.92,1,0.014,0.019,-0.006,0.013,0.014,0.002,-1.54,0.033,0.338,65.94,136.0,40.496201,-3.382844,596.5,3,5,235.9,0.352
67.02,1,0.017,-0.033,-0.016,0.004,-0.007,-0.005,-1.542,0.034,0.339,65.94,136.0,40.496201,-3.382844,596.5,3,5,235.9,0.352
67.12,1,0.068,-0.023,0.016,0.037,-0.013,-0.0,-1.546,0.036,0.339,65.94,136.0,40.496201,-3.382844,596.5,3,5,235.9,0.352
67.22,1,-0.037,0.029,-0.013,0.017,0.003,-0.002,-1.548,0.037,0.34,65.94,136.0,40.496201,-3.382844,596.5,3,5,235.9,0.352
67.32,1,-0.044,0.031,0.0,-0.018,0.019,-0.009,-1.546,0.034,0.34,65.94,136.0,40.496201,-3.382844,596.5,3,5,235.9,0.352
67.42,1,-0.03,0.027,-0.058,-0.019,0.024,-0.025,-1.537,0.033,0.341,66.98,135.8,40.495811,-3.383575,596.4,3,5,234.5,1.406
67.53,1,-0.074,0.01,-0.053,-0.055,0.02,-0.045,-1.535,0.032,0.341,66.98,135.8,40.495811,-3.383575,596.4,3,5,234.5,1.406
67.62,1,-0.016,-0.011,-0.014,-0.048,0.002,-0.037,-1.534,0.031,0.341,66.98,135.8,40.495811,-3.383575,596.4,3,5,234.5,1.406
67.72,1,0.009,-0.005,-0.011,-0.012,0.0,-0.014,-1.532,0.03,0.341,66.98,135.8,40.495811,-3.383575,596.4,3,5,234.5,1.406
67.82,1,-0.029,0.013,-0.033,-0.012,0.001,-0.021,-1.533,0.032,0.342,66.98,135.8,40.495811,-3.383575,596.4,3,5,234.5,1.406
67.92,1,0.001,0.014,0.01,-0.014,0.008,-0.014,-1.532,0.032,0.342,66.98,135.8,40.495811,-3.383575,596.4,3,5,234.5,1.406
68.02,1,0.015,0.017,-0.016,0.001,0.023,-0.004,-1.531,0.034,0.343,66.98,135.8,40.495811,-3.383575,596.4,3,5,234.5,1.406
68.13,1,-0.019,-0.012,0.005,-0.006,-0.005,-0.004,-1.53,0.036,0.343,66.98,135.8,40.495811,-3.383575,596.4,3,5,234.5,1.406
68.22,1,-0.053,0.025,0.007,-0.028,0.009,-0.0,-1.528,0.037,0.343,66.98,135.8,40.495811,-3.383575,596.4,3,5,234.5,1.406
68.32,1,0.014,0.01,-0.01,-0.016,0.012,-0.002,-1.528,0.036,0.343,66.98,135.8,40.495811,-3.383575,596.4,3,5,234.5,1.406
68.42,1,-0.012,0.018,0.005,-0.002,0.015,-0.007,-1.526,0.036,0.343,67.92,135.8,40.495811,-3.383575,596.4,3,5,234.5,1.406
68.53,1,-0.027,0.026,0.001,-0.022,0.015,0.006,-1.526,0.035,0.343,67.92,135.8,40.495811,-3.383575,596.4,3,5,234.5,1.406
68.62,1,0.001,0.031,-0.003,-0.011,0.03,-0.003,-1.526,0.031,0.343,67.92,135.8,40.495811,-3.383575,596.4,3,5,234.5,1.406
68.73,1,-0.02,-0.024,0.028,-0.01,0.003,0.011,-1.529,0.031,0.343,67.92,135.8,40.495811,-3.383575,596.4,3,5,234.5,1.406
68.83,1,-0.029,0.026,-0.007,-0.02,0.007,0.006,-1.531,0.029,0.343,67.92,135.8,40.495811,-3.383575,596.4,3,5,234.5,1.406
68.92,1,-0.029,-0.008,0.031,-0.027,0.012,0.016,-1.531,0.028,0.344,67.92,135.8,40.495811,-3.383575,596.4,3,5,234.5,1.406
69.02,1,-0.027,-0.013,0.018,-0.03,-0.007,0.022,-1.531,0.028,0.344,67.92,135.8,40.495811,-3.383575,596.4,3,5,234.5,1.406
69.13,1,-0.001,-0.009,0.022,-0.017,-0.005,0.02,-1.532,0.028,0.344,67.92,135.8,40.495811,-3.383575,596.4,3,5,234.5,1.406
69.23,1,0.009,-0.026,0.01,-0.003,-0.014,0.015,-1.534,0.028,0.345,67.92,135.8,40.495811,-3.383575,596.4,3,5,234.5,1.406
69.33,1,0.013,-0.005,0.021,0.009,-0.019,0.016,-1.536,0.028,0.345,67.92,135.8,40.495811,-3.383575,596.4,3,5,234.5,1.406
69.43,1,0.009,0.005,-0.007,0.009,-0.001,0.006,-1.537,0.029,0.346,68.95,133.0,40.495415,-3.384284,596.0,3,5,233.8,0.703
69.52,1,-0.011,-0.001,0.026,0.003,-0.006,0.012,-1.537,0.031,0.348,68.95,133.0,40.495415,-3.384284,596.0,3,5,233.8,0.703
69.62,1,-0.024,-0.018,0.009,-0.009,-0.011,0.017,-1.539,0.035,0.348,68.95,133.0,40.495415,-3.384284,596.0,3,5,233.8,0.703
69.73,1,0.017,-0.006,0.028,-0.003,-0.006,0.019,-1.541,0.038,0.35,68.95,133.0,40.495415,-3.384284,596.0,3,5,233.8,0.703
69.83,1,-0.039,-0.004,0.009,-0.013,-0.01,0.016,-1.544,0.04,0.35,68.95,133.0,40.495415,-3.384284,596.0,3,5,233.8,0.703
69.94,1,0.024,-0.029,0.028,-0.002,-0.011,0.02,-1.545,0.038,0.351,68.95,133.0,40.495415,-3.384284,596.0,3,5,233.8,0.703
70.03,1,-0.008,0.004,0.024,-0.003,-0.008,0.021,-1.547,0.035,0.351,68.95,133.0,40.495415,-3.384284,596.0,3,5,233.8,0.703
70.13,1,0.012,-0.017,0.029,0.004,-0.009,0.024,-1.549,0.034,0.352,68.95,133.0,40.495415,-3.384284,596.0,3,5,233.8,0.703
70.23,1,-0.045,-0.009,0.013,-0.016,-0.013,0.022,-1.552,0.035,0.352,68.95,133.0,40.495415,-3.384284,596.0,3,5,233.8,0.703
70.33,1,-0.038,0.009,0.007,-0.034,-0.003,0.014,-1.554,0.034,0.353,68.95,133.0,40.495415,-3.384284,596.0,3,5,233.8,0.703
70.43,1,-0.057,-0.01,0.022,-0.044,0.001,0.015,-1.555,0.033,0.353,69.95,133.0,40.495216,-3.384636,596.0,3,5,233.8,0.352
70.53,1,0.03,-0.001,0.015,-0.017,-0.011,0.018,-1.556,0.035,0.354,69.95,133.0,40.495216,-3.384636,596.0,3,5,233.8,0.352
70.64,1,0.022,-0.017,0.001,0.02,-0.004,0.009,-1.555,0.032,0.354,69.95,133.0,40.495216,-3.384636,596.0,3,5,233.8,0.352
70.73,1,-0.052,-0.034,0.003,-0.008,-0.024,0.007,-1.554,0.032,0.354,69.95,133.0,40.495216,-3.384636,596.0,3,5,233.8,0.352
70.83,1,-0.061,-0.007,0.029,-0.044,-0.016,0.015,-1.553,0.032,0.354,69.95,133.0,40.495216,-3.384636,596.0,3,5,233.8,0.352
70.93,1,-0.01,0.014,0.014,-0.043,-0.011,0.012,-1.554,0.028,0.354,69.95,133.0,40.495216,-3.384636,596.0,3,5,233.8,0.352
71.03,1,-0.028,0.016,0.022,-0.011,0.016,0.019,-1.554,0.026,0.354,69.95,133.0,40.495216,-3.384636,596.0,3,5,233.8,0.352
71.14,1,-0.036,0.01,0.018,-0.043,0.015,0.016,-1.553,0.024,0.355,69.95,133.0,40.495216,-3.384636,596.0,3,5,233.8,0.352
71.23,1,0.074,0.022,0.02,0.008,0.006,0.024,-1.553,0.03,0.355,69.95,133.0,40.495216,-3.384636,596.0,3,5,233.8,0.352
71.33,1,0.064,0.002,0.025,0.055,0.013,0.021,-1.555,0.031,0.355,69.95,133.0,40.495216,-3.384636,596.0,3,5,233.8,0.352
71.43,1,-0.033,-0.018,0.031,0.015,0.002,0.024,-1.56,0.028,0.355,70.91,133.0,40.495216,-3.384636,596.0,3,5,233.8,0.352
71.53,1,0.044,0.018,0.038,0.01,-0.002,0.039,-1.558,0.024,0.354,70.91,133.0,40.495216,-3.384636,596.0,3,5,233.8,0.352
71.64,1,0.077,-0.021,0.029,0.049,-0.011,0.035,-1.555,0.022,0.354,70.91,133.0,40.495216,-3.384636,596.0,3,5,233.8,0.352
71.74,1,0.05,0.022,0.006,0.065,0.01,0.019,-1.554,0.021,0.355,70.91,133.0,40.495216,-3.384636,596.0,3,5,233.8,0.352
71.84,1,-0.032,0.017,0.006,0.021,0.012,0.008,-1.553,0.021,0.355,70.91,133.0,40.495216,-3.384636,596.0,3,5,233.8,0.352
71.93,1,-0.112,0.006,0.031,-0.057,0.014,0.021,-1.554,0.022,0.355,70.91,133.0,40.495216,-3.384636,596.0,3,5,233.8,0.352
72.03,1,-0.013,0.02,-0.014,-0.047,0.008,0.004,-1.558,0.025,0.355,70.91,133.0,40.495216,-3.384636,596.0,3,5,233.8,0.352
72.13,1,-0.05,0.011,0.026,-0.046,0.023,0.013,-1.558,0.023,0.356,70.91,133.0,40.495216,-3.384636,596.0,3,5,233.8,0.352
72.23,1,-0.019,-0.038,-0.0,-0.033,-0.006,0.009,-1.562,0.025,0.357,70.91,133.0,40.495216,-3.384636,596.0,3,5,233.8,0.352
72.34,1,0.005,-0.014,0.005,-0.009,-0.022,0.005,-1.564,0.026,0.357,70.91,133.0,40.495216,-3.384636,596.0,3,5,233.8,0.352
72.43,1,-0.008,-0.007,0.023,-0.004,-0.01,0.012,-1.567,0.027,0.358,71.92,133.8,40.495037,-3.384963,595.6,3,5,232.7,1.055
72.53,1,-0.036,-0.004,0.01,-0.017,-0.006,0.014,-1.566,0.029,0.359,71.92,133.8,40.495037,-3.384963,595.6,3,5,232.7,1.055
72.64,1,0.009,-0.025,0.016,-0.017,-0.015,0.014,-1.566,0.031,0.359,71.92,133.8,40.495037,-3.384963,595.6,3,5,232.7,1.055
72.73,1,0.069,0.018,-0.011,0.023,-0.006,0.008,-1.568,0.033,0.36,71.92,133.8,40.495037,-3.384963,595.6,3,5,232.7,1.055
72.84,1,-0.006,0.015,0.003,0.021,0.011,-0.004,-1.568,0.032,0.36,71.92,133.8,40.495037,-3.384963,595.6,3,5,232.7,1.055
72.94,1,0.008,-0.022,0.019,0.01,-0.005,0.009,-1.57,0.034,0.361,71.92,133.8,40.495037,-3.384963,595.6,3,5,232.7,1.055
73.04,1,0.008,-0.019,-0.018,0.023,-0.013,0.003,-1.573,0.039,0.362,71.92,133.8,40.495037,-3.384963,595.6,3,5,232.7,1.055
73.14,1,-0.052,-0.015,-0.019,-0.02,-0.013,-0.017,-1.574,0.042,0.362,71.92,133.8,40.495037,-3.384963,595.6,3,5,232.7,1.055
73.24,1,0.008,0.002,-0.014,-0.014,-0.009,-0.011,-1.573,0.043,0.363,71.92,133.8,40.495037,-3.384963,595.6,3,5,232.7,1.055
73.34,1,-0.03,0.002,-0.029,-0.018,-0.001,-0.02,-1.571,0.044,0.363,71.92,133.8,40.495037,-3.384963,595.6,3,5,232.7,1.055
73.44,1,-0.013,0.004,-0.017,-0.014,0.001,-0.021,-1.57,0.046,0.364,72.93,134.7,40.49485,-3.385295,595.3,3,5,232.4,1.406
73.54,1,-0.02,0.001,-0.018,-0.022,-0.003,-0.018,-1.569,0.048,0.364,72.93,134.7,40.49485,-3.385295,595.3,3,5,232.4,1.406
73.64,1,0.031,-0.001,-0.03,0.002,0.003,-0.026,-1.567,0.047,0.364,72.93,134.7,40.49485,-3.385295,595.3,3,5,232.4,1.406
73.74,1,-0.01,0.018,-0.01,0.003,0.005,-0.016,-1.565,0.048,0.364,72.93,134.7,40.49485,-3.385295,595.3,3,5,232.4,1.406
73.84,1,-0.03,0.0,-0.011,-0.011,0.007,-0.01,-1.562,0.047,0.364,72.93,134.7,40.49485,-3.385295,595.3,3,5,232.4,1.406
73.94,1,0.006,0.027,0.022,-0.013,0.013,0.001,-1.56,0.046,0.365,72.93,134.7,40.49485,-3.385295,595.3,3,5,232.4,1.406
74.05,1,-0.035,-0.01,0.012,-0.017,0.006,0.013,-1.559,0.047,0.365,72.93,134.7,40.49485,-3.385295,595.3,3,5,232.4,1.406
74.14,1,-0.032,0.018,-0.005,-0.028,0.005,0.003,-1.559,0.046,0.365,72.93,134.7,40.49485,-3.385295,595.3,3,5,232.4,1.406
74.25,1,0.002,-0.003,-0.017,-0.014,0.01,-0.008,-1.559,0.045,0.365,72.93,134.7,40.49485,-3.385295,595.3,3,5,232.4,1.406
74.34,1,-0.001,-0.024,-0.006,-0.002,-0.008,-0.011,-1.558,0.044,0.365,72.93,134.7,40.49485,-3.385295,595.3,3,5,232.4,1.406
74.44,1,-0.044,0.002,0.022,-0.016,-0.011,0.005,-1.561,0.042,0.366,74.03,134.6,40.494419,-3.386005,594.8,3,5,231.3,0.703
74.54,1,0.003,0.021,-0.007,-0.023,0.008,0.0,-1.563,0.037,0.366,74.03,134.6,40.494419,-3.386005,594.8,3,5,231.3,0.703
74.64,1,0.004,-0.033,-0.019,0.002,0.001,-0.003,-1.564,0.038,0.366,74.03,134.6,40.494419,-3.386005,594.8,3,5,231.3,0.703
74.74,1,-0.016,-0.058,-0.023,-0.004,-0.036,-0.026,-1.565,0.037,0.366,74.03,134.6,40.494419,-3.386005,594.8,3,5,231.3,0.703
74.84,1,0.021,-0.004,0.0,-0.003,-0.025,-0.007,-1.565,0.037,0.366,74.03,134.6,40.494419,-3.386005,594.8,3,5,231.3,0.703
74.94,1,0.002,0.023,-0.014,0.008,-0.008,-0.005,-1.565,0.038,0.366,74.03,134.6,40.494419,-3.386005,594.8,3,5,231.3,0.703
75.04,1,-0.023,0.023,-0.018,-0.011,0.013,-0.015,-1.561,0.032,0.365,74.03,134.6,40.494419,-3.386005,594.8,3,5,231.3,0.703
75.14,1,-0.02,-0.012,0.002,-0.016,0.003,-0.007,-1.562,0.029,0.365,74.03,134.6,40.494419,-3.386005,594.8,3,5,231.3,0.703
75.25,1,-0.018,0.002,0.012,-0.016,0.005,0.0,-1.56,0.029,0.365,74.03,134.6,40.494419,-3.386005,594.8,3,5,231.3,0.703
75.34,1,-0.011,-0.014,0.017,-0.022,-0.008,0.011,-1.561,0.029,0.366,74.03,134.6,40.494419,-3.386005,594.8,3,5,231.3,0.703
75.44,1,-0.002,-0.004,-0.006,-0.006,-0.004,0.004,-1.559,0.03,0.366,74.93,134.6,40.494419,-3.386005,594.8,3,5,231.3,1.055
75.54,1,-0.003,-0.007,0.002,-0.006,-0.006,-0.0,-1.56,0.03,0.366,74.93,134.6,40.494419,-3.386005,594.8,3,5,231.3,1.055
75.65,1,-0.026,0.002,-0.006,-0.012,-0.003,-0.004,-1.559,0.031,0.366,74.93,134.6,40.494419,-3.386005,594.8,3,5,231.3,1.055
75.74,1,-0.022,0.004,0.015,-0.019,-0.004,0.006,-1.561,0.03,0.366,74.93,134.6,40.494419,-3.386005,594.8,3,5,231.3,1.055
75.85,1,-0.017,-0.025,-0.007,-0.019,-0.008,0.004,-1.56,0.032,0.366,74.93,134.6,40.494419,-3.386005,594.8,3,5,231.3,1.055
75.95,1,0.018,0.009,-0.001,-0.005,-0.006,-0.001,-1.559,0.032,0.366,74.93,134.6,40.494419,-3.386005,594.8,3,5,231.3,1.055
76.05,1,0.008,0.029,-0.025,0.007,0.013,-0.007,-1.559,0.033,0.367,74.93,134.6,40.494419,-3.386005,594.8,3,5,231.3,1.055
76.15,1,-0.039,0.003,-0.024,-0.01,0.017,-0.022,-1.557,0.035,0.366,74.93,134.6,40.494419,-3.386005,594.8,3,5,231.3,1.055
76.25,1,-0.018,-0.036,-0.007,-0.024,-0.013,-0.013,-1.558,0.035,0.366,74.93,134.6,40.494419,-3.386005,594.8,3,5,231.3,1.055
76.35,1,0.007,0.005,-0.001,-0.007,-0.006,-0.006,-1.558,0.033,0.366,74.93,134.6,40.494419,-3.386005,594.8,3,5,231.3,1.055
76.45,1,0.036,0.014,-0.02,0.013,0.004,-0.015,-1.558,0.032,0.366,75.93,134.9,40.494209,-3.386345,594.8,3,5,231.0,1.055
76.55,1,0.059,0.004,0.02,0.036,0.003,-0.002,-1.559,0.034,0.367,75.93,134.9,40.494209,-3.386345,594.8,3,5,231.0,1.055
76.66,1,-0.042,-0.003,-0.023,0.016,0.003,-0.004,-1.56,0.035,0.367,75.93,134.9,40.494209,-3.386345,594.8,3,5,231.0,1.055
76.75,1,-0.06,-0.024,-0.001,-0.033,-0.013,-0.007,-1.561,0.034,0.367,75.93,134.9,40.494209,-3.386345,594.8,3,5,231.0,1.055
76.85,1,0.066,0.025,-0.004,-0.0,0.006,-0.006,-1.56,0.036,0.367,75.93,134.9,40.494209,-3.386345,594.8,3,5,231.0,1.055
76.95,1,0.01,-0.011,-0.042,0.015,0.001,-0.014,-1.558,0.039,0.367,75.93,134.9,40.494209,-3.386345,594.8,3,5,231.0,1.055
77.06,1,-0.004,-0.011,-0.027,0.011,-0.009,-0.029,-1.554,0.04,0.367,75.93,134.9,40.494209,-3.386345,594.8,3,5,231.0,1.055
77.16,1,-0.051,0.001,-0.049,-0.018,-0.004,-0.036,-1.552,0.04,0.367,75.93,134.9,40.494209,-3.386345,594.8,3,5,231.0,1.055
77.26,1,-0.038,0.012,-0.067,-0.036,0.005,-0.051,-1.548,0.039,0.366,75.93,134.9,40.494209,-3.386345,594.8,3,5,231.0,1.055
77.35,1,-0.004,0.014,-0.032,-0.028,0.005,-0.051,-1.546,0.037,0.366,75.93,134.9,40.494209,-3.386345,594.8,3,5,231.0,1.055
77.45,1,-0.051,-0.007,-0.035,-0.033,0.007,-0.039,-1.547,0.036,0.366,76.92,135.0,40.493988,-3.386697,594.8,3,5,230.6,0.703
77.55,1,-0.01,0.005,-0.024,-0.023,-0.001,-0.035,-1.546,0.037,0.366,76.92,135.0,40.493988,-3.386697,594.8,3,5,230.6,0.703
77.65,1,0.042,-0.018,-0.02,0.01,-0.005,-0.023,-1.545,0.035,0.366,76.92,135.0,40.493988,-3.386697,594.8,3,5,230.6,0.703
77.75,1,-0.05,0.009,-0.014,-0.002,0.003,-0.024,-1.544,0.035,0.366,76.92,135.0,40.493988,-3.386697,594.8,3,5,230.6,0.703
77.86,1,-0.049,-0.009,0.021,-0.042,-0.004,0.006,-1.543,0.033,0.365,76.92,135.0,40.493988,-3.386697,594.8,3,5,230.6,0.703
78.05,1,-0.011,0.001,-0.031,-0.002,-0.002,-0.015,-1.539,0.032,0.365,76.92,135.0,40.493988,-3.386697,594.8,3,5,230.6,0.703
78.15,1,-0.028,-0.014,-0.001,-0.023,-0.008,-0.013,-1.537,0.032,0.365,76.92,135.0,40.493988,-3.386697,594.8,3,5,230.6,0.703
78.26,1,0.012,0.012,0.01,-0.006,0.0,-0.004,-1.537,0.036,0.365,76.92,135.0,40.493988,-3.386697,594.8,3,5,230.6,0.703
78.35,1,-0.051,0.015,-0.023,-0.021,0.01,-0.008,-1.536,0.035,0.365,76.92,135.0,40.493988,-3.386697,594.8,3,5,230.6,0.703
78.46,1,0.031,-0.021,0.015,-0.01,0.002,-0.002,-1.536,0.038,0.364,76.92,135.0,40.493988,-3.386697,594.8,3,5,230.6,0.703
78.55,1,0.042,-0.017,-0.021,0.035,-0.01,-0.005,-1.536,0.041,0.364,77.92,135.3,40.493774,-3.387037,594.7,3,5,230.3,0.703
78.65,1,-0.009,-0.011,-0.007,0.019,-0.016,-0.014,-1.535,0.039,0.364,77.92,135.3,40.493774,-3.387037,594.7,3,5,230.3,0.703
78.75,1,-0.077,0.006,-0.028,-0.037,-0.005,-0.017,-1.533,0.035,0.364,77.92,135.3,40.493774,-3.387037,594.7,3,5,230.3,0.703
78.86,1,-0.059,0.02,-0.022,-0.051,0.01,-0.022,-1.53,0.031,0.363,77.92,135.3,40.493774,-3.387037,594.7,3,5,230.3,0.703
78.95,1,-0.018,0.012,-0.017,-0.045,0.005,-0.017,-1.53,0.029,0.363,77.92,135.3,40.493774,-3.387037,594.7,3,5,230.3,0.703
79.07,1,-0.024,0.006,-0.004,-0.026,0.012,-0.012,-1.53,0.026,0.363,77.92,135.3,40.493774,-3.387037,594.7,3,5,230.3,0.703
79.16,1,0.037,0.006,-0.029,-0.002,0.01,-0.014,-1.527,0.025,0.362,77.92,135.3,40.493774,-3.387037,594.7,3,5,230.3,0.703
79.26,1,0.044,0.016,-0.002,0.028,0.012,-0.014,-1.527,0.027,0.362,77.92,135.3,40.493774,-3.387037,594.7,3,5,230.3,0.703
79.36,1,-0.023,0.019,-0.003,0.004,0.01,-0.006,-1.528,0.028,0.361,77.92,135.3,40.493774,-3.387037,594.7,3,5,230.3,0.703
79.46,1,0.006,0.015,0.001,0.003,0.02,-0.006,-1.526,0.027,0.36,77.92,135.3,40.493774,-3.387037,594.7,3,5,230.3,0.703
79.56,1,-0.033,0.026,0.008,-0.005,0.021,0.0,-1.523,0.025,0.36,78.93,134.5,40.493561,-3.387373,593.5,3,5,229.9,0.703
79.66,1,-0.059,0.01,0.022,-0.04,0.022,0.012,-1.52,0.024,0.359,78.93,134.5,40.493561,-3.387373,593.5,3,5,229.9,0.703
79.77,1,-0.029,-0.002,0.002,-0.035,0.001,0.007,-1.518,0.022,0.358,78.93,134.5,40.493561,-3.387373,593.5,3,5,229.9,0.703
79.86,1,0.025,0.012,-0.003,-0.016,0.0,0.008,-1.519,0.025,0.357,78.93,134.5,40.493561,-3.387373,593.5,3,5,229.9,0.703
79.96,1,-0.018,-0.05,0.003,-0.008,-0.01,-0.001,-1.519,0.031,0.357,78.93,134.5,40.493561,-3.387373,593.5,3,5,229.9,0.703
80.06,1,-0.054,-0.013,0.034,-0.038,-0.017,0.017,-1.521,0.032,0.358,78.93,134.5,40.493561,-3.387373,593.5,3,5,229.9,0.703
80.16,1,0.02,-0.044,0.016,-0.011,-0.031,0.016,-1.522,0.036,0.358,78.93,134.5,40.493561,-3.387373,593.5,3,5,229.9,0.703
80.26,1,0.001,-0.016,0.004,0.012,-0.028,0.012,-1.521,0.037,0.359,78.93,134.5,40.493561,-3.387373,593.5,3,5,229.9,0.703
80.36,1,-0.034,-0.027,-0.003,-0.01,-0.018,0.004,-1.523,0.039,0.36,78.93,134.5,40.493561,-3.387373,593.5,3,5,229.9,0.703
80.46,1,-0.039,-0.038,-0.007,-0.031,-0.037,0.0,-1.526,0.045,0.362,78.93,134.5,40.493561,-3.387373,593.5,3,5,229.9,0.703
80.56,1,-0.024,-0.035,-0.008,-0.03,-0.038,-0.001,-1.524,0.048,0.363,79.99,132.1,40.49313,-3.388036,592.8,3,5,229.2,0.703
80.67,1,-0.017,-0.048,-0.024,-0.025,-0.044,-0.011,-1.525,0.052,0.365,79.99,132.1,40.49313,-3.388036,592.8,3,5,229.2,0.703
80.76,1,0.0,0.002,-0.014,-0.013,-0.022,-0.018,-1.527,0.055,0.365,79.99,132.1,40.49313,-3.388036,592.8,3,5,229.2,0.703
80.86,1,0.004,-0.017,0.009,-0.003,-0.013,-0.004,-1.524,0.054,0.366,79.99,132.1,40.49313,-3.388036,592.8,3,5,229.2,0.703
80.96,1,-0.03,0.017,0.0,-0.006,0.002,0.0,-1.525,0.053,0.366,79.99,132.1,40.49313,-3.388036,592.8,3,5,229.2,0.703
81.07,1,-0.031,-0.03,-0.004,-0.028,-0.006,-0.008,-1.525,0.053,0.366,79.99,132.1,40.49313,-3.388036,592.8,3,5,229.2,0.703
81.17,1,-0.013,0.053,0.013,-0.024,0.014,0.004,-1.524,0.053,0.367,79.99,132.1,40.49313,-3.388036,592.8,3,5,229.2,0.703
81.27,1,0.037,-0.016,0.048,0.007,0.001,0.022,-1.522,0.053,0.367,79.99,132.1,40.49313,-3.388036,592.8,3,5,229.2,0.703
81.36,1,0.076,-0.013,-0.012,0.044,-0.005,0.02,-1.523,0.056,0.368,79.99,132.1,40.49313,-3.388036,592.8,3,5,229.2,0.703
81.47,1,-0.018,-0.003,0.001,0.024,-0.002,0.002,-1.527,0.053,0.369,79.99,132.1,40.49313,-3.388036,592.8,3,5,229.2,0.703
81.57,1,-0.088,-0.003,0.016,-0.028,-0.004,0.009,-1.531,0.055,0.37,80.97,132.1,40.49313,-3.388036,592.8,3,5,229.2,0.703
81.67,1,-0.098,-0.038,0.003,-0.077,-0.021,0.008,-1.529,0.057,0.371,80.97,132.1,40.49313,-3.388036,592.8,3,5,229.2,0.703
81.76,1,0.03,-0.03,0.014,-0.035,-0.025,0.007,-1.532,0.056,0.372,80.97,132.1,40.49313,-3.388036,592.8,3,5,229.2,0.703
81.86,1,0.047,-0.022,-0.001,0.026,-0.031,0.008,-1.536,0.057,0.374,80.97,132.1,40.49313,-3.388036,592.8,3,5,229.2,0.703
81.97,1,-0.054,-0.027,-0.017,-0.01,-0.022,-0.009,-1.537,0.058,0.376,80.97,132.1,40.49313,-3.388036,592.8,3,5,229.2,0.703
82.07,1,-0.03,-0.056,0.027,-0.035,-0.035,0.013,-1.534,0.062,0.378,80.97,132.1,40.49313,-3.388036,592.8,3,5,229.2,0.703
82.18,1,0.011,0.005,0.01,-0.012,-0.03,0.007,-1.534,0.064,0.379,80.97,132.1,40.49313,-3.388036,592.8,3,5,229.2,0.703
82.27,1,-0.011,-0.014,0.03,-0.003,-0.013,0.022,-1.535,0.064,0.38,80.97,132.1,40.49313,-3.388036,592.8,3,5,229.2,0.703
82.37,1,0.031,0.02,0.022,0.008,0.004,0.024,-1.533,0.061,0.38,80.97,132.1,40.49313,-3.388036,592.8,3,5,229.2,0.703
82.47,1,0.022,-0.017,0.055,0.024,-0.0,0.031,-1.536,0.062,0.382,80.97,132.1,40.49313,-3.388036,592.8,3,5,229.2,0.703
82.57,1,-0.019,-0.061,0.02,0.0,-0.033,0.035,-1.539,0.067,0.384,81.91,131.2,40.492905,-3.388362,592.3,4,5,228.5,1.055
82.67,1,-0.035,-0.054,0.02,-0.017,-0.049,0.027,-1.542,0.074,0.386,81.91,131.2,40.492905,-3.388362,592.3,4,5,228.5,1.055
82.77,1,-0.022,-0.043,0.005,-0.031,-0.04,0.017,-1.543,0.077,0.389,81.91,131.2,40.492905,-3.388362,592.3,4,5,228.5,1.055
82.87,1,-0.032,-0.027,0.012,-0.02,-0.046,0.01,-1.544,0.08,0.392,81.91,131.2,40.492905,-3.388362,592.3,4,5,228.5,1.055
82.97,1,0.024,-0.09,0.033,-0.016,-0.056,0.02,-1.545,0.085,0.394,81.91,131.2,40.492905,-3.388362,592.3,4,5,228.5,1.055
83.07,1,0.015,-0.081,0.008,0.01,-0.072,0.022,-1.545,0.087,0.397,81.91,131.2,40.492905,-3.388362,592.3,4,5,228.5,1.055
83.17,1,-0.011,-0.03,0.012,0.006,-0.06,0.016,-1.548,0.087,0.399,81.91,131.2,40.492905,-3.388362,592.3,4,5,228.5,1.055
83.28,1,-0.056,-0.007,0.003,-0.021,-0.03,0.002,-1.551,0.085,0.4,81.91,131.2,40.492905,-3.388362,592.3,4,5,228.5,1.055
83.38,1,-0.053,0.025,0.01,-0.048,-0.002,0.012,-1.554,0.078,0.4,81.91,131.2,40.492905,-3.388362,592.3,4,5,228.5,1.055
83.47,1,0.006,0.06,0.014,-0.025,0.029,0.01,-1.556,0.07,0.399,81.91,131.2,40.492905,-3.388362,592.3,4,5,228.5,1.055
83.57,1,0.016,0.071,0.015,-0.0,0.06,0.014,-1.556,0.065,0.397,82.91,131.2,40.492687,-3.388684,591.9,4,5,228.5,0.703
83.67,1,-0.022,0.071,0.008,0.003,0.054,0.013,-1.556,0.061,0.397,82.91,131.2,40.492687,-3.388684,591.9,4,5,228.5,0.703
83.78,1,0.01,0.052,0.022,-0.008,0.059,0.014,-1.559,0.057,0.396,82.91,131.2,40.492687,-3.388684,591.9,4,5,228.5,0.703
83.87,1,-0.002,0.063,0.004,0.0,0.061,0.012,-1.558,0.051,0.395,82.91,131.2,40.492687,-3.388684,591.9,4,5,228.5,0.703
83.97,1,-0.058,0.054,0.004,-0.022,0.068,0.004,-1.556,0.047,0.394,82.91,131.2,40.492687,-3.388684,591.9,4,5,228.5,0.703
84.07,1,-0.018,0.033,0.017,-0.036,0.042,0.011,-1.558,0.042,0.393,82.91,131.2,40.492687,-3.388684,591.9,4,5,228.5,0.703
84.17,1,0.032,0.057,0.019,0.003,0.049,0.02,-1.559,0.038,0.392,82.91,131.2,40.492687,-3.388684,591.9,4,5,228.5,0.703
84.27,1,0.047,0.071,-0.015,0.025,0.055,0.004,-1.56,0.034,0.391,82.91,131.2,40.492687,-3.388684,591.9,4,5,228.5,0.703
84.37,1,0.005,0.057,0.024,0.022,0.06,0.007,-1.562,0.028,0.389,82.91,131.2,40.492687,-3.388684,591.9,4,5,228.5,0.703
84.48,1,-0.029,0.042,-0.002,-0.001,0.057,0.01,-1.562,0.02,0.388,82.91,131.2,40.492687,-3.388684,591.9,4,5,228.5,0.703
84.58,1,-0.098,0.045,0.016,-0.045,0.051,0.006,-1.563,0.018,0.386,84.0,132.2,40.492237,-3.389315,593.2,4,5,225.7,1.406
84.67,1,-0.04,0.047,-0.008,-0.063,0.038,0.003,-1.564,0.016,0.385,84.0,132.2,40.492237,-3.389315,593.2,4,5,225.7,1.406
84.77,1,0.015,0.047,0.02,-0.03,0.058,0.005,-1.566,0.012,0.383,84.0,132.2,40.492237,-3.389315,593.2,4,5,225.7,1.406
84.87,1,-0.011,0.054,-0.014,-0.016,0.046,0.002,-1.568,0.008,0.382,84.0,132.2,40.492237,-3.389315,593.2,4,5,225.7,1.406
84.97,1,0.042,0.033,0.008,0.013,0.039,0.005,-1.57,0.004,0.38,84.0,132.2,40.492237,-3.389315,593.2,4,5,225.7,1.406
85.08,1,0.01,0.045,-0.016,0.028,0.043,-0.004,-1.571,0.001,0.379,84.0,132.2,40.492237,-3.389315,593.2,4,5,225.7,1.406
85.18,1,-0.022,0.017,-0.017,0.001,0.035,-0.012,-1.569,-0.001,0.377,84.0,132.2,40.492237,-3.389315,593.2,4,5,225.7,1.406
85.27,1,-0.03,0.005,0.01,-0.015,0.02,-0.009,-1.567,-0.003,0.376,84.0,132.2,40.492237,-3.389315,593.2,4,5,225.7,1.406
85.38,1,-0.019,0.022,-0.004,-0.027,0.019,0.001,-1.568,-0.002,0.375,84.0,132.2,40.492237,-3.389315,593.2,4,5,225.7,1.406
85.48,1,-0.006,-0.014,-0.003,-0.013,0.005,-0.008,-1.567,-0.002,0.375,84.0,132.2,40.492237,-3.389315,593.2,4,5,225.7,1.406
85.58,1,-0.009,-0.029,0.001,-0.012,-0.021,0.007,-1.569,-0.001,0.375,85.0,131.8,40.492004,-3.389626,591.5,4,5,225.7,1.406
85.69,1,-0.005,-0.003,-0.001,-0.009,-0.015,0.001,-1.57,-0.002,0.374,85.0,131.8,40.492004,-3.389626,591.5,4,5,225.7,1.406
85.78,1,0.012,-0.014,0.01,0.005,-0.003,0.004,-1.574,-0.0,0.373,85.0,131.8,40.492004,-3.389626,591.5,4,5,225.7,1.406
85.88,1,0.004,-0.006,-0.007,0.007,-0.014,0.0,-1.572,-0.002,0.373,85.0,131.8,40.492004,-3.389626,591.5,4,5,225.7,1.406
85.98,1,-0.005,0.001,-0.017,0.006,-0.007,-0.008,-1.571,-0.001,0.372,85.0,131.8,40.492004,-3.389626,591.5,4,5,225.7,1.406
86.08,1,-0.013,-0.0,-0.014,-0.004,-0.001,-0.016,-1.573,0.001,0.372,85.0,131.8,40.492004,-3.389626,591.5,4,5,225.7,1.406
86.18,1,-0.051,-0.021,0.002,-0.02,-0.011,-0.011,-1.571,0.003,0.371,85.0,131.8,40.492004,-3.389626,591.5,4,5,225.7,1.406
86.29,1,0.003,0.008,0.005,-0.027,0.001,-0.001,-1.572,0.008,0.371,85.0,131.8,40.492004,-3.389626,591.5,4,5,225.7,1.406
86.39,1,0.038,-0.012,-0.003,0.008,-0.007,0.003,-1.569,0.01,0.37,85.0,131.8,40.492004,-3.389626,591.5,4,5,225.7,1.406
86.49,1,-0.042,0.004,0.003,-0.01,-0.002,-0.0,-1.564,0.01,0.369,85.0,131.8,40.492004,-3.389626,591.5,4,5,225.7,1.406
86.58,1,-0.021,0.012,-0.007,-0.025,0.004,0.003,-1.564,0.01,0.367,85.97,133.0,40.491779,-3.389941,592.0,4,5,226.1,1.406
86.68,1,-0.019,0.01,0.027,-0.016,0.005,0.008,-1.565,0.007,0.366,85.97,133.0,40.491779,-3.389941,592.0,4,5,226.1,1.406
86.78,1,-0.008,0.007,0.009,-0.015,0.013,0.013,-1.564,0.005,0.365,85.97,133.0,40.491779,-3.389941,592.0,4,5,226.1,1.406
86.88,1,0.006,0.014,0.008,-0.009,0.011,0.01,-1.562,0.0,0.364,85.97,133.0,40.491779,-3.389941,592.0,4,5,226.1,1.406
86.98,1,-0.002,-0.001,0.001,0.008,0.004,0.007,-1.561,0.002,0.363,85.97,133.0,40.491779,-3.389941,592.0,4,5,226.1,1.406
87.08,1,-0.038,-0.013,0.011,-0.013,-0.004,0.003,-1.564,0.002,0.362,85.97,133.0,40.491779,-3.389941,592.0,4,5,226.1,1.406
87.18,1,-0.068,0.024,0.055,-0.041,0.009,0.027,-1.565,0.002,0.361,85.97,133.0,40.491779,-3.389941,592.0,4,5,226.1,1.406
87.28,1,-0.017,-0.02,0.007,-0.041,-0.004,0.02,-1.564,0.003,0.36,85.97,133.0,40.491779,-3.389941,592.0,4,5,226.1,1.406
87.39,1,0.118,0.01,-0.002,0.021,0.001,0.015,-1.563,0.003,0.358,85.97,133.0,40.491779,-3.389941,592.0,4,5,226.1,1.406
87.48,1,0.037,0.029,-0.017,0.073,0.017,-0.007,-1.564,0.004,0.357,85.97,133.0,40.491779,-3.389941,592.0,4,5,226.1,1.406
87.58,1,-0.062,-0.015,0.0,-0.005,0.003,-0.009,-1.565,-0.001,0.356,86.92,133.0,40.491779,-3.389941,592.0,4,5,226.1,0.352
87.68,1,-0.002,0.018,0.011,-0.021,0.002,0.008,-1.562,-0.004,0.355,86.92,133.0,40.491779,-3.389941,592.0,4,5,226.1,0.352
87.78,1,-0.037,0.008,-0.005,-0.023,0.011,0.008,-1.556,-0.004,0.354,86.92,133.0,40.491779,-3.389941,592.0,4,5,226.1,0.352
87.88,1,-0.035,-0.029,0.029,-0.028,-0.001,0.008,-1.553,-0.0,0.354,86.92,133.0,40.491779,-3.389941,592.0,4,5,226.1,0.352
88.08,1,-0.001,-0.019,0.022,-0.024,-0.013,0.005,-1.549,0.004,0.353,86.92,133.0,40.491779,-3.389941,592.0,4,5,226.1,0.352
88.18,1,0.019,-0.007,0.008,-0.0,-0.013,0.014,-1.552,0.005,0.353,86.92,133.0,40.491779,-3.389941,592.0,4,5,226.1,0.352
88.28,1,0.011,-0.024,0.007,0.01,-0.014,0.01,-1.551,0.005,0.352,86.92,133.0,40.491779,-3.389941,592.0,4,5,226.1,0.352
88.38,1,-0.023,-0.01,0.023,-0.002,-0.013,0.014,-1.553,0.004,0.352,86.92,133.0,40.491779,-3.389941,592.0,4,5,226.1,0.352
88.48,1,0.012,-0.006,-0.003,-0.005,-0.016,0.014,-1.551,0.005,0.352,86.92,133.0,40.491779,-3.389941,592.0,4,5,226.1,0.352
88.59,1,-0.035,-0.034,-0.016,-0.013,-0.021,-0.003,-1.551,0.004,0.352,86.92,133.0,40.491779,-3.389941,592.0,4,5,226.1,0.352
88.69,1,-0.029,-0.02,-0.011,-0.037,-0.022,-0.007,-1.554,0.002,0.352,87.93,133.7,40.49155,-3.390254,591.9,4,5,226.1,0.352
88.8,1,-0.006,-0.0,-0.011,-0.013,-0.011,-0.011,-1.553,0.003,0.352,87.93,133.7,40.49155,-3.390254,591.9,4,5,226.1,0.352
88.89,1,-0.006,-0.029,0.01,-0.004,-0.02,-0.003,-1.552,0.004,0.351,87.93,133.7,40.49155,-3.390254,591.9,4,5,226.1,0.352
88.99,1,0.044,-0.037,-0.006,0.016,-0.024,-0.002,-1.549,0.004,0.351,87.93,133.7,40.49155,-3.390254,591.9,4,5,226.1,0.352
89.09,1,0.059,0.016,0.017,0.035,-0.012,0.003,-1.548,0.002,0.351,87.93,133.7,40.49155,-3.390254,591.9,4,5,226.1,0.352
89.19,1,-0.02,-0.02,0.009,0.023,-0.01,0.011,-1.547,0.003,0.35,87.93,133.7,40.49155,-3.390254,591.9,4,5,226.1,0.352
89.29,1,-0.073,0.001,0.003,-0.033,-0.007,0.006,-1.546,0.005,0.349,87.93,133.7,40.49155,-3.390254,591.9,4,5,226.1,0.352
89.39,1,-0.037,0.013,-0.003,-0.042,0.001,-0.0,-1.546,0.003,0.348,87.93,133.7,40.49155,-3.390254,591.9,4,5,226.1,0.352
89.49,1,-0.033,0.016,0.006,-0.04,0.013,0.004,-1.548,0.001,0.348,87.93,133.7,40.49155,-3.390254,591.9,4,5,226.1,0.352
89.59,1,0.02,0.015,0.01,-0.014,0.015,0.005,-1.547,0.001,0.347,87.93,133.7,40.49155,-3.390254,591.9,4,5,226.1,0.352
89.69,1,0.026,0.019,0.002,0.018,0.015,0.006,-1.548,0.001,0.346,88.95,134.0,40.491322,-3.390569,592.1,4,5,226.1,0.0
89.79,1,-0.005,-0.0,0.0,0.005,0.008,0.004,-1.551,-0.001,0.346,88.95,134.0,40.491322,-3.390569,592.1,4,5,226.1,0.0
89.89,1,-0.025,0.021,-0.019,-0.003,0.01,-0.004,-1.551,-0.001,0.345,88.95,134.0,40.491322,-3.390569,592.1,4,5,226.1,0.0
90.0,1,-0.075,-0.001,0.011,-0.04,0.012,-0.005,-1.55,0.0,0.344,88.95,134.0,40.491322,-3.390569,592.1,4,5,226.1,0.0
90.09,1,-0.042,0.011,0.005,-0.049,0.004,0.005,-1.551,0.004,0.343,88.95,134.0,40.491322,-3.390569,592.1,4,5,226.1,0.0
90.19,1,0.014,0.025,-0.02,-0.022,0.02,-0.009,-1.549,0.004,0.342,88.95,134.0,40.491322,-3.390569,592.1,4,5,226.1,0.0
90.29,1,-0.01,0.012,0.023,-0.015,0.012,0.005,-1.549,0.005,0.342,88.95,134.0,40.491322,-3.390569,592.1,4,5,226.1,0.0
90.39,1,0.031,0.032,0.004,0.003,0.023,0.009,-1.55,0.003,0.341,88.95,134.0,40.491322,-3.390569,592.1,4,5,226.1,0.0
90.49,1,-0.005,0.025,-0.0,0.014,0.022,0.002,-1.549,0.0,0.34,88.95,134.0,40.491322,-3.390569,592.1,4,5,226.1,0.0
90.59,1,0.006,-0.006,0.019,0.002,0.014,0.009,-1.55,-0.001,0.339,88.95,134.0,40.491322,-3.390569,592.1,4,5,226.1,0.0
90.69,1,0.011,0.035,-0.008,0.011,0.021,0.003,-1.55,-0.0,0.339,89.96,134.4,40.491085,-3.390886,593.5,4,5,226.1,0.0
90.79,1,-0.079,-0.001,0.017,-0.03,0.015,0.007,-1.547,-0.001,0.338,89.96,134.4,40.491085,-3.390886,593.5,4,5,226.1,0.0
90.89,1,-0.011,0.012,0.016,-0.036,0.008,0.017,-1.548,0.0,0.337,89.96,134.4,40.491085,-3.390886,593.5,4,5,226.1,0.0
91.0,1,0.01,-0.018,0.006,-0.004,-0.001,0.007,-1.547,0.001,0.337,89.96,134.4,40.491085,-3.390886,593.5,4,5,226.1,0.0
91.09,1,-0.007,-0.004,0.014,-0.001,-0.003,0.011,-1.548,0.0,0.336,89.96,134.4,40.491085,-3.390886,593.5,4,5,226.1,0.0
91.2,1,-0.011,0.014,-0.005,-0.01,0.005,0.004,-1.548,-0.0,0.336,89.96,134.4,40.491085,-3.390886,593.5,4,5,226.1,0.0
91.29,1,-0.007,0.008,0.011,-0.013,0.006,0.004,-1.549,-0.0,0.335,89.96,134.4,40.491085,-3.390886,593.5,4,5,226.1,0.0
91.39,1,-0.03,-0.019,0.003,-0.013,-0.002,0.007,-1.549,-0.0,0.335,89.96,134.4,40.491085,-3.390886,593.5,4,5,226.1,0.0
91.5,1,-0.027,0.009,-0.003,-0.027,-0.001,0.001,-1.55,-0.002,0.334,89.96,134.4,40.491085,-3.390886,593.5,4,5,226.1,0.0
91.6,1,-0.041,0.011,0.01,-0.03,0.002,0.01,-1.551,-0.005,0.334,89.96,134.4,40.491085,-3.390886,593.5,4,5,226.1,0.0
91.7,1,-0.027,0.032,-0.022,-0.03,0.024,-0.003,-1.552,-0.007,0.333,90.93,134.5,40.490856,-3.391199,592.0,4,5,226.1,0.0
91.8,1,0.017,-0.007,0.009,-0.014,0.01,-0.008,-1.551,-0.008,0.332,90.93,134.5,40.490856,-3.391199,592.0,4,5,226.1,0.0
91.9,1,0.012,-0.021,0.017,0.006,-0.01,0.009,-1.552,-0.006,0.332,90.93,134.5,40.490856,-3.391199,592.0,4,5,226.1,0.0
92.0,1,0.041,-0.022,-0.005,0.021,-0.018,0.006,-1.555,-0.003,0.332,90.93,134.5,40.490856,-3.391199,592.0,4,5,226.1,0.0
92.1,1,0.029,0.012,0.025,0.034,-0.003,0.008,-1.554,-0.003,0.332,90.93,134.5,40.490856,-3.391199,592.0,4,5,226.1,0.0
92.2,1,-0.062,-0.018,-0.011,-0.009,-0.007,0.006,-1.554,0.001,0.332,90.93,134.5,40.490856,-3.391199,592.0,4,5,226.1,0.0
92.3,1,-0.038,-0.011,0.013,-0.033,-0.01,0.003,-1.556,0.002,0.333,90.93,134.5,40.490856,-3.391199,592.0,4,5,226.1,0.0
92.4,1,-0.078,-0.035,-0.009,-0.05,-0.023,0.004,-1.558,0.001,0.333,90.93,134.5,40.490856,-3.391199,592.0,4,5,226.1,0.0
92.5,1,-0.033,-0.008,-0.016,-0.056,-0.017,-0.01,-1.56,0.001,0.333,90.93,134.5,40.490856,-3.391199,592.0,4,5,226.1,0.0
92.6,1,0.024,-0.013,-0.011,-0.018,-0.012,-0.013,-1.561,0.001,0.333,90.93,134.5,40.490856,-3.391199,592.0,4,5,226.1,0.0
92.7,1,-0.001,-0.005,-0.005,0.0,-0.011,-0.009,-1.561,0.0,0.333,92.03,134.7,40.490383,-3.391839,590.5,4,5,226.4,0.352
92.81,1,0.046,-0.005,-0.008,0.018,-0.006,-0.004,-1.56,-0.0,0.334,92.03,134.7,40.490383,-3.391839,590.5,4,5,226.4,0.352
92.9,1,0.009,-0.048,0.002,0.025,-0.024,-0.003,-1.558,0.002,0.334,92.03,134.7,40.490383,-3.391839,590.5,4,5,226.4,0.352
93.0,1,0.017,-0.014,-0.018,0.014,-0.029,-0.005,-1.559,0.003,0.334,92.03,134.7,40.490383,-3.391839,590.5,4,5,226.4,0.352
93.1,1,0.034,0.019,0.002,0.02,-0.006,-0.008,-1.557,0.001,0.334,92.03,134.7,40.490383,-3.391839,590.5,4,5,226.4,0.352
93.2,1,-0.042,-0.014,0.009,0.008,0.004,-0.001,-1.555,0.003,0.334,92.03,134.7,40.490383,-3.391839,590.5,4,5,226.4,0.352
93.3,1,-0.092,-0.021,0.009,-0.05,-0.016,0.005,-1.558,0.005,0.334,92.03,134.7,40.490383,-3.391839,590.5,4,5,226.4,0.352
93.4,1,-0.045,-0.015,0.018,-0.059,-0.016,0.012,-1.562,0.008,0.334,92.03,134.7,40.490383,-3.391839,590.5,4,5,226.4,0.352
93.5,1,0.005,-0.026,-0.001,-0.024,-0.014,0.003,-1.564,0.008,0.334,92.03,134.7,40.490383,-3.391839,590.5,4,5,226.4,0.352
93.6,1,0.01,-0.013,-0.008,-0.009,-0.022,-0.001,-1.562,0.009,0.334,92.03,134.7,40.490383,-3.391839,590.5,4,5,226.4,0.352
93.7,1,0.031,0.004,0.008,0.015,-0.008,0.0,-1.563,0.011,0.334,93.0,134.6,40.490147,-3.392163,590.5,4,5,226.1,0.352
93.8,1,-0.026,0.018,-0.015,0.007,0.004,-0.001,-1.564,0.009,0.334,93.0,134.6,40.490147,-3.392163,590.5,4,5,226.1,0.352
93.9,1,-0.016,0.013,-0.012,-0.014,0.008,-0.007,-1.561,0.005,0.334,93.0,134.6,40.490147,-3.392163,590.5,4,5,226.1,0.352
94.01,1,0.003,-0.01,-0.007,-0.01,0.007,-0.009,-1.561,0.005,0.334,93.0,134.6,40.490147,-3.392163,590.5,4,5,226.1,0.352
94.11,1,-0.022,-0.012,0.001,-0.013,-0.005,-0.002,-1.559,0.005,0.334,93.0,134.6,40.490147,-3.392163,590.5,4,5,226.1,0.352
94.21,1,0.035,0.037,0.002,-0.0,0.008,0.001,-1.557,0.006,0.334,93.0,134.6,40.490147,-3.392163,590.5,4,5,226.1,0.352
94.31,1,0.018,0.009,0.004,0.018,0.017,0.003,-1.554,0.009,0.334,93.0,134.6,40.490147,-3.392163,590.5,4,5,226.1,0.352
94.41,1,-0.033,-0.004,-0.016,0.002,0.007,-0.006,-1.554,0.01,0.333,93.0,134.6,40.490147,-3.392163,590.5,4,5,226.1,0.352
94.5,1,-0.045,0.014,0.013,-0.034,0.008,0.0,-1.552,0.007,0.333,93.0,134.6,40.490147,-3.392163,590.5,4,5,226.1,0.352
94.61,1,-0.049,-0.016,-0.001,-0.041,-0.004,0.002,-1.55,0.008,0.333,93.0,134.6,40.490147,-3.392163,590.5,4,5,226.1,0.352
94.71,1,0.013,0.017,-0.005,-0.027,0.001,-0.002,-1.548,0.009,0.332,93.93,134.6,40.490147,-3.392163,590.5,4,5,226.1,0.352
94.81,1,0.009,0.054,0.009,0.007,0.028,0.003,-1.549,0.005,0.332,93.93,134.6,40.490147,-3.392163,590.5,4,5,226.1,0.352
94.91,1,-0.029,0.021,0.029,-0.011,0.039,0.015,-1.55,0.001,0.331,93.93,134.6,40.490147,-3.392163,590.5,4,5,226.1,0.352
95.01,1,-0.036,-0.012,0.001,-0.018,0.006,0.011,-1.549,0.003,0.331,93.93,134.6,40.490147,-3.392163,590.5,4,5,226.1,0.352
95.11,1,-0.049,0.014,-0.004,-0.032,0.003,0.002,-1.553,0.003,0.331,93.93,134.6,40.490147,-3.392163,590.5,4,5,226.1,0.352
95.21,1,0.013,-0.006,-0.011,-0.022,0.006,-0.007,-1.557,0.006,0.331,93.93,134.6,40.490147,-3.392163,590.5,4,5,226.1,0.352
95.31,1,0.024,0.002,-0.004,0.003,-0.001,-0.004,-1.557,0.006,0.33,93.93,134.6,40.490147,-3.392163,590.5,4,5,226.1,0.352
95.42,1,-0.009,0.024,0.0,0.005,0.013,-0.004,-1.556,0.005,0.33,93.93,134.6,40.490147,-3.392163,590.5,4,5,226.1,0.352
95.51,1,-0.006,-0.015,0.013,-0.002,0.001,0.004,-1.554,0.005,0.33,93.93,134.6,40.490147,-3.392163,590.5,4,5,226.1,0.352
95.61,1,-0.014,-0.009,-0.009,-0.011,-0.006,0.003,-1.556,0.004,0.329,93.93,134.6,40.490147,-3.392163,590.5,4,5,226.1,0.352
95.71,1,0.028,0.011,-0.019,0.0,0.003,-0.009,-1.554,0.004,0.329,94.93,135.1,40.489914,-3.392485,589.8,6,5,226.1,0.352
95.82,1,0.003,-0.019,-0.015,0.013,-0.003,-0.015,-1.55,0.003,0.329,94.93,135.1,40.489914,-3.392485,589.8,6,5,226.1,0.352
95.91,1,-0.043,-0.002,0.016,-0.014,-0.013,-0.002,-1.549,0.001,0.329,94.93,135.1,40.489914,-3.392485,589.8,6,5,226.1,0.352
96.02,1,-0.034,0.034,-0.016,-0.032,0.009,-0.003,-1.55,-0.003,0.329,94.93,135.1,40.489914,-3.392485,589.8,6,5,226.1,0.352
96.11,1,0.027,0.02,0.015,-0.007,0.023,-0.001,-1.547,-0.003,0.328,94.93,135.1,40.489914,-3.392485,589.8,6,5,226.1,0.352
96.21,1,-0.028,-0.011,0.003,-0.003,0.011,0.007,-1.546,-0.004,0.328,94.93,135.1,40.489914,-3.392485,589.8,6,5,226.1,0.352
96.31,1,0.016,0.027,-0.004,-0.001,0.014,-0.002,-1.544,-0.005,0.328,94.93,135.1,40.489914,-3.392485,589.8,6,5,226.1,0.352
96.42,1,-0.008,0.001,0.011,0.005,0.008,0.005,-1.543,-0.003,0.328,94.93,135.1,40.489914,-3.392485,589.8,6,5,226.1,0.352
96.52,1,-0.082,-0.035,0.027,-0.037,-0.011,0.015,-1.543,-0.003,0.328,94.93,135.1,40.489914,-3.392485,589.8,6,5,226.1,0.352
96.62,1,-0.032,-0.02,0.004,-0.046,-0.025,0.015,-1.545,-0.004,0.328,94.93,135.1,40.489914,-3.392485,589.8,6,5,226.1,0.352
96.72,1,0.014,-0.011,0.008,-0.019,-0.012,0.006,-1.545,-0.004,0.328,95.95,135.3,40.489674,-3.392807,590.0,6,5,226.1,0.0
96.81,1,0.003,-0.001,0.025,-0.002,-0.012,0.018,-1.548,-0.003,0.328,95.95,135.3,40.489674,-3.392807,590.0,6,5,226.1,0.0
96.91,1,0.057,0.002,-0.002,0.022,-0.006,0.012,-1.548,-0.0,0.327,95.95,135.3,40.489674,-3.392807,590.0,6,5,226.1,0.0
97.01,1,0.019,-0.029,0.001,0.03,-0.007,0.002,-1.548,-0.001,0.327,95.95,135.3,40.489674,-3.392807,590.0,6,5,226.1,0.0
97.11,1,-0.024,-0.004,0.036,0.003,-0.013,0.015,-1.55,-0.002,0.327,95.95,135.3,40.489674,-3.392807,590.0,6,5,226.1,0.0
97.22,1,-0.024,0.001,-0.004,-0.013,-0.009,0.014,-1.551,-0.004,0.327,95.95,135.3,40.489674,-3.392807,590.0,6,5,226.1,0.0
97.31,1,-0.072,-0.038,-0.008,-0.044,-0.019,-0.0,-1.551,-0.005,0.327,95.95,135.3,40.489674,-3.392807,590.0,6,5,226.1,0.0
97.41,1,-0.033,-0.011,0.023,-0.046,-0.016,0.004,-1.553,-0.005,0.328,95.95,135.3,40.489674,-3.392807,590.0,6,5,226.1,0.0
97.51,1,-0.025,-0.019,0.012,-0.035,-0.016,0.016,-1.555,-0.003,0.328,95.95,135.3,40.489674,-3.392807,590.0,6,5,226.1,0.0
97.62,1,-0.001,-0.023,-0.004,-0.02,-0.021,0.005,-1.554,-0.0,0.329,95.95,135.3,40.489674,-3.392807,590.0,6,5,226.1,0.0
97.71,1,-0.002,-0.003,0.0,-0.003,-0.012,0.002,-1.554,0.003,0.329,96.94,135.9,40.489445,-3.393128,590.5,6,5,225.4,0.703
97.83,1,-0.023,-0.034,0.015,-0.015,-0.02,0.009,-1.555,0.006,0.329,96.94,135.9,40.489445,-3.393128,590.5,6,5,225.4,0.703
97.92,1,0.018,0.007,0.009,-0.001,-0.016,0.009,-1.556,0.005,0.33,96.94,135.9,40.489445,-3.393128,590.5,6,5,225.4,0.703
98.02,1,-0.031,-0.002,0.002,-0.006,0.0,0.006,-1.556,0.005,0.33,96.94,135.9,40.489445,-3.393128,590.5,6,5,225.4,0.703
98.12,1,-0.027,-0.022,0.009,-0.021,-0.009,0.004,-1.556,0.008,0.331,96.94,135.9,40.489445,-3.393128,590.5,6,5,225.4,0.703
98.22,1,-0.022,0.009,0.002,-0.026,-0.004,0.006,-1.556,0.008,0.331,96.94,135.9,40.489445,-3.393128,590.5,6,5,225.4,0.703
98.32,1,-0.018,0.013,-0.0,-0.012,0.008,0.001,-1.556,0.009,0.332,96.94,135.9,40.489445,-3.393128,590.5,6,5,225.4,0.703
98.43,1,-0.035,-0.005,0.005,-0.029,-0.0,0.003,-1.557,0.009,0.332,96.94,135.9,40.489445,-3.393128,590.5,6,5,225.4,0.703
98.52,1,0.006,-0.006,0.01,-0.017,-0.005,0.006,-1.56,0.009,0.332,96.94,135.9,40.489445,-3.393128,590.5,6,5,225.4,0.703
98.62,1,-0.006,-0.017,0.011,-0.006,-0.009,0.011,-1.561,0.011,0.333,96.94,135.9,40.489445,-3.393128,590.5,6,5,225.4,0.703
98.72,1,-0.01,-0.009,-0.0,-0.005,-0.014,0.004,-1.56,0.011,0.333,97.94,135.4,40.489204,-3.393444,589.5,4,5,226.1,0.703
98.82,1,0.013,0.008,0.013,-0.002,-0.001,0.009,-1.56,0.01,0.333,97.94,135.4,40.489204,-3.393444,589.5,4,5,226.1,0.703
98.92,1,-0.044,-0.014,-0.008,-0.012,-0.005,0.003,-1.561,0.012,0.333,97.94,135.4,40.489204,-3.393444,589.5,4,5,226.1,0.703
99.03,1,-0.019,0.026,0.004,-0.032,0.004,0.001,-1.561,0.012,0.333,97.94,135.4,40.489204,-3.393444,589.5,4,5,226.1,0.703
99.13,1,0.02,0.028,-0.011,-0.003,0.02,-0.003,-1.561,0.012,0.333,97.94,135.4,40.489204,-3.393444,589.5,4,5,226.1,0.703
99.22,1,-0.019,0.012,-0.001,-0.003,0.02,-0.006,-1.561,0.012,0.333,97.94,135.4,40.489204,-3.393444,589.5,4,5,226.1,0.703
99.32,1,0.031,0.045,-0.009,0.004,0.026,-0.0,-1.561,0.009,0.332,97.94,135.4,40.489204,-3.393444,589.5,4,5,226.1,0.703
99.42,1,0.006,0.005,-0.016,0.014,0.026,-0.012,-1.56,0.008,0.332,97.94,135.4,40.489204,-3.393444,589.5,4,5,226.1,0.703
99.52,1,-0.032,0.008,0.017,-0.007,0.011,-0.002,-1.558,0.007,0.331,97.94,135.4,40.489204,-3.393444,589.5,4,5,226.1,0.703
99.62,1,-0.023,0.005,0.023,-0.02,0.008,0.015,-1.56,0.004,0.331,97.94,135.4,40.489204,-3.393444,589.5,4,5,226.1,0.703
99.72,1,-0.01,0.019,0.005,-0.013,0.012,0.011,-1.561,0.002,0.33,98.91,136.2,40.488968,-3.393768,589.7,4,5,226.1,0.703
99.82,1,-0.006,0.033,-0.007,-0.013,0.026,-0.001,-1.562,-0.001,0.33,98.91,136.2,40.488968,-3.393768,589.7,4,5,226.1,0.703
99.92,1,-0.01,-0.008,0.006,-0.013,0.017,0.002,-1.56,-0.002,0.33,98.91,136.2,40.488968,-3.393768,589.7,4,5,226.1,0.703
100.02,1,0.029,0.018,0.012,0.014,0.007,0.008,-1.56,0.0,0.33,98.91,136.2,40.488968,-3.393768,589.7,4,5,226.1,0.703
100.13,1,-0.018,0.018,0.003,0.001,0.014,0.009,-1.563,-0.001,0.329,98.91,136.2,40.488968,-3.393768,589.7,4,5,226.1,0.703
100.22,1,0.001,0.017,-0.022,-0.002,0.015,-0.005,-1.561,-0.001,0.329,98.91,136.2,40.488968,-3.393768,589.7,4,5,226.1,0.703
100.32,1,-0.041,0.029,-0.013,-0.012,0.023,-0.016,-1.559,-0.005,0.329,98.91,136.2,40.488968,-3.393768,589.7,4,5,226.1,0.703
100.42,1,-0.022,-0.009,0.026,-0.032,0.01,0.0,-1.557,-0.007,0.328,98.91,136.2,40.488968,-3.393768,589.7,4,5,226.1,0.703
100.52,1,0.006,0.0,0.013,-0.01,-0.0,0.015,-1.558,-0.006,0.328,98.91,136.2,40.488968,-3.393768,589.7,4,5,226.1,0.703
100.62,1,-0.0,-0.042,-0.008,-0.003,-0.013,0.003,-1.56,-0.003,0.327,98.91,136.2,40.488968,-3.393768,589.7,4,5,226.1,0.703
100.73,1,-0.014,0.016,-0.021,-0.006,-0.01,-0.009,-1.56,-0.004,0.327,100.0,136.9,40.488495,-3.394418,589.6,4,5,226.1,0.352
100.84,1,0.002,0.023,-0.012,-0.009,0.011,-0.013,-1.559,-0.003,0.326,100.0,136.9,40.488495,-3.394418,589.6,4,5,226.1,0.352
100.93,1,-0.034,-0.009,0.004,-0.01,0.001,-0.006,-1.558,-0.001,0.327,100.0,136.9,40.488495,-3.394418,589.6,4,5,226.1,0.352
101.03,1,-0.063,-0.009,0.009,-0.04,-0.004,0.006,-1.558,0.002,0.327,100.0,136.9,40.488495,-3.394418,589.6,4,5,226.1,0.352
101.13,1,-0.05,-0.003,-0.023,-0.051,-0.012,-0.003,-1.555,0.002,0.327,100.0,136.9,40.488495,-3.394418,589.6,4,5,226.1,0.352
101.23,1,0.01,0.029,-0.017,-0.027,0.013,-0.013,-1.553,0.002,0.327,100.0,136.9,40.488495,-3.394418,589.6,4,5,226.1,0.352
101.33,1,-0.011,-0.017,-0.025,-0.016,0.008,-0.02,-1.549,0.0,0.327,100.0,136.9,40.488495,-3.394418,589.6,4,5,226.1,0.352
101.44,1,-0.011,-0.003,0.012,-0.01,-0.003,-0.011,-1.551,0.003,0.327,100.0,136.9,40.488495,-3.394418,589.6,4,5,226.1,0.352
101.54,1,0.001,-0.015,0.013,-0.002,-0.006,0.007,-1.554,0.005,0.327,100.0,136.9,40.488495,-3.394418,589.6,4,5,226.1,0.352
101.63,1,0.006,-0.021,0.008,0.003,-0.017,0.009,-1.554,0.004,0.327,100.0,136.9,40.488495,-3.394418,589.6,4,5,226.1,0.352
101.73,1,-0.015,0.004,0.008,-0.003,-0.0,0.003,-1.553,0.003,0.327,100.96,136.9,40.488495,-3.394418,589.6,4,5,226.1,0.352
101.83,1,-0.046,0.017,-0.011,-0.021,0.003,-0.002,-1.552,0.003,0.327,100.96,136.9,40.488495,-3.394418,589.6,4,5,226.1,0.352
101.93,1,-0.015,0.017,0.006,-0.03,0.011,-0.001,-1.55,0.005,0.327,100.96,136.9,40.488495,-3.394418,589.6,4,5,226.1,0.352
102.03,1,-0.001,-0.033,0.023,-0.02,-0.003,0.01,-1.552,0.007,0.327,100.96,136.9,40.488495,-3.394418,589.6,4,5,226.1,0.352
102.13,1,-0.002,-0.031,0.008,0.005,-0.024,0.018,-1.551,0.011,0.327,100.96,136.9,40.488495,-3.394418,589.6,4,5,226.1,0.352
102.23,1,-0.061,-0.025,-0.012,-0.03,-0.029,-0.001,-1.552,0.007,0.328,100.96,136.9,40.488495,-3.394418,589.6,4,5,226.1,0.352
102.33,1,0.021,0.035,-0.013,-0.016,-0.002,-0.01,-1.551,0.006,0.328,100.96,136.9,40.488495,-3.394418,589.6,4,5,226.1,0.352
102.43,1,-0.064,-0.024,-0.008,-0.023,0.003,-0.012,-1.552,0.006,0.328,100.96,136.9,40.488495,-3.394418,589.6,4,5,226.1,0.352
102.53,1,-0.037,0.005,0.006,-0.043,-0.008,0.0,-1.554,0.006,0.329,100.96,136.9,40.488495,-3.394418,589.6,4,5,226.1,0.352
102.64,1,0.0,-0.028,0.015,-0.024,-0.005,0.01,-1.557,0.009,0.329,100.96,136.9,40.488495,-3.394418,589.6,4,5,226.1,0.352
102.74,1,-0.007,-0.02,-0.008,-0.014,-0.027,0.003,-1.558,0.012,0.33,101.94,137.2,40.488262,-3.394751,589.0,4,5,226.1,0.352
102.83,1,-0.004,-0.017,-0.002,-0.004,-0.021,-0.002,-1.558,0.012,0.33,101.94,137.2,40.488262,-3.394751,589.0,4,5,226.1,0.352
102.93,1,0.003,-0.022,0.022,-0.001,-0.011,0.006,-1.559,0.014,0.331,101.94,137.2,40.488262,-3.394751,589.0,4,5,226.1,0.352
103.03,1,-0.067,-0.005,-0.002,-0.033,-0.021,0.004,-1.56,0.015,0.331,101.94,137.2,40.488262,-3.394751,589.0,4,5,226.1,0.352
103.14,1,-0.033,-0.011,-0.025,-0.041,-0.012,-0.006,-1.56,0.014,0.331,101.94,137.2,40.488262,-3.394751,589.0,4,5,226.1,0.352
103.24,1,-0.071,-0.006,0.007,-0.05,-0.01,-0.004,-1.561,0.013,0.332,101.94,137.2,40.488262,-3.394751,589.0,4,5,226.1,0.352
103.33,1,0.034,0.041,-0.011,-0.022,0.015,-0.004,-1.56,0.01,0.332,101.94,137.2,40.488262,-3.394751,589.0,4,5,226.1,0.352
103.43,1,0.083,0.01,-0.018,0.034,0.02,-0.013,-1.558,0.012,0.332,101.94,137.2,40.488262,-3.394751,589.0,4,5,226.1,0.352
103.53,1,-0.012,-0.036,0.007,0.025,-0.005,-0.008,-1.559,0.017,0.333,101.94,137.2,40.488262,-3.394751,589.0,4,5,226.1,0.352
103.63,1,0.037,0.005,0.017,0.019,-0.017,0.007,-1.56,0.02,0.333,101.94,137.2,40.488262,-3.394751,589.0,4,5,226.1,0.352
103.74,1,0.063,-0.003,-0.022,0.051,0.001,0.002,-1.559,0.022,0.334,102.94,137.3,40.488026,-3.395076,590.0,4,5,226.1,0.0
103.84,1,-0.027,-0.07,-0.007,0.018,-0.028,-0.008,-1.555,0.031,0.336,102.94,137.3,40.488026,-3.395076,590.0,4,5,226.1,0.0
103.95,1,-0.078,-0.039,-0.023,-0.039,-0.044,-0.017,-1.554,0.038,0.337,102.94,137.3,40.488026,-3.395076,590.0,4,5,226.1,0.0
104.04,1,-0.048,-0.003,0.018,-0.043,-0.025,-0.001,-1.555,0.042,0.338,102.94,137.3,40.488026,-3.395076,590.0,4,5,226.1,0.0
104.14,1,-0.044,-0.008,-0.015,-0.042,-0.01,-0.003,-1.554,0.043,0.339,102.94,137.3,40.488026,-3.395076,590.0,4,5,226.1,0.0
104.24,1,-0.017,-0.01,-0.006,-0.036,-0.013,-0.006,-1.555,0.043,0.34,102.94,137.3,40.488026,-3.395076,590.0,4,5,226.1,0.0
104.34,1,0.025,0.002,-0.005,-0.0,-0.006,-0.007,-1.556,0.042,0.341,102.94,137.3,40.488026,-3.395076,590.0,4,5,226.1,0.0
104.44,1,0.001,-0.039,0.005,0.002,-0.015,-0.003,-1.556,0.042,0.342,102.94,137.3,40.488026,-3.395076,590.0,4,5,226.1,0.0
104.54,1,0.014,0.003,-0.007,0.001,-0.017,-0.002,-1.556,0.041,0.343,102.94,137.3,40.488026,-3.395076,590.0,4,5,226.1,0.0
104.64,1,0.012,0.005,-0.004,0.013,0.0,-0.001,-1.556,0.04,0.344,102.94,137.3,40.488026,-3.395076,590.0,4,5,226.1,0.0
104.74,1,0.022,0.002,-0.001,0.021,-0.0,-0.002,-1.556,0.041,0.346,103.94,137.2,40.487785,-3.395405,589.4,4,5,225.8,0.302
104.84,1,-0.044,-0.026,-0.011,-0.009,-0.003,-0.009,-1.556,0.039,0.347,103.94,137.2,40.487785,-3.395405,589.4,4,5,225.8,0.302
104.94,1,-0.005,-0.045,0.0,-0.025,-0.034,-0.004,-1.556,0.041,0.348,103.94,137.2,40.487785,-3.395405,589.4,4,5,225.8,0.302
105.04,1,-0.004,-0.028,-0.014,0.004,-0.033,-0.003,-1.556,0.044,0.35,103.94,137.2,40.487785,-3.395405,589.4,4,5,225.8,0.302
105.14,1,-0.041,-0.035,-0.013,-0.022,-0.028,-0.012,-1.553,0.048,0.352,103.94,137.2,40.487785,-3.395405,589.4,4,5,225.8,0.302
105.24,1,0.04,-0.018,-0.016,-0.007,-0.03,-0.016,-1.55,0.051,0.353,103.94,137.2,40.487785,-3.395405,589.4,4,5,225.8,0.302
105.34,1,-0.017,-0.034,-0.014,-0.0,-0.028,-0.017,-1.548,0.053,0.355,103.94,137.2,40.487785,-3.395405,589.4,4,5,225.8,0.302
105.44,1,-0.015,-0.062,-0.002,-0.012,-0.041,-0.009,-1.55,0.056,0.357,103.94,137.2,40.487785,-3.395405,589.4,4,5,225.8,0.302
105.55,1,0.014,0.012,-0.026,0.001,-0.026,-0.013,-1.548,0.054,0.358,103.94,137.2,40.487785,-3.395405,589.4,4,5,225.8,0.302
105.64,1,-0.002,-0.009,-0.021,0.005,-0.013,-0.021,-1.547,0.052,0.36,103.94,137.2,40.487785,-3.395405,589.4,4,5,225.8,0.302
105.75,1,-0.031,-0.012,-0.002,-0.011,-0.009,-0.016,-1.547,0.054,0.361,104.94,137.1,40.487545,-3.39573,589.2,4,5,225.0,1.055
105.85,1,-0.029,-0.007,0.008,-0.029,-0.011,0.002,-1.545,0.052,0.362,104.94,137.1,40.487545,-3.39573,589.2,4,5,225.0,1.055
105.94,1,-0.018,-0.021,-0.024,-0.023,-0.013,-0.007,-1.545,0.052,0.364,104.94,137.1,40.487545,-3.39573,589.2,4,5,225.0,1.055
106.04,1,-0.022,-0.01,-0.023,-0.024,-0.012,-0.019,-1.542,0.055,0.365,104.94,137.1,40.487545,-3.39573,589.2,4,5,225.0,1.055
106.14,1,0.006,-0.004,-0.0,-0.012,-0.012,-0.009,-1.541,0.053,0.366,104.94,137.1,40.487545,-3.39573,589.2,4,5,225.0,1.055
106.25,1,0.008,-0.01,0.013,0.004,-0.009,0.001,-1.543,0.054,0.368,104.94,137.1,40.487545,-3.39573,589.2,4,5,225.0,1.055
106.34,1,0.004,0.012,-0.027,0.006,0.004,-0.007,-1.541,0.054,0.369,104.94,137.1,40.487545,-3.39573,589.2,4,5,225.0,1.055
106.45,1,0.026,0.006,-0.02,0.014,0.006,-0.019,-1.54,0.056,0.37,104.94,137.1,40.487545,-3.39573,589.2,4,5,225.0,1.055
106.55,1,-0.015,-0.026,0.02,0.01,-0.006,-0.004,-1.541,0.058,0.371,104.94,137.1,40.487545,-3.39573,589.2,4,5,225.0,1.055
106.65,1,-0.003,-0.02,0.015,-0.006,-0.02,0.011,-1.543,0.054,0.372,104.94,137.1,40.487545,-3.39573,589.2,4,5,225.0,1.055
106.75,1,-0.02,0.02,-0.0,-0.007,-0.004,0.005,-1.54,0.05,0.373,105.91,137.0,40.487305,-3.396043,589.4,4,5,225.0,0.753
106.85,1,-0.073,0.026,-0.017,-0.037,0.016,-0.004,-1.539,0.046,0.373,105.91,137.0,40.487305,-3.396043,589.4,4,5,225.0,0.753
106.96,1,-0.031,0.034,0.01,-0.049,0.024,-0.004,-1.537,0.044,0.374,105.91,137.0,40.487305,-3.396043,589.4,4,5,225.0,0.753
107.06,1,-0.061,0.01,0.024,-0.045,0.023,0.01,-1.536,0.045,0.374,105.91,137.0,40.487305,-3.396043,589.4,4,5,225.0,0.753
107.15,1,-0.024,-0.013,0.008,-0.042,0.003,0.014,-1.538,0.045,0.375,105.91,137.0,40.487305,-3.396043,589.4,4,5,225.0,0.753
107.25,1,-0.013,0.011,-0.015,-0.024,0.005,-0.003,-1.536,0.043,0.376,105.91,137.0,40.487305,-3.396043,589.4,4,5,225.0,0.753
107.35,1,0.05,0.005,0.019,0.011,0.009,0.004,-1.535,0.041,0.377,105.91,137.0,40.487305,-3.396043,589.4,4,5,225.0,0.753
107.45,1,-0.052,-0.036,0.006,-0.002,-0.008,0.011,-1.533,0.045,0.378,105.91,137.0,40.487305,-3.396043,589.4,4,5,225.0,0.753
107.55,1,-0.045,-0.015,-0.006,-0.033,-0.028,0.002,-1.534,0.043,0.379,105.91,137.0,40.487305,-3.396043,589.4,4,5,225.0,0.753
107.65,1,0.008,0.018,0.026,-0.023,-0.007,0.01,-1.535,0.043,0.38,105.91,137.0,40.487305,-3.396043,589.4,4,5,225.0,0.753
107.75,1,-0.057,-0.008,0.017,-0.031,0.01,0.017,-1.537,0.043,0.381,106.94,136.8,40.487061,-3.396353,589.2,4,5,223.9,1.055
107.85,1,-0.014,-0.011,-0.005,-0.039,-0.016,0.013,-1.535,0.047,0.382,106.94,136.8,40.487061,-3.396353,589.2,4,5,223.9,1.055
107.96,1,0.0,0.044,0.02,-0.009,0.018,0.006,-1.537,0.045,0.383,106.94,136.8,40.487061,-3.396353,589.2,4,5,223.9,1.055
108.05,1,-0.029,-0.034,0.013,-0.016,0.004,0.019,-1.541,0.044,0.383,106.94,136.8,40.487061,-3.396353,589.2,4,5,223.9,1.055
108.16,1,0.027,-0.004,-0.013,-0.004,-0.011,0.004,-1.544,0.049,0.384,106.94,136.8,40.487061,-3.396353,589.2,4,5,223.9,1.055
108.25,1,0.001,-0.023,0.006,0.015,-0.013,-0.001,-1.545,0.048,0.386,106.94,136.8,40.487061,-3.396353,589.2,4,5,223.9,1.055
108.35,1,-0.02,-0.026,-0.004,-0.011,-0.019,-0.001,-1.544,0.048,0.387,106.94,136.8,40.487061,-3.396353,589.2,4,5,223.9,1.055
108.45,1,-0.03,0.011,-0.007,-0.015,-0.009,-0.005,-1.541,0.047,0.387,106.94,136.8,40.487061,-3.396353,589.2,4,5,223.9,1.055
108.55,1,0.017,0.007,-0.001,-0.008,0.001,-0.007,-1.542,0.045,0.389,106.94,136.8,40.487061,-3.396353,589.2,4,5,223.9,1.055
108.65,1,-0.027,0.001,-0.028,0.001,0.005,-0.014,-1.54,0.044,0.389,106.94,136.8,40.487061,-3.396353,589.2,4,5,223.9,1.055
108.75,1,0.002,0.008,0.007,-0.017,0.003,-0.007,-1.539,0.047,0.39,107.91,136.2,40.486816,-3.396662,590.4,4,5,223.2,1.758
108.85,1,-0.041,-0.028,-0.005,-0.019,-0.01,-0.003,-1.54,0.049,0.391,107.91,136.2,40.486816,-3.396662,590.4,4,5,223.2,1.758
108.95,1,-0.024,-0.021,-0.006,-0.031,-0.014,-0.003,-1.538,0.049,0.392,107.91,136.2,40.486816,-3.396662,590.4,4,5,223.2,1.758
109.05,1,0.023,0.034,0.009,-0.002,-0.002,-0.0,-1.537,0.05,0.392,107.91,136.2,40.486816,-3.396662,590.4,4,5,223.2,1.758
109.15,1,0.036,0.043,-0.034,0.022,0.025,-0.009,-1.539,0.046,0.392,107.91,136.2,40.486816,-3.396662,590.4,4,5,223.2,1.758
109.25,1,-0.045,0.047,0.003,-0.004,0.043,-0.01,-1.543,0.039,0.391,107.91,136.2,40.486816,-3.396662,590.4,4,5,223.2,1.758
109.36,1,-0.012,0.082,0.007,-0.026,0.054,-0.001,-1.546,0.035,0.39,107.91,136.2,40.486816,-3.396662,590.4,4,5,223.2,1.758
109.45,1,0.009,0.041,-0.009,0.0,0.056,-0.003,-1.544,0.029,0.39,107.91,136.2,40.486816,-3.396662,590.4,4,5,223.2,1.758
109.55,1,-0.037,0.032,0.016,-0.018,0.041,-0.001,-1.546,0.023,0.389,107.91,136.2,40.486816,-3.396662,590.4,4,5,223.2,1.758
109.65,1,-0.005,0.06,0.003,-0.016,0.049,0.009,-1.546,0.018,0.388,107.91,136.2,40.486816,-3.396662,590.4,4,5,223.2,1.758
109.76,1,-0.059,0.031,-0.007,-0.03,0.042,-0.002,-1.545,0.017,0.387,108.91,136.3,40.486565,-3.396955,590.0,4,5,222.9,1.055
109.85,1,-0.082,0.02,0.006,-0.057,0.039,-0.0,-1.547,0.015,0.386,108.91,136.3,40.486565,-3.396955,590.0,4,5,222.9,1.055
109.95,1,0.012,0.056,-0.004,-0.041,0.03,0.002,-1.548,0.007,0.385,108.91,136.3,40.486565,-3.396955,590.0,4,5,222.9,1.055
110.06,1,0.05,-0.002,-0.017,0.011,0.025,-0.009,-1.548,0.003,0.384,108.91,136.3,40.486565,-3.396955,590.0,4,5,222.9,1.055
110.16,1,-0.046,0.015,0.001,0.002,0.02,-0.008,-1.549,0.002,0.383,108.91,136.3,40.486565,-3.396955,590.0,4,5,222.9,1.055
110.26,1,0.001,0.036,-0.015,-0.001,0.023,-0.008,-1.551,-0.001,0.382,108.91,136.3,40.486565,-3.396955,590.0,4,5,222.9,1.055
