Timestamp_Accel,SystemActivated,accelerometerXAxis,accelerometerYAxis,accelerometerZAxis,AccelX_KF,AccelY_KF,AccelZ_KF,gyroscopeXAxis,gyroscopeYAxis,gyroscopeZAxis,Timestamp_GPS,Speed,latitude,longitude,Altitude,VerticalAccuracy,HorizontalAccuracy,Course,Difcourse
7.63,0,-0.04,0.003,-0.065,-0.01,-0.011,-0.034,-1.566,0.035,0.07,7.61,0.0,40.504292,-3.35335,603.6,34,767,-1.0,-1.0
7.73,0,-0.028,0.002,-0.038,-0.019,-0.001,-0.048,-1.563,0.035,0.072,7.61,0.0,40.504292,-3.35335,603.6,34,767,-1.0,-1.0
7.83,0,-0.056,0.001,-0.049,-0.039,-0.002,-0.037,-1.562,0.038,0.074,7.61,0.0,40.504292,-3.35335,603.6,34,767,-1.0,-1.0
7.93,0,-0.029,-0.006,-0.05,-0.043,-0.001,-0.051,-1.559,0.038,0.076,7.61,0.0,40.504292,-3.35335,603.6,34,767,-1.0,-1.0
8.03,0,-0.004,-0.048,-0.012,-0.024,-0.024,-0.036,-1.558,0.045,0.079,7.61,0.0,40.504292,-3.35335,603.6,34,767,-1.0,-1.0
8.13,0,-0.025,-0.001,-0.038,-0.019,-0.019,-0.027,-1.555,0.05,0.082,7.61,0.0,40.504292,-3.35335,603.6,34,767,-1.0,-1.0
8.23,0,-0.004,-0.011,-0.02,-0.017,-0.009,-0.033,-1.552,0.049,0.085,7.61,0.0,40.504292,-3.35335,603.6,34,767,-1.0,-1.0
8.33,0,0.026,0.04,-0.014,0.006,0.006,-0.015,-1.551,0.044,0.086,7.61,0.0,40.504292,-3.35335,603.6,34,767,-1.0,-1.0
8.44,0,0.036,0.061,-0.034,0.024,0.042,-0.028,-1.546,0.039,0.087,7.61,0.0,40.504292,-3.35335,603.6,34,767,-1.0,-1.0
8.54,0,-0.021,0.065,-0.045,0.016,0.053,-0.03,-1.543,0.036,0.088,7.61,0.0,40.504292,-3.35335,603.6,34,767,-1.0,-1.0
8.64,0,-0.052,0.017,-0.005,-0.022,0.044,-0.032,-1.543,0.035,0.089,8.61,0.0,40.504292,-3.35335,603.6,34,767,-1.0,-1.0
8.74,0,0.001,0.008,-0.02,-0.029,0.016,-0.019,-1.545,0.033,0.09,8.61,0.0,40.504292,-3.35335,603.6,34,767,-1.0,-1.0
8.84,0,-0.006,0.034,-0.016,-0.011,0.025,-0.017,-1.543,0.03,0.091,8.61,0.0,40.504292,-3.35335,603.6,34,767,-1.0,-1.0
8.94,0,0.023,0.012,-0.024,-0.005,0.023,-0.018,-1.539,0.03,0.093,8.61,0.0,40.504292,-3.35335,603.6,34,767,-1.0,-1.0
9.04,1,0.015,0.015,-0.028,0.016,0.017,-0.024,-1.537,0.03,0.095,8.61,0.0,40.504292,-3.35335,603.6,34,767,-1.0,-1.0
9.15,1,-0.017,0.026,-0.035,0.007,0.018,-0.029,-1.534,0.031,0.097,8.61,0.0,40.504292,-3.35335,603.6,34,767,-1.0,-1.0
9.24,1,-0.014,0.003,-0.01,-0.013,0.018,-0.026,-1.534,0.03,0.099,8.61,0.0,40.504292,-3.35335,603.6,34,767,-1.0,-1.0
9.34,1,-0.03,-0.036,-0.019,-0.021,-0.012,-0.022,-1.533,0.036,0.102,8.61,0.0,40.504292,-3.35335,603.6,34,767,-1.0,-1.0
9.44,1,0.009,-0.033,-0.013,-0.014,-0.023,-0.013,-1.533,0.038,0.105,8.61,0.0,40.504292,-3.35335,603.6,34,767,-1.0,-1.0
9.54,1,-0.017,-0.037,-0.0,-0.005,-0.03,-0.01,-1.534,0.04,0.107,8.61,0.0,40.504292,-3.35335,603.6,34,767,-1.0,-1.0
9.64,1,0.012,-0.019,0.004,0.001,-0.027,0.002,-1.535,0.043,0.11,9.61,85.6,40.505947,-3.359148,597.2,12,5,271.1,174.375
9.75,1,-0.011,-0.015,-0.035,-0.001,-0.021,-0.013,-1.534,0.046,0.114,9.61,85.6,40.505947,-3.359148,597.2,12,5,271.1,174.375
9.84,1,0.006,-0.024,0.008,-0.007,-0.021,-0.009,-1.534,0.05,0.118,9.61,85.6,40.505947,-3.359148,597.2,12,5,271.1,174.375
9.94,1,-0.011,-0.034,-0.024,0.004,-0.028,-0.011,-1.533,0.057,0.122,9.61,85.6,40.505947,-3.359148,597.2,12,5,271.1,174.375
10.04,1,0.013,0.003,-0.013,-0.003,-0.018,-0.015,-1.532,0.058,0.126,9.61,85.6,40.505947,-3.359148,597.2,12,5,271.1,174.375
10.15,1,-0.037,0.004,-0.011,-0.009,-0.005,-0.015,-1.532,0.058,0.129,9.61,85.6,40.505947,-3.359148,597.2,12,5,271.1,174.375
10.24,1,-0.052,0.022,0.009,-0.032,0.009,-0.004,-1.53,0.056,0.131,9.61,85.6,40.505947,-3.359148,597.2,12,5,271.1,174.375
10.35,1,-0.03,0.032,0.019,-0.04,0.02,0.008,-1.532,0.052,0.133,9.61,85.6,40.505947,-3.359148,597.2,12,5,271.1,174.375
10.45,1,0.011,0.068,0.007,-0.017,0.046,0.012,-1.53,0.047,0.134,9.61,85.6,40.505947,-3.359148,597.2,12,5,271.1,174.375
10.54,1,-0.108,0.018,-0.046,-0.032,0.044,-0.011,-1.527,0.046,0.135,9.61,85.6,40.505947,-3.359148,597.2,12,5,271.1,174.375
10.64,1,-0.008,-0.032,-0.001,-0.057,0.006,-0.023,-1.53,0.049,0.137,10.6,85.6,40.505951,-3.359561,597.6,12,10,271.1,174.023
10.74,1,0.016,-0.002,0.002,-0.017,-0.009,0.003,-1.533,0.048,0.139,10.6,85.6,40.505951,-3.359561,597.6,12,10,271.1,174.023
10.84,1,-0.067,0.017,-0.045,-0.03,0.008,-0.022,-1.53,0.047,0.142,10.6,85.6,40.505951,-3.359561,597.6,12,10,271.1,174.023
10.95,1,-0.007,-0.028,0.021,-0.027,-0.012,-0.011,-1.53,0.046,0.146,10.6,85.6,40.505951,-3.359561,597.6,12,10,271.1,174.023
11.04,1,-0.018,0.01,0.016,-0.013,-0.01,0.012,-1.535,0.047,0.149,10.6,85.6,40.505951,-3.359561,597.6,12,10,271.1,174.023
11.14,1,-0.02,-0.007,0.014,-0.018,0.003,0.007,-1.536,0.049,0.152,10.6,85.6,40.505951,-3.359561,597.6,12,10,271.1,174.023
11.24,1,0.002,0.0,0.044,-0.013,-0.004,0.029,-1.54,0.051,0.155,10.6,85.6,40.505951,-3.359561,597.6,12,10,271.1,174.023
11.35,1,-0.035,0.012,0.008,-0.018,0.002,0.023,-1.544,0.049,0.157,10.6,85.6,40.505951,-3.359561,597.6,12,10,271.1,174.023
11.44,1,-0.014,0.005,0.007,-0.023,0.011,0.01,-1.546,0.045,0.159,10.6,85.6,40.505951,-3.359561,597.6,12,10,271.1,174.023
11.55,1,-0.052,0.017,0.014,-0.028,0.007,0.016,-1.553,0.039,0.16,10.6,85.6,40.505951,-3.359561,597.6,12,10,271.1,174.023
11.65,1,-0.049,0.096,-0.001,-0.041,0.046,0.003,-1.553,0.033,0.159,11.61,85.8,40.505962,-3.359817,605.5,12,10,272.8,1.758
11.74,1,-0.056,0.055,0.037,-0.05,0.069,0.015,-1.555,0.033,0.159,11.61,85.8,40.505962,-3.359817,605.5,12,10,272.8,1.758
11.85,1,-0.006,0.067,0.051,-0.03,0.062,0.04,-1.554,0.034,0.16,11.61,85.8,40.505962,-3.359817,605.5,12,10,272.8,1.758
11.94,1,-0.039,0.03,0.029,-0.032,0.046,0.034,-1.555,0.034,0.161,11.61,85.8,40.505962,-3.359817,605.5,12,10,272.8,1.758
12.04,1,-0.017,0.011,0.036,-0.023,0.029,0.034,-1.558,0.032,0.162,11.61,85.8,40.505962,-3.359817,605.5,12,10,272.8,1.758
12.15,1,-0.001,0.013,0.022,-0.019,0.014,0.029,-1.56,0.027,0.163,11.61,85.8,40.505962,-3.359817,605.5,12,10,272.8,1.758
12.25,1,-0.014,0.063,-0.003,-0.005,0.036,0.021,-1.559,0.021,0.164,11.61,85.8,40.505962,-3.359817,605.5,12,10,272.8,1.758
12.35,1,-0.047,-0.016,0.033,-0.032,0.026,0.015,-1.56,0.022,0.165,11.61,85.8,40.505962,-3.359817,605.5,12,10,272.8,1.758
12.45,1,0.009,0.072,0.032,-0.015,0.028,0.03,-1.562,0.023,0.166,11.61,85.8,40.505962,-3.359817,605.5,12,10,272.8,1.758
12.55,1,-0.057,0.023,0.018,-0.033,0.039,0.018,-1.562,0.026,0.167,11.61,85.8,40.505962,-3.359817,605.5,12,10,272.8,1.758
12.65,1,0.044,-0.047,0.046,-0.015,-0.0,0.038,-1.563,0.027,0.168,12.61,87.0,40.505981,-3.360103,604.0,3,5,270.0,2.812
12.75,1,0.02,0.005,0.006,0.028,-0.006,0.023,-1.561,0.025,0.17,12.61,87.0,40.505981,-3.360103,604.0,3,5,270.0,2.812
12.85,1,0.022,-0.017,-0.003,0.012,-0.011,0.011,-1.562,0.023,0.172,12.61,87.0,40.505981,-3.360103,604.0,3,5,270.0,2.812
12.95,1,-0.023,0.023,-0.009,0.004,0.002,-0.004,-1.566,0.021,0.174,12.61,87.0,40.505981,-3.360103,604.0,3,5,270.0,2.812
13.05,1,-0.089,-0.027,0.017,-0.038,-0.0,-0.007,-1.571,0.02,0.177,12.61,87.0,40.505981,-3.360103,604.0,3,5,270.0,2.812
13.15,1,0.01,-0.004,0.037,-0.032,-0.012,0.027,-1.575,0.023,0.179,12.61,87.0,40.505981,-3.360103,604.0,3,5,270.0,2.812
13.25,1,-0.069,-0.038,0.018,-0.031,-0.016,0.024,-1.576,0.024,0.182,12.61,87.0,40.505981,-3.360103,604.0,3,5,270.0,2.812
13.36,1,0.063,-0.028,0.029,-0.009,-0.032,0.028,-1.575,0.026,0.185,12.61,87.0,40.505981,-3.360103,604.0,3,5,270.0,2.812
13.45,1,-0.003,-0.047,-0.023,0.02,-0.038,0.007,-1.573,0.028,0.189,12.61,87.0,40.505981,-3.360103,604.0,3,5,270.0,2.812
13.55,1,-0.042,-0.044,-0.019,-0.012,-0.042,-0.011,-1.57,0.034,0.193,12.61,87.0,40.505981,-3.360103,604.0,3,5,270.0,2.812
13.65,1,-0.067,-0.063,-0.025,-0.041,-0.049,-0.022,-1.569,0.037,0.196,13.63,86.7,40.505978,-3.360397,603.9,3,5,268.9,3.867
13.75,1,-0.076,-0.021,-0.084,-0.064,-0.042,-0.044,-1.567,0.037,0.199,13.63,86.7,40.505978,-3.360397,603.9,3,5,268.9,3.867
13.85,1,0.018,-0.032,-0.073,-0.031,-0.032,-0.063,-1.565,0.038,0.202,13.63,86.7,40.505978,-3.360397,603.9,3,5,268.9,3.867
13.95,1,0.073,-0.019,-0.107,0.024,-0.026,-0.078,-1.556,0.041,0.204,13.63,86.7,40.505978,-3.360397,603.9,3,5,268.9,3.867
14.07,1,-0.049,-0.031,-0.052,0.008,-0.029,-0.083,-1.547,0.041,0.207,13.63,86.7,40.505978,-3.360397,603.9,3,5,268.9,3.867
14.16,1,-0.057,-0.021,-0.034,-0.042,-0.027,-0.055,-1.543,0.04,0.21,13.63,86.7,40.505978,-3.360397,603.9,3,5,268.9,3.867
14.26,1,-0.007,-0.019,-0.031,-0.026,-0.018,-0.042,-1.54,0.041,0.212,13.63,86.7,40.505978,-3.360397,603.9,3,5,268.9,3.867
14.35,1,0.044,0.017,-0.001,0.003,-0.009,-0.019,-1.54,0.04,0.214,13.63,86.7,40.505978,-3.360397,603.9,3,5,268.9,3.867
14.46,1,0.104,0.049,-0.032,0.061,0.019,-0.02,-1.537,0.037,0.215,13.63,86.7,40.505978,-3.360397,603.9,3,5,268.9,3.867
14.56,1,-0.015,0.021,-0.072,0.044,0.033,-0.045,-1.529,0.031,0.215,13.63,86.7,40.505978,-3.360397,603.9,3,5,268.9,3.867
14.66,1,-0.016,0.066,-0.033,-0.01,0.031,-0.053,-1.524,0.024,0.214,14.62,87.6,40.505974,-3.360711,604.5,3,5,268.2,1.758
14.76,1,0.076,0.133,-0.027,0.036,0.081,-0.029,-1.522,0.018,0.213,14.62,87.6,40.505974,-3.360711,604.5,3,5,268.2,1.758
14.85,1,-0.079,0.095,-0.071,-0.004,0.107,-0.045,-1.517,0.016,0.212,14.62,87.6,40.505974,-3.360711,604.5,3,5,268.2,1.758
14.95,1,-0.052,0.084,0.021,-0.052,0.092,-0.028,-1.518,0.017,0.212,14.62,87.6,40.505974,-3.360711,604.5,3,5,268.2,1.758
15.05,1,-0.012,0.056,0.017,-0.026,0.077,-0.0,-1.517,0.016,0.211,14.62,87.6,40.505974,-3.360711,604.5,3,5,268.2,1.758
15.16,1,-0.013,0.018,0.002,-0.021,0.054,0.002,-1.512,0.014,0.211,14.62,87.6,40.505974,-3.360711,604.5,3,5,268.2,1.758
15.26,1,-0.023,-0.009,0.043,-0.015,0.017,0.024,-1.511,0.014,0.212,14.62,87.6,40.505974,-3.360711,604.5,3,5,268.2,1.758
15.36,1,-0.032,0.011,-0.021,-0.031,0.007,0.01,-1.509,0.011,0.213,14.62,87.6,40.505974,-3.360711,604.5,3,5,268.2,1.758
15.45,1,-0.019,0.031,-0.016,-0.022,0.017,-0.009,-1.502,0.004,0.214,14.62,87.6,40.505974,-3.360711,604.5,3,5,268.2,1.758
15.55,1,-0.001,0.014,0.001,-0.016,0.017,-0.01,-1.506,0.004,0.215,14.62,87.6,40.505974,-3.360711,604.5,3,5,268.2,1.758
15.66,1,0.027,-0.002,-0.053,0.012,0.011,-0.022,-1.505,0.003,0.216,15.61,88.1,40.505966,-3.361001,604.8,3,5,266.5,2.461
15.76,1,0.021,-0.022,-0.003,0.015,-0.005,-0.026,-1.503,0.007,0.218,15.61,88.1,40.505966,-3.361001,604.8,3,5,266.5,2.461
15.86,1,0.048,-0.02,-0.025,0.029,-0.015,-0.016,-1.505,0.009,0.22,15.61,88.1,40.505966,-3.361001,604.8,3,5,266.5,2.461
15.96,1,0.009,-0.013,-0.027,0.028,-0.011,-0.025,-1.502,0.014,0.222,15.61,88.1,40.505966,-3.361001,604.8,3,5,266.5,2.461
16.06,1,0.02,-0.013,0.012,0.015,-0.017,-0.009,-1.502,0.013,0.224,15.61,88.1,40.505966,-3.361001,604.8,3,5,266.5,2.461
16.16,1,0.001,-0.016,-0.008,0.016,-0.021,-0.005,-1.498,0.013,0.226,15.61,88.1,40.505966,-3.361001,604.8,3,5,266.5,2.461
16.26,1,-0.084,0.062,-0.002,-0.024,0.016,-0.003,-1.499,0.011,0.228,15.61,88.1,40.505966,-3.361001,604.8,3,5,266.5,2.461
16.36,1,-0.078,-0.007,0.04,-0.072,0.017,0.014,-1.503,0.01,0.229,15.61,88.1,40.505966,-3.361001,604.8,3,5,266.5,2.461
16.46,1,0.006,-0.006,0.012,-0.034,0.004,0.016,-1.503,0.01,0.231,15.61,88.1,40.505966,-3.361001,604.8,3,5,266.5,2.461
16.56,1,-0.029,0.011,-0.015,-0.027,0.004,0.007,-1.498,0.009,0.231,15.61,88.1,40.505966,-3.361001,604.8,3,5,266.5,2.461
16.65,1,0.041,0.004,0.014,0.0,0.006,0.002,-1.499,0.006,0.232,16.65,86.4,40.505932,-3.361323,605.7,3,5,264.7,3.516
16.75,1,0.049,0.045,-0.019,0.038,0.023,0.002,-1.496,0.003,0.233,16.65,86.4,40.505932,-3.361323,605.7,3,5,264.7,3.516
16.85,1,-0.01,0.03,-0.006,0.019,0.034,-0.01,-1.494,-0.001,0.234,16.65,86.4,40.505932,-3.361323,605.7,3,5,264.7,3.516
16.96,1,-0.013,-0.009,0.027,0.004,0.014,0.002,-1.495,-0.002,0.235,16.65,86.4,40.505932,-3.361323,605.7,3,5,264.7,3.516
17.05,1,-0.013,-0.002,-0.014,-0.016,0.003,0.008,-1.5,-0.002,0.236,16.65,86.4,40.505932,-3.361323,605.7,3,5,264.7,3.516
17.17,1,-0.005,-0.005,-0.014,-0.012,-0.005,-0.01,-1.502,-0.003,0.237,16.65,86.4,40.505932,-3.361323,605.7,3,5,264.7,3.516
17.25,1,-0.027,-0.016,-0.009,-0.016,-0.01,-0.01,-1.5,-0.002,0.238,16.65,86.4,40.505932,-3.361323,605.7,3,5,264.7,3.516
17.36,1,-0.031,0.002,0.007,-0.023,-0.007,-0.009,-1.502,-0.005,0.239,16.65,86.4,40.505932,-3.361323,605.7,3,5,264.7,3.516
17.46,1,-0.01,0.041,0.004,-0.021,0.017,0.01,-1.504,-0.008,0.24,16.65,86.4,40.505932,-3.361323,605.7,3,5,264.7,3.516
17.56,1,0.008,0.003,0.019,-0.004,0.017,0.003,-1.504,-0.006,0.241,16.65,86.4,40.505932,-3.361323,605.7,3,5,264.7,3.516
17.66,1,0.029,0.011,0.01,0.003,0.011,0.013,-1.501,-0.004,0.243,17.65,83.7,40.505867,-3.361555,605.6,3,5,264.0,2.461
17.76,1,0.004,-0.005,0.045,0.02,0.01,0.023,-1.502,-0.003,0.245,17.65,83.7,40.505867,-3.361555,605.6,3,5,264.0,2.461
17.86,1,-0.013,-0.043,0.04,-0.003,-0.02,0.034,-1.504,0.001,0.247,17.65,83.7,40.505867,-3.361555,605.6,3,5,264.0,2.461
17.96,1,-0.024,-0.02,0.058,-0.01,-0.026,0.046,-1.509,0.002,0.249,17.65,83.7,40.505867,-3.361555,605.6,3,5,264.0,2.461
18.06,1,-0.022,-0.002,0.102,-0.019,-0.012,0.076,-1.517,0.003,0.251,17.65,83.7,40.505867,-3.361555,605.6,3,5,264.0,2.461
18.17,1,0.01,-0.015,0.061,-0.008,-0.01,0.073,-1.519,0.003,0.254,17.65,83.7,40.505867,-3.361555,605.6,3,5,264.0,2.461
18.26,1,0.025,-0.017,0.044,0.011,-0.014,0.063,-1.523,0.004,0.257,17.65,83.7,40.505867,-3.361555,605.6,3,5,264.0,2.461
18.37,1,-0.056,0.001,0.059,-0.009,-0.011,0.054,-1.529,0.005,0.259,17.65,83.7,40.505867,-3.361555,605.6,3,5,264.0,2.461
18.46,1,-0.065,-0.039,0.088,-0.056,-0.019,0.068,-1.536,0.006,0.262,17.65,83.7,40.505867,-3.361555,605.6,3,5,264.0,2.461
18.56,1,0.023,-0.014,0.069,-0.018,-0.028,0.077,-1.543,0.005,0.265,17.65,83.7,40.505867,-3.361555,605.6,3,5,264.0,2.461
18.66,1,0.029,-0.026,0.078,0.014,-0.015,0.078,-1.545,0.005,0.268,18.6,80.2,40.50584,-3.361849,605.6,4,5,261.2,3.516
18.77,1,-0.016,-0.031,0.053,0.006,-0.027,0.064,-1.55,0.009,0.272,18.6,80.2,40.50584,-3.361849,605.6,4,5,261.2,3.516
18.86,1,-0.048,-0.059,0.023,-0.022,-0.038,0.046,-1.555,0.014,0.276,18.6,80.2,40.50584,-3.361849,605.6,4,5,261.2,3.516
18.97,1,0.012,-0.056,0.1,-0.016,-0.053,0.056,-1.561,0.017,0.28,18.6,80.2,40.50584,-3.361849,605.6,4,5,261.2,3.516
19.06,1,0.034,-0.02,0.037,0.014,-0.04,0.062,-1.567,0.02,0.283,18.6,80.2,40.50584,-3.361849,605.6,4,5,261.2,3.516
19.16,1,0.008,-0.033,0.032,0.007,-0.032,0.046,-1.567,0.021,0.287,18.6,80.2,40.50584,-3.361849,605.6,4,5,261.2,3.516
19.26,1,0.001,-0.011,0.015,0.016,-0.023,0.027,-1.569,0.024,0.291,18.6,80.2,40.50584,-3.361849,605.6,4,5,261.2,3.516
19.37,1,-0.03,0.001,0.071,-0.014,-0.014,0.038,-1.573,0.024,0.295,18.6,80.2,40.50584,-3.361849,605.6,4,5,261.2,3.516
19.46,1,0.016,0.019,0.054,-0.004,0.005,0.062,-1.577,0.024,0.298,18.6,80.2,40.50584,-3.361849,605.6,4,5,261.2,3.516
19.57,1,-0.004,0.012,0.002,0.003,0.013,0.033,-1.577,0.025,0.301,18.6,80.2,40.50584,-3.361849,605.6,4,5,261.2,3.516
19.66,1,-0.019,-0.01,0.019,-0.015,0.003,0.015,-1.576,0.028,0.304,19.62,78.9,40.50581,-3.362102,606.2,4,5,260.2,3.867
19.76,1,-0.002,0.007,0.023,-0.006,-0.002,0.024,-1.579,0.028,0.307,19.62,78.9,40.50581,-3.362102,606.2,4,5,260.2,3.867
19.86,1,-0.043,0.024,0.036,-0.021,0.011,0.023,-1.583,0.027,0.309,19.62,78.9,40.50581,-3.362102,606.2,4,5,260.2,3.867
19.96,1,-0.006,0.022,0.011,-0.019,0.021,0.023,-1.586,0.024,0.311,19.62,78.9,40.50581,-3.362102,606.2,4,5,260.2,3.867
20.06,1,0.015,0.048,0.002,-0.001,0.029,0.014,-1.586,0.019,0.312,19.62,78.9,40.50581,-3.362102,606.2,4,5,260.2,3.867
20.17,1,-0.012,0.044,-0.01,0.003,0.042,0.006,-1.585,0.016,0.312,19.62,78.9,40.50581,-3.362102,606.2,4,5,260.2,3.867
20.27,1,0.003,0.056,0.054,-0.008,0.051,0.011,-1.586,0.013,0.312,19.62,78.9,40.50581,-3.362102,606.2,4,5,260.2,3.867
20.37,1,0.04,0.055,0.037,0.012,0.047,0.039,-1.589,0.01,0.312,19.62,78.9,40.50581,-3.362102,606.2,4,5,260.2,3.867
20.46,1,-0.06,0.03,-0.025,-0.002,0.047,0.012,-1.585,0.009,0.312,19.62,78.9,40.50581,-3.362102,606.2,4,5,260.2,3.867
20.56,1,-0.103,0.057,0.007,-0.062,0.047,0.005,-1.586,0.009,0.312,19.62,78.9,40.50581,-3.362102,606.2,4,5,260.2,3.867
20.66,1,-0.072,0.078,0.024,-0.073,0.059,0.015,-1.586,0.008,0.311,20.65,79.9,40.505775,-3.362346,606.9,3,5,257.7,3.516
20.77,1,0.022,0.044,0.021,-0.036,0.056,0.015,-1.587,0.006,0.311,20.65,79.9,40.505775,-3.362346,606.9,3,5,257.7,3.516
20.86,1,0.03,0.054,0.043,0.017,0.056,0.032,-1.589,0.002,0.311,20.65,79.9,40.505775,-3.362346,606.9,3,5,257.7,3.516
20.96,1,-0.035,0.062,-0.002,-0.014,0.058,0.017,-1.589,-0.001,0.31,20.65,79.9,40.505775,-3.362346,606.9,3,5,257.7,3.516
21.07,1,0.032,0.046,0.017,0.003,0.052,0.014,-1.59,-0.005,0.309,20.65,79.9,40.505775,-3.362346,606.9,3,5,257.7,3.516
21.16,1,-0.024,0.052,0.02,-0.001,0.052,0.017,-1.591,-0.006,0.309,20.65,79.9,40.505775,-3.362346,606.9,3,5,257.7,3.516
21.27,1,0.012,0.028,0.01,-0.007,0.042,0.013,-1.593,-0.008,0.309,20.65,79.9,40.505775,-3.362346,606.9,3,5,257.7,3.516
21.37,1,0.016,0.048,-0.001,0.01,0.039,0.007,-1.592,-0.013,0.307,20.65,79.9,40.505775,-3.362346,606.9,3,5,257.7,3.516
21.47,1,-0.007,0.067,0.023,0.007,0.052,0.01,-1.593,-0.02,0.305,20.65,79.9,40.505775,-3.362346,606.9,3,5,257.7,3.516
21.57,1,-0.029,0.055,0.016,-0.012,0.059,0.017,-1.596,-0.026,0.303,20.65,79.9,40.505775,-3.362346,606.9,3,5,257.7,3.516
21.67,1,0.004,0.068,0.02,-0.008,0.063,0.016,-1.598,-0.028,0.302,21.6,81.2,40.505718,-3.362601,606.9,3,5,255.2,4.922
21.77,1,-0.025,0.039,-0.009,-0.013,0.049,0.011,-1.597,-0.029,0.301,21.6,81.2,40.505718,-3.362601,606.9,3,5,255.2,4.922
21.87,1,-0.025,0.016,-0.007,-0.023,0.039,-0.004,-1.596,-0.031,0.299,21.6,81.2,40.505718,-3.362601,606.9,3,5,255.2,4.922
21.97,1,-0.023,0.043,0.028,-0.02,0.03,0.008,-1.598,-0.033,0.297,21.6,81.2,40.505718,-3.362601,606.9,3,5,255.2,4.922
22.07,1,-0.009,0.033,0.011,-0.02,0.035,0.014,-1.599,-0.037,0.295,21.6,81.2,40.505718,-3.362601,606.9,3,5,255.2,4.922
22.17,1,0.014,0.025,0.025,-0.004,0.032,0.018,-1.6,-0.039,0.292,21.6,81.2,40.505718,-3.362601,606.9,3,5,255.2,4.922
22.27,1,-0.038,0.023,-0.008,-0.016,0.033,0.014,-1.601,-0.043,0.29,21.6,81.2,40.505718,-3.362601,606.9,3,5,255.2,4.922
22.37,1,0.009,0.005,-0.025,-0.009,0.015,-0.008,-1.604,-0.048,0.288,21.6,81.2,40.505718,-3.362601,606.9,3,5,255.2,4.922
22.48,1,0.009,0.055,-0.016,0.01,0.026,-0.021,-1.602,-0.051,0.286,21.6,81.2,40.505718,-3.362601,606.9,3,5,255.2,4.922
22.57,1,-0.006,0.028,0.002,-0.002,0.037,-0.005,-1.603,-0.053,0.285,21.6,81.2,40.505718,-3.362601,606.9,3,5,255.2,4.922
22.68,1,-0.036,0.001,-0.035,-0.017,0.021,-0.017,-1.6,-0.052,0.284,22.61,82.5,40.505665,-3.362864,607.2,3,5,254.2,3.516
22.77,1,-0.021,-0.003,0.018,-0.02,0.004,-0.01,-1.599,-0.05,0.284,22.61,82.5,40.505665,-3.362864,607.2,3,5,254.2,3.516
22.87,1,0.003,-0.019,0.016,-0.016,-0.004,0.005,-1.597,-0.05,0.283,22.61,82.5,40.505665,-3.362864,607.2,3,5,254.2,3.516
22.97,1,-0.021,-0.025,-0.019,-0.012,-0.018,0.004,-1.598,-0.045,0.283,22.61,82.5,40.505665,-3.362864,607.2,3,5,254.2,3.516
23.07,1,-0.015,-0.01,0.007,-0.023,-0.023,-0.006,-1.599,-0.046,0.282,22.61,82.5,40.505665,-3.362864,607.2,3,5,254.2,3.516
23.17,1,-0.023,0.01,-0.022,-0.014,0.001,-0.002,-1.599,-0.047,0.282,22.61,82.5,40.505665,-3.362864,607.2,3,5,254.2,3.516
23.27,1,-0.034,-0.016,0.011,-0.025,-0.002,-0.009,-1.599,-0.044,0.283,22.61,82.5,40.505665,-3.362864,607.2,3,5,254.2,3.516
23.37,1,-0.011,-0.034,-0.007,-0.022,-0.02,0.004,-1.6,-0.04,0.284,22.61,82.5,40.505665,-3.362864,607.2,3,5,254.2,3.516
23.47,1,0.033,-0.019,-0.008,0.003,-0.025,-0.011,-1.598,-0.037,0.285,22.61,82.5,40.505665,-3.362864,607.2,3,5,254.2,3.516
23.57,1,0.0,-0.042,0.002,0.014,-0.029,-0.007,-1.596,-0.035,0.286,22.61,82.5,40.505665,-3.362864,607.2,3,5,254.2,3.516
23.67,1,-0.0,-0.034,0.009,-0.002,-0.034,0.008,-1.598,-0.032,0.287,23.61,84.0,40.505604,-3.363126,607.5,3,5,254.2,1.055
23.77,1,0.04,-0.053,0.0,0.015,-0.04,0.002,-1.598,-0.029,0.288,23.61,84.0,40.505604,-3.363126,607.5,3,5,254.2,1.055
23.87,1,0.018,-0.045,0.005,0.027,-0.048,0.005,-1.595,-0.025,0.29,23.61,84.0,40.505604,-3.363126,607.5,3,5,254.2,1.055
23.97,1,0.025,-0.041,-0.015,0.024,-0.045,-0.005,-1.593,-0.021,0.292,23.61,84.0,40.505604,-3.363126,607.5,3,5,254.2,1.055
24.07,1,0.02,-0.031,0.003,0.02,-0.039,-0.001,-1.591,-0.02,0.294,23.61,84.0,40.505604,-3.363126,607.5,3,5,254.2,1.055
24.17,1,0.0,0.001,0.014,0.011,-0.021,0.007,-1.591,-0.02,0.294,23.61,84.0,40.505604,-3.363126,607.5,3,5,254.2,1.055
24.27,1,0.012,-0.008,-0.005,0.015,-0.008,-0.002,-1.589,-0.022,0.294,23.61,84.0,40.505604,-3.363126,607.5,3,5,254.2,1.055
24.38,1,-0.005,0.014,0.018,0.003,0.002,0.005,-1.589,-0.022,0.294,23.61,84.0,40.505604,-3.363126,607.5,3,5,254.2,1.055
24.48,1,-0.047,0.018,0.019,-0.016,0.01,0.018,-1.592,-0.02,0.294,23.61,84.0,40.505604,-3.363126,607.5,3,5,254.2,1.055
24.58,1,-0.053,0.01,0.036,-0.04,0.007,0.024,-1.594,-0.022,0.294,23.61,84.0,40.505604,-3.363126,607.5,3,5,254.2,1.055
24.68,1,-0.02,-0.009,0.029,-0.035,0.002,0.032,-1.595,-0.019,0.294,24.59,83.2,40.505543,-3.363386,608.2,3,5,254.2,0.0
24.77,1,-0.01,-0.01,0.006,-0.025,-0.002,0.017,-1.595,-0.02,0.294,24.59,83.2,40.505543,-3.363386,608.2,3,5,254.2,0.0
24.88,1,-0.022,0.0,0.004,-0.018,-0.004,0.012,-1.593,-0.019,0.295,24.59,83.2,40.505543,-3.363386,608.2,3,5,254.2,0.0
24.98,1,-0.022,-0.015,-0.012,-0.019,-0.007,-0.0,-1.592,-0.018,0.295,24.59,83.2,40.505543,-3.363386,608.2,3,5,254.2,0.0
25.08,1,-0.08,-0.002,0.015,-0.039,-0.01,0.004,-1.592,-0.015,0.296,24.59,83.2,40.505543,-3.363386,608.2,3,5,254.2,0.0
25.18,1,-0.039,-0.064,0.005,-0.056,-0.028,0.004,-1.594,-0.01,0.299,24.59,83.2,40.505543,-3.363386,608.2,3,5,254.2,0.0
25.28,1,0.025,-0.038,-0.014,-0.016,-0.042,-0.001,-1.594,-0.006,0.301,24.59,83.2,40.505543,-3.363386,608.2,3,5,254.2,0.0
25.38,1,-0.006,-0.06,-0.007,-0.005,-0.048,-0.005,-1.591,-0.002,0.304,24.59,83.2,40.505543,-3.363386,608.2,3,5,254.2,0.0
25.48,1,-0.013,-0.042,-0.009,-0.004,-0.045,-0.009,-1.591,0.002,0.307,24.59,83.2,40.505543,-3.363386,608.2,3,5,254.2,0.0
25.59,1,-0.046,-0.036,-0.021,-0.027,-0.044,-0.012,-1.59,0.004,0.31,24.59,83.2,40.505543,-3.363386,608.2,3,5,254.2,0.0
25.68,1,-0.053,-0.024,0.006,-0.042,-0.031,-0.009,-1.589,0.006,0.312,25.65,86.1,40.505478,-3.363657,608.5,3,5,252.4,1.758
25.79,1,0.006,-0.021,0.022,-0.026,-0.026,0.007,-1.589,0.007,0.314,25.65,86.1,40.505478,-3.363657,608.5,3,5,252.4,1.758
25.89,1,0.019,0.019,-0.03,-0.0,-0.008,-0.003,-1.588,0.007,0.316,25.65,86.1,40.505478,-3.363657,608.5,3,5,252.4,1.758
25.98,1,-0.026,-0.001,0.01,-0.005,0.001,-0.008,-1.587,0.005,0.316,25.65,86.1,40.505478,-3.363657,608.5,3,5,252.4,1.758
26.08,1,0.009,0.019,0.014,-0.003,0.007,0.01,-1.59,0.003,0.317,25.65,86.1,40.505478,-3.363657,608.5,3,5,252.4,1.758
26.18,1,-0.049,0.015,0.004,-0.018,0.015,0.006,-1.59,0.001,0.318,25.65,86.1,40.505478,-3.363657,608.5,3,5,252.4,1.758
26.28,1,-0.023,0.012,0.015,-0.032,0.013,0.012,-1.591,0.0,0.318,25.65,86.1,40.505478,-3.363657,608.5,3,5,252.4,1.758
26.38,1,0.019,0.027,-0.003,-0.004,0.018,0.006,-1.59,-0.001,0.318,25.65,86.1,40.505478,-3.363657,608.5,3,5,252.4,1.758
26.48,1,-0.002,0.028,-0.027,-0.001,0.022,-0.012,-1.588,-0.004,0.318,25.65,86.1,40.505478,-3.363657,608.5,3,5,252.4,1.758
26.58,1,-0.011,0.045,0.013,-0.003,0.035,-0.007,-1.588,-0.007,0.318,25.65,86.1,40.505478,-3.363657,608.5,3,5,252.4,1.758
26.79,1,-0.011,0.019,-0.009,-0.011,0.031,-0.007,-1.585,-0.01,0.318,26.66,87.3,40.505405,-3.363925,608.5,3,5,251.0,3.164
26.88,1,-0.037,0.002,0.014,-0.022,0.013,0.002,-1.584,-0.01,0.318,26.66,87.3,40.505405,-3.363925,608.5,3,5,251.0,3.164
27.0,1,-0.021,-0.006,-0.002,-0.025,0.003,0.005,-1.586,-0.011,0.318,26.66,87.3,40.505405,-3.363925,608.5,3,5,251.0,3.164
27.09,1,-0.007,0.009,-0.013,-0.016,0.005,-0.004,-1.585,-0.013,0.319,26.66,87.3,40.505405,-3.363925,608.5,3,5,251.0,3.164
27.19,1,0.04,0.004,0.012,0.008,0.006,-0.0,-1.585,-0.015,0.319,26.66,87.3,40.505405,-3.363925,608.5,3,5,251.0,3.164
27.28,1,-0.018,0.02,-0.022,0.004,0.01,0.001,-1.585,-0.015,0.319,26.66,87.3,40.505405,-3.363925,608.5,3,5,251.0,3.164
27.39,1,-0.031,0.008,-0.012,-0.017,0.015,-0.015,-1.585,-0.014,0.32,26.66,87.3,40.505405,-3.363925,608.5,3,5,251.0,3.164
27.49,1,-0.013,-0.006,-0.015,-0.019,0.001,-0.012,-1.586,-0.013,0.321,26.66,87.3,40.505405,-3.363925,608.5,3,5,251.0,3.164
27.58,1,0.007,0.031,0.009,-0.008,0.012,-0.004,-1.584,-0.013,0.321,26.66,87.3,40.505405,-3.363925,608.5,3,5,251.0,3.164
27.68,1,0.037,0.002,-0.017,0.015,0.014,-0.009,-1.583,-0.012,0.322,26.66,87.3,40.505405,-3.363925,608.5,3,5,251.0,3.164
27.78,1,0.02,-0.011,0.014,0.021,-0.002,0.003,-1.581,-0.01,0.323,27.69,88.2,40.505329,-3.364194,608.4,3,5,249.3,3.164
27.88,1,0.005,-0.005,-0.043,0.016,-0.004,-0.015,-1.58,-0.01,0.324,27.69,88.2,40.505329,-3.364194,608.4,3,5,249.3,3.164
27.98,1,-0.019,-0.001,-0.042,0.002,0.001,-0.032,-1.577,-0.01,0.325,27.69,88.2,40.505329,-3.364194,608.4,3,5,249.3,3.164
28.08,1,-0.023,-0.003,-0.026,-0.012,-0.004,-0.035,-1.573,-0.01,0.326,27.69,88.2,40.505329,-3.364194,608.4,3,5,249.3,3.164
28.19,1,-0.008,0.019,-0.007,-0.013,0.004,-0.02,-1.572,-0.01,0.326,27.69,88.2,40.505329,-3.364194,608.4,3,5,249.3,3.164
28.29,1,-0.003,0.025,-0.015,-0.0,0.017,-0.014,-1.571,-0.013,0.325,27.69,88.2,40.505329,-3.364194,608.4,3,5,249.3,3.164
28.39,1,-0.009,0.061,-0.04,-0.011,0.037,-0.027,-1.568,-0.018,0.324,27.69,88.2,40.505329,-3.364194,608.4,3,5,249.3,3.164
28.49,1,0.003,0.022,-0.024,-0.011,0.035,-0.029,-1.564,-0.021,0.323,27.69,88.2,40.505329,-3.364194,608.4,3,5,249.3,3.164
28.59,1,-0.012,0.016,-0.017,-0.005,0.025,-0.022,-1.561,-0.02,0.323,27.69,88.2,40.505329,-3.364194,608.4,3,5,249.3,3.164
28.69,1,0.031,0.024,-0.024,-0.001,0.023,-0.022,-1.559,-0.022,0.323,27.69,88.2,40.505329,-3.364194,608.4,3,5,249.3,3.164
28.79,1,0.063,0.028,-0.025,0.037,0.027,-0.028,-1.557,-0.024,0.323,28.61,89.4,40.505245,-3.364471,608.5,3,5,247.9,3.164
28.89,1,-0.019,-0.002,0.004,0.026,0.014,-0.011,-1.557,-0.024,0.323,28.61,89.4,40.505245,-3.364471,608.5,3,5,247.9,3.164
28.99,1,-0.046,-0.004,0.003,-0.017,0.002,-0.008,-1.557,-0.024,0.324,28.61,89.4,40.505245,-3.364471,608.5,3,5,247.9,3.164
29.09,1,0.031,-0.031,0.063,-0.002,-0.01,0.029,-1.561,-0.023,0.324,28.61,89.4,40.505245,-3.364471,608.5,3,5,247.9,3.164
29.19,1,0.004,-0.014,0.015,0.013,-0.02,0.032,-1.56,-0.022,0.325,28.61,89.4,40.505245,-3.364471,608.5,3,5,247.9,3.164
29.29,1,0.019,-0.003,0.009,0.007,-0.013,0.016,-1.558,-0.019,0.325,28.61,89.4,40.505245,-3.364471,608.5,3,5,247.9,3.164
29.39,1,-0.045,0.013,0.02,-0.007,0.002,0.016,-1.558,-0.017,0.326,28.61,89.4,40.505245,-3.364471,608.5,3,5,247.9,3.164
29.49,1,-0.063,-0.022,0.022,-0.041,-0.002,0.022,-1.559,-0.018,0.326,28.61,89.4,40.505245,-3.364471,608.5,3,5,247.9,3.164
29.59,1,0.006,-0.006,0.006,-0.029,-0.01,0.013,-1.559,-0.019,0.327,28.61,89.4,40.505245,-3.364471,608.5,3,5,247.9,3.164
29.69,1,-0.019,0.005,-0.012,-0.017,-0.003,0.004,-1.56,-0.021,0.328,28.61,89.4,40.505245,-3.364471,608.5,3,5,247.9,3.164
29.79,1,-0.018,0.011,0.036,-0.015,0.006,0.009,-1.562,-0.021,0.328,29.59,89.7,40.505154,-3.364743,609.1,3,5,246.8,2.461
29.9,1,0.027,0.016,-0.007,0.001,0.011,0.015,-1.56,-0.023,0.328,29.59,89.7,40.505154,-3.364743,609.1,3,5,246.8,2.461
29.99,1,-0.013,0.011,-0.047,-0.001,0.012,-0.02,-1.556,-0.021,0.328,29.59,89.7,40.505154,-3.364743,609.1,3,5,246.8,2.461
30.1,1,-0.027,-0.01,-0.026,-0.011,0.003,-0.03,-1.552,-0.018,0.328,29.59,89.7,40.505154,-3.364743,609.1,3,5,246.8,2.461
30.21,1,-0.037,-0.022,-0.005,-0.036,-0.013,-0.02,-1.551,-0.018,0.329,29.59,89.7,40.505154,-3.364743,609.1,3,5,246.8,2.461
30.29,1,0.057,-0.03,-0.013,0.012,-0.021,-0.01,-1.552,-0.017,0.33,29.59,89.7,40.505154,-3.364743,609.1,3,5,246.8,2.461
30.39,1,0.033,-0.003,-0.043,0.03,-0.015,-0.025,-1.552,-0.015,0.331,29.59,89.7,40.505154,-3.364743,609.1,3,5,246.8,2.461
30.49,1,-0.005,-0.018,-0.008,0.02,-0.013,-0.021,-1.549,-0.011,0.332,29.59,89.7,40.505154,-3.364743,609.1,3,5,246.8,2.461
30.59,1,-0.049,-0.009,-0.013,-0.012,-0.014,-0.019,-1.548,-0.01,0.333,29.59,89.7,40.505154,-3.364743,609.1,3,5,246.8,2.461
30.7,1,-0.017,-0.035,0.017,-0.032,-0.019,-0.001,-1.548,-0.008,0.335,29.59,89.7,40.505154,-3.364743,609.1,3,5,246.8,2.461
30.79,1,-0.076,-0.044,-0.011,-0.041,-0.033,0.005,-1.547,-0.005,0.337,30.64,90.1,40.505066,-3.365014,608.6,3,5,245.7,2.109
30.89,1,-0.024,-0.036,-0.001,-0.044,-0.036,-0.006,-1.545,-0.004,0.339,30.64,90.1,40.505066,-3.365014,608.6,3,5,245.7,2.109
30.99,1,-0.01,-0.027,0.015,-0.026,-0.032,0.004,-1.545,-0.002,0.34,30.64,90.1,40.505066,-3.365014,608.6,3,5,245.7,2.109
31.09,1,-0.055,-0.039,0.013,-0.03,-0.035,0.007,-1.547,-0.0,0.342,30.64,90.1,40.505066,-3.365014,608.6,3,5,245.7,2.109
31.19,1,0.015,0.006,0.025,-0.03,-0.023,0.018,-1.549,0.001,0.343,30.64,90.1,40.505066,-3.365014,608.6,3,5,245.7,2.109
31.3,1,-0.0,0.001,0.017,-0.001,-0.003,0.022,-1.553,0.001,0.345,30.64,90.1,40.505066,-3.365014,608.6,3,5,245.7,2.109
31.4,1,0.023,-0.002,-0.002,0.013,-0.002,0.01,-1.555,0.004,0.346,30.64,90.1,40.505066,-3.365014,608.6,3,5,245.7,2.109
31.49,1,0.005,-0.009,0.011,0.01,-0.007,0.006,-1.555,0.005,0.348,30.64,90.1,40.505066,-3.365014,608.6,3,5,245.7,2.109
31.59,1,-0.001,-0.002,-0.021,0.008,-0.004,-0.001,-1.552,0.004,0.349,30.64,90.1,40.505066,-3.365014,608.6,3,5,245.7,2.109
31.69,1,-0.031,-0.035,0.04,-0.017,-0.016,0.007,-1.555,0.006,0.35,30.64,90.1,40.505066,-3.365014,608.6,3,5,245.7,2.109
31.8,1,-0.088,-0.006,0.012,-0.048,-0.017,0.021,-1.557,0.008,0.352,31.61,90.0,40.504971,-3.365278,607.8,3,5,243.6,3.164
31.89,1,-0.026,-0.022,-0.006,-0.058,-0.015,0.002,-1.555,0.01,0.353,31.61,90.0,40.504971,-3.365278,607.8,3,5,243.6,3.164
31.99,1,0.01,0.004,0.011,-0.013,-0.011,0.009,-1.554,0.01,0.355,31.61,90.0,40.504971,-3.365278,607.8,3,5,243.6,3.164
32.1,1,-0.015,-0.0,-0.007,-0.006,-0.005,0.002,-1.552,0.012,0.357,31.61,90.0,40.504971,-3.365278,607.8,3,5,243.6,3.164
32.2,1,0.031,-0.003,0.019,0.006,-0.005,0.005,-1.552,0.016,0.358,31.61,90.0,40.504971,-3.365278,607.8,3,5,243.6,3.164
32.3,1,0.05,0.0,0.024,0.026,0.003,0.018,-1.555,0.016,0.36,31.61,90.0,40.504971,-3.365278,607.8,3,5,243.6,3.164
32.4,1,0.022,0.005,0.011,0.037,0.001,0.016,-1.553,0.02,0.361,31.61,90.0,40.504971,-3.365278,607.8,3,5,243.6,3.164
32.5,1,-0.018,0.006,0.031,0.002,0.003,0.021,-1.553,0.023,0.363,31.61,90.0,40.504971,-3.365278,607.8,3,5,243.6,3.164
32.6,1,-0.091,0.02,0.0,-0.042,0.012,0.012,-1.556,0.026,0.364,31.61,90.0,40.504971,-3.365278,607.8,3,5,243.6,3.164
32.7,1,-0.051,-0.003,0.02,-0.049,0.006,0.015,-1.559,0.027,0.365,31.61,90.0,40.504971,-3.365278,607.8,3,5,243.6,3.164
32.8,1,-0.016,0.0,0.009,-0.032,0.004,0.008,-1.558,0.031,0.367,32.59,89.7,40.504868,-3.365538,609.0,3,5,241.9,3.867
32.9,1,-0.019,0.016,0.002,-0.03,0.004,0.012,-1.559,0.032,0.367,32.59,89.7,40.504868,-3.365538,609.0,3,5,241.9,3.867
33.0,1,-0.009,0.026,0.001,-0.026,0.016,-0.0,-1.559,0.031,0.368,32.59,89.7,40.504868,-3.365538,609.0,3,5,241.9,3.867
33.1,1,0.015,0.015,0.004,0.001,0.02,0.009,-1.562,0.035,0.369,32.59,89.7,40.504868,-3.365538,609.0,3,5,241.9,3.867
33.21,1,-0.01,0.041,-0.026,0.005,0.026,-0.008,-1.559,0.034,0.369,32.59,89.7,40.504868,-3.365538,609.0,3,5,241.9,3.867
33.31,1,-0.021,0.045,0.005,-0.011,0.041,-0.008,-1.558,0.033,0.369,32.59,89.7,40.504868,-3.365538,609.0,3,5,241.9,3.867
33.4,1,-0.024,0.025,0.021,-0.02,0.034,0.006,-1.56,0.033,0.369,32.59,89.7,40.504868,-3.365538,609.0,3,5,241.9,3.867
33.5,1,0.013,0.011,0.005,-0.005,0.019,0.012,-1.561,0.033,0.369,32.59,89.7,40.504868,-3.365538,609.0,3,5,241.9,3.867
33.6,1,0.02,0.05,-0.021,0.01,0.033,-0.004,-1.558,0.029,0.369,32.59,89.7,40.504868,-3.365538,609.0,3,5,241.9,3.867
33.7,1,0.013,0.02,-0.01,0.01,0.031,-0.013,-1.557,0.029,0.369,32.59,89.7,40.504868,-3.365538,609.0,3,5,241.9,3.867
33.81,1,-0.042,0.043,0.008,-0.01,0.033,-0.003,-1.557,0.031,0.369,33.59,90.0,40.504757,-3.365793,608.0,3,5,240.8,2.812
33.9,1,-0.006,0.02,0.003,-0.023,0.03,0.008,-1.556,0.029,0.368,33.59,90.0,40.504757,-3.365793,608.0,3,5,240.8,2.812
34.0,1,0.035,0.059,-0.002,0.011,0.035,-0.003,-1.554,0.028,0.368,33.59,90.0,40.504757,-3.365793,608.0,3,5,240.8,2.812
34.1,1,0.033,0.025,0.034,0.028,0.035,0.009,-1.553,0.029,0.367,33.59,90.0,40.504757,-3.365793,608.0,3,5,240.8,2.812
34.2,1,-0.043,0.044,-0.007,0.002,0.039,0.014,-1.553,0.027,0.366,33.59,90.0,40.504757,-3.365793,608.0,3,5,240.8,2.812
34.3,1,-0.034,0.018,0.055,-0.03,0.036,0.025,-1.558,0.027,0.366,33.59,90.0,40.504757,-3.365793,608.0,3,5,240.8,2.812
34.41,1,0.015,0.036,0.02,-0.011,0.028,0.034,-1.562,0.026,0.365,33.59,90.0,40.504757,-3.365793,608.0,3,5,240.8,2.812
34.51,1,0.012,0.027,-0.011,0.011,0.03,0.011,-1.562,0.026,0.364,33.59,90.0,40.504757,-3.365793,608.0,3,5,240.8,2.812
34.6,1,-0.012,0.049,0.015,-0.002,0.038,0.003,-1.564,0.024,0.363,33.59,90.0,40.504757,-3.365793,608.0,3,5,240.8,2.812
34.7,1,0.035,0.038,0.042,0.003,0.037,0.018,-1.562,0.022,0.362,33.59,90.0,40.504757,-3.365793,608.0,3,5,240.8,2.812
34.8,1,-0.009,0.039,-0.032,0.011,0.039,0.01,-1.563,0.021,0.361,34.69,90.5,40.504639,-3.366044,607.8,3,5,239.1,2.812
34.9,1,-0.07,0.032,0.023,-0.019,0.036,0.003,-1.562,0.021,0.36,34.69,90.5,40.504639,-3.366044,607.8,3,5,239.1,2.812
35.01,1,-0.027,0.014,-0.018,-0.045,0.03,-0.002,-1.561,0.021,0.359,34.69,90.5,40.504639,-3.366044,607.8,3,5,239.1,2.812
35.1,1,0.025,-0.003,0.007,-0.012,0.008,0.001,-1.56,0.023,0.358,34.69,90.5,40.504639,-3.366044,607.8,3,5,239.1,2.812
35.2,1,0.029,0.023,-0.01,0.014,0.016,-0.003,-1.556,0.023,0.356,34.69,90.5,40.504639,-3.366044,607.8,3,5,239.1,2.812
35.3,1,-0.007,0.036,-0.005,0.019,0.026,-0.002,-1.556,0.021,0.355,34.69,90.5,40.504639,-3.366044,607.8,3,5,239.1,2.812
35.4,1,-0.021,0.053,-0.016,-0.008,0.042,-0.016,-1.555,0.02,0.354,34.69,90.5,40.504639,-3.366044,607.8,3,5,239.1,2.812
35.51,1,-0.009,0.015,0.025,-0.018,0.031,0.005,-1.555,0.018,0.352,34.69,90.5,40.504639,-3.366044,607.8,3,5,239.1,2.812
35.61,1,-0.02,0.002,-0.028,-0.016,0.014,0.003,-1.552,0.019,0.351,34.69,90.5,40.504639,-3.366044,607.8,3,5,239.1,2.812
35.72,1,-0.026,0.022,-0.077,-0.019,0.012,-0.049,-1.549,0.02,0.35,34.69,90.5,40.504639,-3.366044,607.8,3,5,239.1,2.812
35.81,1,0.046,-0.008,0.0,0.007,0.014,-0.031,-1.549,0.021,0.348,35.59,91.0,40.50452,-3.366291,607.7,3,5,238.4,2.461
35.91,1,0.055,0.038,-0.018,0.033,0.013,-0.015,-1.546,0.024,0.346,35.59,91.0,40.50452,-3.366291,607.7,3,5,238.4,2.461
36.01,1,-0.045,0.042,-0.048,-0.003,0.032,-0.035,-1.541,0.025,0.345,35.59,91.0,40.50452,-3.366291,607.7,3,5,238.4,2.461
36.11,1,-0.046,0.019,0.001,-0.022,0.03,-0.017,-1.541,0.024,0.343,35.59,91.0,40.50452,-3.366291,607.7,3,5,238.4,2.461
36.21,1,0.009,-0.009,0.006,-0.014,0.01,-0.007,-1.54,0.026,0.341,35.59,91.0,40.50452,-3.366291,607.7,3,5,238.4,2.461
36.31,1,-0.003,0.035,-0.041,-0.002,0.016,-0.014,-1.538,0.025,0.339,35.59,91.0,40.50452,-3.366291,607.7,3,5,238.4,2.461
36.41,1,0.039,0.031,-0.039,0.013,0.025,-0.035,-1.536,0.023,0.337,35.59,91.0,40.50452,-3.366291,607.7,3,5,238.4,2.461
36.51,1,-0.026,0.057,-0.022,0.004,0.041,-0.032,-1.537,0.021,0.336,35.59,91.0,40.50452,-3.366291,607.7,3,5,238.4,2.461
36.71,1,-0.051,0.008,-0.029,-0.025,0.019,-0.012,-1.535,0.021,0.332,35.59,91.0,40.50452,-3.366291,607.7,3,5,238.4,2.461
36.81,1,-0.043,0.004,-0.027,-0.052,0.004,-0.024,-1.533,0.019,0.329,35.59,91.0,40.50452,-3.366291,607.7,3,5,238.4,2.461
36.91,1,-0.042,0.033,-0.004,-0.037,0.017,-0.014,-1.531,0.019,0.326,36.59,91.4,40.504402,-3.366526,607.5,3,5,237.7,1.406
37.01,1,-0.041,0.016,-0.011,-0.051,0.02,-0.013,-1.531,0.017,0.323,36.59,91.4,40.504402,-3.366526,607.5,3,5,237.7,1.406
37.11,1,0.042,0.03,0.006,0.002,0.02,0.002,-1.534,0.015,0.319,36.59,91.4,40.504402,-3.366526,607.5,3,5,237.7,1.406
37.21,1,0.018,0.05,-0.007,0.019,0.035,-0.011,-1.532,0.014,0.316,36.59,91.4,40.504402,-3.366526,607.5,3,5,237.7,1.406
37.32,1,0.027,0.054,0.025,0.015,0.053,0.007,-1.535,0.013,0.313,36.59,91.4,40.504402,-3.366526,607.5,3,5,237.7,1.406
37.41,1,-0.06,-0.015,0.063,-0.0,0.028,0.036,-1.534,0.014,0.31,36.59,91.4,40.504402,-3.366526,607.5,3,5,237.7,1.406
37.51,1,-0.046,0.021,0.015,-0.045,0.013,0.037,-1.535,0.015,0.306,36.59,91.4,40.504402,-3.366526,607.5,3,5,237.7,1.406
37.61,1,-0.045,0.03,0.028,-0.053,0.019,0.027,-1.536,0.013,0.303,36.59,91.4,40.504402,-3.366526,607.5,3,5,237.7,1.406
37.71,1,-0.045,0.055,0.015,-0.034,0.037,0.019,-1.538,0.01,0.3,36.59,91.4,40.504402,-3.366526,607.5,3,5,237.7,1.406
37.81,1,-0.034,0.022,0.047,-0.045,0.033,0.035,-1.543,0.008,0.296,36.59,91.4,40.504402,-3.366526,607.5,3,5,237.7,1.406
37.91,1,0.048,0.014,0.011,-0.002,0.026,0.024,-1.547,0.005,0.293,37.61,91.2,40.50428,-3.366777,607.6,3,5,237.3,1.055
38.01,1,0.084,0.005,0.032,0.04,0.009,0.028,-1.549,0.004,0.29,37.61,91.2,40.50428,-3.366777,607.6,3,5,237.3,1.055
38.12,1,0.05,-0.012,0.053,0.049,0.005,0.035,-1.55,0.003,0.287,37.61,91.2,40.50428,-3.366777,607.6,3,5,237.3,1.055
38.22,1,-0.033,0.009,0.016,0.034,-0.0,0.035,-1.551,0.001,0.285,37.61,91.2,40.50428,-3.366777,607.6,3,5,237.3,1.055
38.31,1,-0.088,-0.027,0.038,-0.044,-0.006,0.025,-1.552,-0.002,0.283,37.61,91.2,40.50428,-3.366777,607.6,3,5,237.3,1.055
38.41,1,-0.002,-0.015,-0.026,-0.027,-0.016,0.011,-1.559,-0.001,0.282,37.61,91.2,40.50428,-3.366777,607.6,3,5,237.3,1.055
38.51,1,0.005,-0.024,-0.012,-0.025,-0.017,-0.009,-1.558,-0.0,0.28,37.61,91.2,40.50428,-3.366777,607.6,3,5,237.3,1.055
38.62,1,0.064,-0.025,-0.004,0.025,-0.025,-0.008,-1.559,-0.001,0.278,37.61,91.2,40.50428,-3.366777,607.6,3,5,237.3,1.055
38.72,1,0.009,-0.01,-0.002,0.046,-0.02,0.0,-1.562,-0.003,0.276,37.61,91.2,40.50428,-3.366777,607.6,3,5,237.3,1.055
38.82,1,-0.056,0.005,0.009,-0.016,-0.005,0.001,-1.564,-0.006,0.275,37.61,91.2,40.50428,-3.366777,607.6,3,5,237.3,1.055
38.91,1,-0.088,-0.015,-0.025,-0.053,-0.005,-0.004,-1.565,-0.007,0.272,38.59,90.7,40.504158,-3.367023,607.1,3,5,237.3,0.352
39.01,1,0.0,-0.026,-0.03,-0.045,-0.016,-0.021,-1.563,-0.006,0.271,38.59,90.7,40.504158,-3.367023,607.1,3,5,237.3,0.352
39.11,1,0.032,-0.041,-0.02,-0.002,-0.029,-0.024,-1.561,-0.005,0.269,38.59,90.7,40.504158,-3.367023,607.1,3,5,237.3,0.352
39.21,1,-0.009,-0.012,-0.023,0.023,-0.025,-0.022,-1.561,-0.007,0.267,38.59,90.7,40.504158,-3.367023,607.1,3,5,237.3,0.352
39.32,1,-0.037,-0.007,-0.055,-0.023,-0.014,-0.036,-1.561,-0.007,0.266,38.59,90.7,40.504158,-3.367023,607.1,3,5,237.3,0.352
39.42,1,-0.03,-0.029,-0.034,-0.036,-0.018,-0.042,-1.561,-0.004,0.264,38.59,90.7,40.504158,-3.367023,607.1,3,5,237.3,0.352
39.52,1,0.077,-0.033,-0.043,0.019,-0.029,-0.032,-1.558,-0.001,0.263,38.59,90.7,40.504158,-3.367023,607.1,3,5,237.3,0.352
39.62,1,0.021,-0.026,-0.006,0.029,-0.026,-0.032,-1.555,0.001,0.261,38.59,90.7,40.504158,-3.367023,607.1,3,5,237.3,0.352
39.72,1,-0.0,-0.039,-0.014,0.012,-0.033,-0.017,-1.555,0.006,0.26,38.59,90.7,40.504158,-3.367023,607.1,3,5,237.3,0.352
39.83,1,0.005,-0.047,-0.011,0.01,-0.042,-0.015,-1.557,0.008,0.259,38.59,90.7,40.504158,-3.367023,607.1,3,5,237.3,0.352
39.92,1,-0.056,-0.041,-0.048,-0.019,-0.04,-0.023,-1.556,0.01,0.259,39.61,91.4,40.504036,-3.367276,606.7,3,5,238.0,0.703
40.02,1,0.003,-0.018,0.003,-0.015,-0.029,-0.019,-1.554,0.014,0.258,39.61,91.4,40.504036,-3.367276,606.7,3,5,238.0,0.703
40.12,1,-0.015,-0.048,-0.039,-0.011,-0.034,-0.028,-1.55,0.018,0.258,39.61,91.4,40.504036,-3.367276,606.7,3,5,238.0,0.703
40.22,1,0.04,-0.024,-0.007,0.008,-0.033,-0.018,-1.548,0.02,0.257,39.61,91.4,40.504036,-3.367276,606.7,3,5,238.0,0.703
40.32,1,0.044,-0.013,-0.004,0.023,-0.027,-0.01,-1.547,0.023,0.257,39.61,91.4,40.504036,-3.367276,606.7,3,5,238.0,0.703
40.43,1,-0.069,0.006,-0.022,-0.002,-0.01,-0.014,-1.545,0.023,0.256,39.61,91.4,40.504036,-3.367276,606.7,3,5,238.0,0.703
40.52,1,-0.05,-0.006,0.006,-0.043,-0.005,-0.01,-1.544,0.023,0.256,39.61,91.4,40.504036,-3.367276,606.7,3,5,238.0,0.703
40.62,1,0.042,-0.034,-0.013,-0.007,-0.018,-0.005,-1.543,0.023,0.255,39.61,91.4,40.504036,-3.367276,606.7,3,5,238.0,0.703
40.72,1,-0.02,0.006,-0.042,0.004,-0.009,-0.023,-1.541,0.021,0.254,39.61,91.4,40.504036,-3.367276,606.7,3,5,238.0,0.703
40.82,1,-0.008,-0.021,-0.006,-0.011,-0.012,-0.025,-1.541,0.021,0.252,39.61,91.4,40.504036,-3.367276,606.7,3,5,238.0,0.703
40.92,1,0.058,0.013,-0.03,0.021,-0.003,-0.015,-1.541,0.021,0.251,40.61,92.1,40.503918,-3.367523,606.3,3,5,238.4,1.055
41.02,1,-0.002,0.023,-0.02,0.02,0.011,-0.026,-1.537,0.019,0.249,40.61,92.1,40.503918,-3.367523,606.3,3,5,238.4,1.055
41.12,1,-0.025,0.02,-0.008,-0.004,0.014,-0.016,-1.536,0.019,0.248,40.61,92.1,40.503918,-3.367523,606.3,3,5,238.4,1.055
41.23,1,-0.055,0.026,-0.004,-0.029,0.026,-0.009,-1.537,0.018,0.246,40.61,92.1,40.503918,-3.367523,606.3,3,5,238.4,1.055
41.32,1,-0.038,0.019,0.023,-0.042,0.018,0.002,-1.534,0.016,0.244,40.61,92.1,40.503918,-3.367523,606.3,3,5,238.4,1.055
41.42,1,-0.045,-0.025,0.005,-0.044,0.001,0.019,-1.534,0.011,0.242,40.61,92.1,40.503918,-3.367523,606.3,3,5,238.4,1.055
41.52,1,0.022,-0.025,-0.022,-0.012,-0.015,-0.012,-1.533,0.011,0.241,40.61,92.1,40.503918,-3.367523,606.3,3,5,238.4,1.055
41.62,1,-0.042,-0.009,-0.001,-0.005,-0.013,-0.007,-1.535,0.012,0.24,40.61,92.1,40.503918,-3.367523,606.3,3,5,238.4,1.055
41.72,1,-0.032,-0.031,0.066,-0.042,-0.019,0.025,-1.539,0.014,0.24,40.61,92.1,40.503918,-3.367523,606.3,3,5,238.4,1.055
41.83,1,0.019,-0.015,0.001,-0.011,-0.021,0.024,-1.539,0.017,0.239,40.61,92.1,40.503918,-3.367523,606.3,3,5,238.4,1.055
41.93,1,-0.035,-0.029,-0.0,-0.017,-0.021,0.006,-1.54,0.021,0.239,41.65,91.7,40.503799,-3.367775,606.3,3,5,238.0,0.352
42.02,1,-0.06,-0.028,0.01,-0.039,-0.026,0.004,-1.545,0.022,0.239,41.65,91.7,40.503799,-3.367775,606.3,3,5,238.0,0.352
42.12,1,-0.05,-0.017,0.033,-0.047,-0.024,0.019,-1.552,0.023,0.239,41.65,91.7,40.503799,-3.367775,606.3,3,5,238.0,0.352
42.22,1,-0.005,0.013,0.047,-0.034,-0.009,0.032,-1.556,0.021,0.238,41.65,91.7,40.503799,-3.367775,606.3,3,5,238.0,0.352
42.32,1,0.051,0.0,0.048,0.006,0.002,0.046,-1.558,0.02,0.237,41.65,91.7,40.503799,-3.367775,606.3,3,5,238.0,0.352
42.43,1,-0.013,-0.037,0.006,-0.0,-0.016,0.024,-1.552,0.02,0.237,41.65,91.7,40.503799,-3.367775,606.3,3,5,238.0,0.352
42.52,1,0.14,-0.02,0.065,0.061,-0.024,0.049,-1.552,0.019,0.236,41.65,91.7,40.503799,-3.367775,606.3,3,5,238.0,0.352
42.62,1,0.034,-0.004,0.006,0.082,-0.013,0.029,-1.551,0.018,0.236,41.65,91.7,40.503799,-3.367775,606.3,3,5,238.0,0.352
42.72,1,0.021,-0.007,0.028,0.053,-0.003,0.027,-1.552,0.017,0.235,41.65,91.7,40.503799,-3.367775,606.3,3,5,238.0,0.352
42.82,1,-0.037,0.014,0.031,-0.001,-0.003,0.025,-1.554,0.013,0.234,41.65,91.7,40.503799,-3.367775,606.3,3,5,238.0,0.352
42.93,1,-0.065,-0.002,0.053,-0.04,0.001,0.043,-1.56,0.011,0.233,42.59,91.0,40.503677,-3.368027,605.6,3,5,238.0,0.352
43.03,1,-0.027,0.02,0.02,-0.039,0.007,0.027,-1.564,0.009,0.232,42.59,91.0,40.503677,-3.368027,605.6,3,5,238.0,0.352
43.13,1,0.011,0.005,0.009,-0.015,0.011,0.027,-1.565,0.01,0.231,42.59,91.0,40.503677,-3.368027,605.6,3,5,238.0,0.352
43.22,1,0.051,-0.0,0.009,0.015,0.0,0.011,-1.566,0.012,0.229,42.59,91.0,40.503677,-3.368027,605.6,3,5,238.0,0.352
43.33,1,-0.05,0.039,0.008,-0.008,0.019,0.007,-1.567,0.012,0.228,42.59,91.0,40.503677,-3.368027,605.6,3,5,238.0,0.352
43.43,1,-0.088,0.004,0.019,-0.048,0.023,0.018,-1.572,0.014,0.227,42.59,91.0,40.503677,-3.368027,605.6,3,5,238.0,0.352
43.53,1,-0.008,0.004,0.005,-0.04,0.008,0.008,-1.576,0.012,0.226,42.59,91.0,40.503677,-3.368027,605.6,3,5,238.0,0.352
43.63,1,0.014,0.007,0.001,-0.003,0.005,0.01,-1.577,0.007,0.224,42.59,91.0,40.503677,-3.368027,605.6,3,5,238.0,0.352
43.73,1,0.052,0.01,0.016,0.023,0.007,0.006,-1.578,0.006,0.223,42.59,91.0,40.503677,-3.368027,605.6,3,5,238.0,0.352
43.85,1,-0.062,0.035,0.003,-0.003,0.02,0.007,-1.578,0.008,0.221,42.59,91.0,40.503677,-3.368027,605.6,3,5,238.0,0.352
43.93,1,-0.102,0.015,-0.028,-0.059,0.023,-0.004,-1.579,0.009,0.22,43.62,90.4,40.503559,-3.368282,605.3,3,5,238.4,0.352
44.03,1,0.011,0.013,0.03,-0.04,0.017,-0.002,-1.581,0.011,0.219,43.62,90.4,40.503559,-3.368282,605.3,3,5,238.4,0.352
44.13,1,-0.047,-0.005,0.019,-0.015,0.004,0.017,-1.582,0.011,0.218,43.62,90.4,40.503559,-3.368282,605.3,3,5,238.4,0.352
44.23,1,-0.154,0.0,-0.007,-0.098,0.007,0.008,-1.583,0.011,0.217,43.62,90.4,40.503559,-3.368282,605.3,3,5,238.4,0.352
44.34,1,0.037,-0.003,0.021,-0.062,-0.001,0.011,-1.584,0.01,0.215,43.62,90.4,40.503559,-3.368282,605.3,3,5,238.4,0.352
44.43,1,0.028,0.008,0.005,0.002,0.001,0.009,-1.585,0.009,0.214,43.62,90.4,40.503559,-3.368282,605.3,3,5,238.4,0.352
44.54,1,-0.077,0.033,-0.035,-0.024,0.015,-0.01,-1.586,0.007,0.213,43.62,90.4,40.503559,-3.368282,605.3,3,5,238.4,0.352
44.63,1,-0.036,-0.007,-0.013,-0.042,0.011,-0.015,-1.588,0.01,0.211,43.62,90.4,40.503559,-3.368282,605.3,3,5,238.4,0.352
44.74,1,0.031,-0.004,0.014,-0.01,0.003,-0.001,-1.59,0.007,0.21,43.62,90.4,40.503559,-3.368282,605.3,3,5,238.4,0.352
44.84,1,-0.049,0.009,-0.026,-0.012,-0.0,-0.01,-1.589,0.007,0.209,43.62,90.4,40.503559,-3.368282,605.3,3,5,238.4,0.352
44.94,1,0.001,-0.026,0.009,-0.023,-0.005,-0.008,-1.59,0.009,0.208,44.61,94.0,40.503429,-3.368536,604.8,3,5,237.3,1.055
45.03,1,-0.01,-0.001,-0.007,0.004,-0.009,0.002,-1.59,0.009,0.207,44.61,94.0,40.503429,-3.368536,604.8,3,5,237.3,1.055
45.13,1,-0.076,-0.0,-0.036,-0.046,-0.003,-0.019,-1.592,0.014,0.206,44.61,94.0,40.503429,-3.368536,604.8,3,5,237.3,1.055
45.23,1,0.048,-0.012,0.027,-0.014,-0.011,-0.006,-1.593,0.016,0.204,44.61,94.0,40.503429,-3.368536,604.8,3,5,237.3,1.055
45.34,1,-0.023,0.024,-0.012,-0.006,0.006,0.004,-1.596,0.018,0.203,44.61,94.0,40.503429,-3.368536,604.8,3,5,237.3,1.055
45.43,1,0.006,-0.002,0.002,-0.002,0.009,-0.003,-1.594,0.016,0.202,44.61,94.0,40.503429,-3.368536,604.8,3,5,237.3,1.055
45.54,1,-0.023,0.017,0.005,-0.009,0.011,-0.001,-1.594,0.018,0.201,44.61,94.0,40.503429,-3.368536,604.8,3,5,237.3,1.055
45.63,1,-0.019,0.003,0.015,-0.035,0.01,0.006,-1.595,0.02,0.2,44.61,94.0,40.503429,-3.368536,604.8,3,5,237.3,1.055
45.73,1,0.063,-0.001,-0.009,0.022,0.003,0.009,-1.593,0.02,0.199,44.61,94.0,40.503429,-3.368536,604.8,3,5,237.3,1.055
45.83,1,-0.039,0.034,-0.031,0.012,0.012,-0.017,-1.588,0.017,0.198,44.61,94.0,40.503429,-3.368536,604.8,3,5,237.3,1.055
45.93,1,-0.084,-0.009,-0.029,-0.043,0.011,-0.024,-1.588,0.015,0.196,45.6,96.3,40.5033,-3.368796,604.6,3,5,237.7,0.703
46.04,1,0.016,0.002,-0.034,-0.022,0.0,-0.03,-1.585,0.011,0.195,45.6,96.3,40.5033,-3.368796,604.6,3,5,237.7,0.703
46.14,1,-0.01,0.018,-0.012,-0.02,0.008,-0.025,-1.581,0.009,0.194,45.6,96.3,40.5033,-3.368796,604.6,3,5,237.7,0.703
46.23,1,0.032,-0.021,-0.015,0.015,-0.001,-0.016,-1.58,0.007,0.192,45.6,96.3,40.5033,-3.368796,604.6,3,5,237.7,0.703
46.33,1,-0.031,0.012,-0.033,0.003,-0.001,-0.02,-1.578,0.007,0.192,45.6,96.3,40.5033,-3.368796,604.6,3,5,237.7,0.703
46.43,1,0.01,-0.004,-0.067,0.001,-0.005,-0.038,-1.573,0.006,0.191,45.6,96.3,40.5033,-3.368796,604.6,3,5,237.7,0.703
46.53,1,-0.022,0.001,-0.023,-0.019,0.003,-0.045,-1.572,0.009,0.19,45.6,96.3,40.5033,-3.368796,604.6,3,5,237.7,0.703
46.73,1,-0.092,-0.003,-0.035,-0.036,0.006,-0.039,-1.567,0.012,0.189,45.6,96.3,40.5033,-3.368796,604.6,3,5,237.7,0.703
46.84,1,0.041,-0.047,-0.001,-0.018,-0.017,-0.018,-1.568,0.012,0.189,45.6,96.3,40.5033,-3.368796,604.6,3,5,237.7,0.703
46.94,1,0.004,-0.034,-0.001,-0.0,-0.031,-0.009,-1.568,0.016,0.189,45.6,96.3,40.5033,-3.368796,604.6,3,5,237.7,0.703
47.04,1,0.07,-0.039,-0.021,0.027,-0.038,-0.013,-1.567,0.018,0.19,46.62,98.0,40.50317,-3.369065,604.7,3,5,237.7,0.352
47.14,1,-0.093,-0.016,-0.036,-0.007,-0.027,-0.023,-1.565,0.019,0.191,46.62,98.0,40.50317,-3.369065,604.7,3,5,237.7,0.352
47.25,1,-0.043,-0.018,0.001,-0.045,-0.022,-0.019,-1.566,0.021,0.191,46.62,98.0,40.50317,-3.369065,604.7,3,5,237.7,0.352
47.34,1,-0.077,-0.022,-0.01,-0.046,-0.02,-0.006,-1.566,0.019,0.19,46.62,98.0,40.50317,-3.369065,604.7,3,5,237.7,0.352
47.45,1,0.038,-0.002,0.015,-0.033,-0.01,-0.001,-1.567,0.015,0.189,46.62,98.0,40.50317,-3.369065,604.7,3,5,237.7,0.352
47.54,1,0.104,-0.001,0.038,0.04,-0.01,0.017,-1.566,0.008,0.188,46.62,98.0,40.50317,-3.369065,604.7,3,5,237.7,0.352
47.64,1,-0.061,0.027,-0.019,0.02,0.007,0.012,-1.566,0.002,0.187,46.62,98.0,40.50317,-3.369065,604.7,3,5,237.7,0.352
47.74,1,0.041,-0.009,-0.004,0.006,0.01,-0.005,-1.564,-0.001,0.186,46.62,98.0,40.50317,-3.369065,604.7,3,5,237.7,0.352
47.84,1,-0.05,0.026,-0.014,-0.011,0.01,-0.006,-1.563,-0.003,0.185,46.62,98.0,40.50317,-3.369065,604.7,3,5,237.7,0.352
47.95,1,-0.03,-0.015,0.01,-0.023,0.004,-0.003,-1.564,0.001,0.185,46.62,98.0,40.50317,-3.369065,604.7,3,5,237.7,0.352
48.04,1,-0.044,-0.021,-0.018,-0.031,-0.01,-0.006,-1.564,0.004,0.185,47.59,98.7,40.50304,-3.36934,604.1,3,5,237.7,0.0
48.14,1,0.043,-0.051,0.031,-0.01,-0.03,0.004,-1.562,0.01,0.186,47.59,98.7,40.50304,-3.36934,604.1,3,5,237.7,0.0
48.24,1,-0.078,-0.045,-0.013,-0.008,-0.046,0.012,-1.562,0.014,0.187,47.59,98.7,40.50304,-3.36934,604.1,3,5,237.7,0.0
48.34,1,0.024,-0.065,0.012,-0.03,-0.047,-0.005,-1.562,0.016,0.188,47.59,98.7,40.50304,-3.36934,604.1,3,5,237.7,0.0
48.45,1,-0.014,-0.047,-0.003,0.005,-0.056,0.005,-1.562,0.018,0.189,47.59,98.7,40.50304,-3.36934,604.1,3,5,237.7,0.0
48.54,1,-0.023,-0.042,0.015,-0.024,-0.042,0.011,-1.566,0.022,0.19,47.59,98.7,40.50304,-3.36934,604.1,3,5,237.7,0.0
48.65,1,-0.009,-0.035,-0.012,-0.011,-0.045,-0.001,-1.569,0.027,0.192,47.59,98.7,40.50304,-3.36934,604.1,3,5,237.7,0.0
48.74,1,-0.019,-0.041,-0.002,-0.017,-0.039,-0.003,-1.57,0.028,0.193,47.59,98.7,40.50304,-3.36934,604.1,3,5,237.7,0.0
48.84,1,0.032,-0.031,-0.019,-0.004,-0.036,-0.015,-1.565,0.03,0.194,47.59,98.7,40.50304,-3.36934,604.1,3,5,237.7,0.0
48.94,1,-0.053,-0.008,-0.036,-0.007,-0.026,-0.02,-1.564,0.031,0.195,47.59,98.7,40.50304,-3.36934,604.1,3,5,237.7,0.0
49.04,1,-0.027,-0.017,-0.001,-0.031,-0.017,-0.013,-1.565,0.032,0.196,48.6,98.8,40.502903,-3.369615,604.3,3,5,237.3,0.352
49.15,1,-0.021,-0.003,-0.018,-0.022,-0.01,-0.015,-1.563,0.032,0.196,48.6,98.8,40.502903,-3.369615,604.3,3,5,237.3,0.352
49.27,1,-0.008,0.011,-0.015,-0.015,-0.001,-0.014,-1.562,0.032,0.196,48.6,98.8,40.502903,-3.369615,604.3,3,5,237.3,0.352
49.35,1,-0.014,-0.002,-0.03,-0.027,0.002,-0.024,-1.562,0.034,0.195,48.6,98.8,40.502903,-3.369615,604.3,3,5,237.3,0.352
49.45,1,0.03,-0.002,-0.027,0.004,0.001,-0.023,-1.558,0.033,0.195,48.6,98.8,40.502903,-3.369615,604.3,3,5,237.3,0.352
49.54,1,0.037,0.022,-0.032,0.031,0.007,-0.031,-1.556,0.031,0.194,48.6,98.8,40.502903,-3.369615,604.3,3,5,237.3,0.352
49.64,1,-0.042,0.03,-0.034,0.014,0.018,-0.031,-1.554,0.027,0.193,48.6,98.8,40.502903,-3.369615,604.3,3,5,237.3,0.352
49.74,1,0.001,0.031,-0.005,-0.026,0.032,-0.022,-1.554,0.024,0.191,48.6,98.8,40.502903,-3.369615,604.3,3,5,237.3,0.352
49.86,1,0.018,0.029,-0.047,0.018,0.026,-0.025,-1.553,0.021,0.19,48.6,98.8,40.502903,-3.369615,604.3,3,5,237.3,0.352
49.94,1,-0.068,0.02,-0.049,-0.025,0.026,-0.044,-1.553,0.016,0.189,48.6,98.8,40.502903,-3.369615,604.3,3,5,237.3,0.352
50.04,1,0.016,0.028,-0.01,-0.015,0.023,-0.031,-1.555,0.011,0.187,49.59,99.6,40.502769,-3.369887,605.1,3,5,237.0,0.703
50.14,1,0.012,0.044,-0.014,-0.005,0.035,-0.019,-1.554,0.004,0.185,49.59,99.6,40.502769,-3.369887,605.1,3,5,237.0,0.703
50.24,1,-0.002,0.021,-0.04,0.013,0.029,-0.023,-1.551,0.001,0.183,49.59,99.6,40.502769,-3.369887,605.1,3,5,237.0,0.703
50.34,1,-0.059,0.034,-0.03,-0.032,0.033,-0.037,-1.549,-0.002,0.181,49.59,99.6,40.502769,-3.369887,605.1,3,5,237.0,0.703
50.44,1,0.025,0.03,-0.006,-0.019,0.031,-0.02,-1.55,-0.007,0.179,49.59,99.6,40.502769,-3.369887,605.1,3,5,237.0,0.703
50.55,1,-0.012,0.006,-0.011,0.001,0.02,-0.015,-1.55,-0.008,0.177,49.59,99.6,40.502769,-3.369887,605.1,3,5,237.0,0.703
50.66,1,0.019,0.013,0.018,0.0,0.014,0.002,-1.55,-0.01,0.176,49.59,99.6,40.502769,-3.369887,605.1,3,5,237.0,0.703
50.75,1,-0.035,0.035,0.011,-0.012,0.023,0.006,-1.552,-0.011,0.174,49.59,99.6,40.502769,-3.369887,605.1,3,5,237.0,0.703
50.85,1,0.042,0.011,0.047,0.008,0.022,0.03,-1.555,-0.012,0.172,49.59,99.6,40.502769,-3.369887,605.1,3,5,237.0,0.703
50.95,1,0.002,0.031,0.023,0.025,0.021,0.026,-1.556,-0.011,0.17,49.59,99.6,40.502769,-3.369887,605.1,3,5,237.0,0.703
51.05,1,-0.016,0.012,0.03,-0.022,0.024,0.026,-1.556,-0.011,0.168,50.6,99.6,40.502625,-3.370162,605.0,3,5,236.2,1.055
51.15,1,0.012,0.002,0.041,0.011,0.008,0.038,-1.557,-0.013,0.166,50.6,99.6,40.502625,-3.370162,605.0,3,5,236.2,1.055
51.25,1,-0.041,0.008,0.014,-0.017,0.008,0.023,-1.558,-0.014,0.164,50.6,99.6,40.502625,-3.370162,605.0,3,5,236.2,1.055
51.35,1,-0.011,0.017,0.009,-0.013,0.009,0.018,-1.564,-0.015,0.163,50.6,99.6,40.502625,-3.370162,605.0,3,5,236.2,1.055
51.45,1,-0.01,0.008,0.005,-0.02,0.014,0.009,-1.565,-0.017,0.161,50.6,99.6,40.502625,-3.370162,605.0,3,5,236.2,1.055
51.56,1,-0.012,0.022,-0.001,-0.004,0.013,0.008,-1.565,-0.017,0.159,50.6,99.6,40.502625,-3.370162,605.0,3,5,236.2,1.055
51.65,1,-0.09,0.017,-0.019,-0.04,0.018,-0.004,-1.564,-0.019,0.157,50.6,99.6,40.502625,-3.370162,605.0,3,5,236.2,1.055
51.75,1,-0.033,0.003,-0.003,-0.058,0.013,-0.01,-1.565,-0.018,0.155,50.6,99.6,40.502625,-3.370162,605.0,3,5,236.2,1.055
51.86,1,-0.048,0.013,-0.014,-0.041,0.01,-0.009,-1.564,-0.02,0.154,50.6,99.6,40.502625,-3.370162,605.0,3,5,236.2,1.055
51.95,1,0.027,-0.009,0.042,-0.029,0.004,0.01,-1.563,-0.023,0.152,50.6,99.6,40.502625,-3.370162,605.0,3,5,236.2,1.055
52.05,1,-0.034,-0.006,-0.026,-0.006,-0.007,0.008,-1.562,-0.025,0.15,51.6,99.6,40.502487,-3.370438,603.7,3,5,237.0,0.703
52.15,1,0.054,-0.035,-0.005,0.019,-0.015,-0.01,-1.561,-0.024,0.149,51.6,99.6,40.502487,-3.370438,603.7,3,5,237.0,0.703
52.26,1,-0.022,-0.043,-0.016,0.014,-0.032,-0.006,-1.558,-0.024,0.149,51.6,99.6,40.502487,-3.370438,603.7,3,5,237.0,0.703
52.35,1,-0.016,-0.061,-0.054,-0.028,-0.045,-0.032,-1.554,-0.022,0.149,51.6,99.6,40.502487,-3.370438,603.7,3,5,237.0,0.703
52.46,1,-0.001,-0.035,-0.044,-0.002,-0.045,-0.043,-1.548,-0.02,0.15,51.6,99.6,40.502487,-3.370438,603.7,3,5,237.0,0.703
52.55,1,-0.023,-0.027,-0.041,-0.013,-0.036,-0.041,-1.542,-0.014,0.15,51.6,99.6,40.502487,-3.370438,603.7,3,5,237.0,0.703
52.65,1,0.041,-0.063,-0.03,0.012,-0.045,-0.032,-1.538,-0.009,0.15,51.6,99.6,40.502487,-3.370438,603.7,3,5,237.0,0.703
52.75,1,-0.066,-0.032,-0.041,-0.009,-0.041,-0.038,-1.537,-0.006,0.151,51.6,99.6,40.502487,-3.370438,603.7,3,5,237.0,0.703
52.85,1,0.009,-0.05,-0.022,-0.039,-0.041,-0.037,-1.538,-0.003,0.151,51.6,99.6,40.502487,-3.370438,603.7,3,5,237.0,0.703
52.95,1,-0.021,-0.025,-0.045,-0.001,-0.045,-0.031,-1.535,-0.0,0.151,51.6,99.6,40.502487,-3.370438,603.7,3,5,237.0,0.703
53.05,1,0.018,-0.029,0.002,-0.01,-0.026,-0.023,-1.532,0.001,0.152,52.64,99.9,40.502346,-3.370712,603.7,3,5,237.7,1.406
53.15,1,-0.01,-0.033,-0.038,0.007,-0.035,-0.023,-1.53,0.001,0.152,52.64,99.9,40.502346,-3.370712,603.7,3,5,237.7,1.406
53.25,1,-0.019,-0.037,-0.033,-0.008,-0.032,-0.03,-1.529,0.005,0.153,52.64,99.9,40.502346,-3.370712,603.7,3,5,237.7,1.406
53.35,1,-0.046,-0.032,-0.025,-0.027,-0.033,-0.031,-1.529,0.005,0.153,52.64,99.9,40.502346,-3.370712,603.7,3,5,237.7,1.406
53.46,1,-0.032,-0.018,-0.039,-0.04,-0.028,-0.032,-1.527,0.006,0.153,52.64,99.9,40.502346,-3.370712,603.7,3,5,237.7,1.406
53.55,1,-0.008,-0.016,-0.023,-0.019,-0.022,-0.031,-1.525,0.011,0.153,52.64,99.9,40.502346,-3.370712,603.7,3,5,237.7,1.406
53.67,1,-0.016,-0.024,-0.013,-0.027,-0.024,-0.022,-1.523,0.01,0.154,52.64,99.9,40.502346,-3.370712,603.7,3,5,237.7,1.406
53.76,1,0.031,-0.004,-0.008,0.008,-0.009,-0.014,-1.523,0.01,0.154,52.64,99.9,40.502346,-3.370712,603.7,3,5,237.7,1.406
53.85,1,-0.033,-0.04,-0.027,-0.008,-0.023,-0.02,-1.52,0.01,0.155,52.64,99.9,40.502346,-3.370712,603.7,3,5,237.7,1.406
53.95,1,0.025,-0.051,-0.031,0.007,-0.032,-0.021,-1.519,0.013,0.155,52.64,99.9,40.502346,-3.370712,603.7,3,5,237.7,1.406
54.05,1,0.044,-0.044,-0.009,0.005,-0.051,-0.025,-1.519,0.019,0.156,53.6,100.2,40.502216,-3.370989,603.4,3,5,238.0,1.055
54.15,1,0.061,-0.002,0.02,0.047,-0.026,-0.004,-1.514,0.017,0.157,53.6,100.2,40.502216,-3.370989,603.4,3,5,238.0,1.055
54.26,1,-0.002,0.009,0.015,0.041,-0.006,0.01,-1.514,0.013,0.159,53.6,100.2,40.502216,-3.370989,603.4,3,5,238.0,1.055
54.35,1,0.008,-0.047,0.005,0.008,-0.016,0.011,-1.516,0.02,0.16,53.6,100.2,40.502216,-3.370989,603.4,3,5,238.0,1.055
54.45,1,-0.039,-0.066,0.034,-0.001,-0.049,0.019,-1.52,0.024,0.162,53.6,100.2,40.502216,-3.370989,603.4,3,5,238.0,1.055
54.56,1,-0.032,-0.001,0.027,-0.032,-0.036,0.028,-1.521,0.023,0.162,53.6,100.2,40.502216,-3.370989,603.4,3,5,238.0,1.055
54.66,1,0.034,-0.017,0.014,0.001,-0.018,0.021,-1.519,0.023,0.163,53.6,100.2,40.502216,-3.370989,603.4,3,5,238.0,1.055
54.76,1,-0.01,-0.001,0.037,0.013,-0.012,0.028,-1.52,0.02,0.164,53.6,100.2,40.502216,-3.370989,603.4,3,5,238.0,1.055
54.87,1,-0.037,-0.0,0.008,-0.023,-0.002,0.023,-1.524,0.025,0.165,53.6,100.2,40.502216,-3.370989,603.4,3,5,238.0,1.055
54.96,1,0.008,-0.031,0.033,-0.009,-0.013,0.021,-1.526,0.03,0.166,53.6,100.2,40.502216,-3.370989,603.4,3,5,238.0,1.055
55.06,1,-0.018,0.0,0.004,-0.003,-0.011,0.022,-1.527,0.033,0.167,54.61,99.0,40.502083,-3.371269,602.9,3,5,237.7,0.352
55.16,1,0.027,0.017,0.039,-0.001,0.0,0.017,-1.527,0.031,0.167,54.61,99.0,40.502083,-3.371269,602.9,3,5,237.7,0.352
55.26,1,-0.068,0.009,0.034,-0.024,0.009,0.031,-1.528,0.032,0.168,54.61,99.0,40.502083,-3.371269,602.9,3,5,237.7,0.352
55.36,1,-0.007,0.019,0.034,-0.04,0.011,0.032,-1.53,0.033,0.168,54.61,99.0,40.502083,-3.371269,602.9,3,5,237.7,0.352
55.46,1,0.103,0.002,0.063,0.027,0.009,0.047,-1.532,0.034,0.168,54.61,99.0,40.502083,-3.371269,602.9,3,5,237.7,0.352
55.57,1,-0.047,0.002,0.013,0.024,0.007,0.036,-1.531,0.036,0.169,54.61,99.0,40.502083,-3.371269,602.9,3,5,237.7,0.352
55.66,1,-0.024,0.02,0.015,-0.004,0.009,0.024,-1.532,0.036,0.169,54.61,99.0,40.502083,-3.371269,602.9,3,5,237.7,0.352
55.76,1,0.019,0.02,0.022,0.006,0.016,0.023,-1.535,0.033,0.17,54.61,99.0,40.502083,-3.371269,602.9,3,5,237.7,0.352
55.86,1,-0.075,0.021,0.025,-0.034,0.023,0.019,-1.54,0.034,0.17,54.61,99.0,40.502083,-3.371269,602.9,3,5,237.7,0.352
55.96,1,0.067,0.036,0.025,-0.01,0.024,0.024,-1.542,0.034,0.169,54.61,99.0,40.502083,-3.371269,602.9,3,5,237.7,0.352
56.06,1,-0.072,0.026,0.01,-0.003,0.026,0.024,-1.544,0.031,0.169,55.61,98.0,40.501949,-3.371543,603.3,3,5,237.3,0.703
56.17,1,0.05,0.024,0.043,-0.009,0.029,0.025,-1.546,0.026,0.168,55.61,98.0,40.501949,-3.371543,603.3,3,5,237.3,0.703
56.26,1,-0.044,0.048,0.022,-0.005,0.034,0.028,-1.547,0.025,0.167,55.61,98.0,40.501949,-3.371543,603.3,3,5,237.3,0.703
56.36,1,0.02,0.034,0.029,-0.009,0.037,0.028,-1.546,0.019,0.167,55.61,98.0,40.501949,-3.371543,603.3,3,5,237.3,0.703
56.46,1,-0.008,0.053,0.034,0.007,0.044,0.027,-1.545,0.012,0.165,55.61,98.0,40.501949,-3.371543,603.3,3,5,237.3,0.703
56.56,1,0.068,0.035,0.022,0.011,0.043,0.025,-1.545,0.012,0.165,55.61,98.0,40.501949,-3.371543,603.3,3,5,237.3,0.703
56.66,1,0.094,-0.013,0.027,0.071,0.017,0.03,-1.546,0.013,0.164,55.61,98.0,40.501949,-3.371543,603.3,3,5,237.3,0.703
56.77,1,-0.086,0.006,0.001,0.004,0.011,0.012,-1.546,0.014,0.165,55.61,98.0,40.501949,-3.371543,603.3,3,5,237.3,0.703
56.87,1,-0.015,0.006,-0.001,-0.019,0.002,0.006,-1.546,0.015,0.165,55.61,98.0,40.501949,-3.371543,603.3,3,5,237.3,0.703
56.96,1,-0.128,0.019,0.001,-0.055,0.011,0.001,-1.549,0.013,0.165,55.61,98.0,40.501949,-3.371543,603.3,3,5,237.3,0.703
57.06,1,-0.006,-0.04,0.075,-0.057,-0.009,0.032,-1.554,0.008,0.165,56.59,98.7,40.501816,-3.371814,603.3,3,5,236.6,1.055
57.16,1,-0.042,-0.036,0.006,-0.041,-0.024,0.03,-1.554,0.009,0.166,56.59,98.7,40.501816,-3.371814,603.3,3,5,236.6,1.055
57.26,1,0.023,-0.036,0.048,-0.01,-0.032,0.036,-1.555,0.01,0.166,56.59,98.7,40.501816,-3.371814,603.3,3,5,236.6,1.055
57.37,1,-0.048,-0.003,0.0,-0.014,-0.019,0.022,-1.558,0.007,0.166,56.59,98.7,40.501816,-3.371814,603.3,3,5,236.6,1.055
57.46,1,-0.011,-0.048,0.031,-0.036,-0.031,0.02,-1.564,0.002,0.167,56.59,98.7,40.501816,-3.371814,603.3,3,5,236.6,1.055
57.56,1,0.004,-0.001,0.009,0.003,-0.026,0.024,-1.568,0.005,0.167,56.59,98.7,40.501816,-3.371814,603.3,3,5,236.6,1.055
57.66,1,0.011,-0.045,0.009,-0.003,-0.019,0.009,-1.568,0.008,0.168,56.59,98.7,40.501816,-3.371814,603.3,3,5,236.6,1.055
57.76,1,0.03,-0.023,0.015,0.014,-0.03,0.012,-1.571,0.011,0.168,56.59,98.7,40.501816,-3.371814,603.3,3,5,236.6,1.055
57.86,1,-0.043,0.004,-0.029,-0.001,-0.014,-0.002,-1.571,0.011,0.168,56.59,98.7,40.501816,-3.371814,603.3,3,5,236.6,1.055
57.97,1,0.012,0.004,0.002,-0.006,-0.005,-0.008,-1.573,0.012,0.168,56.59,98.7,40.501816,-3.371814,603.3,3,5,236.6,1.055
58.07,1,-0.032,0.005,-0.038,-0.018,0.002,-0.017,-1.572,0.013,0.168,57.63,100.1,40.501678,-3.372086,602.2,3,5,236.6,0.703
58.16,1,0.02,-0.012,0.002,-0.002,-0.001,-0.015,-1.574,0.014,0.167,57.63,100.1,40.501678,-3.372086,602.2,3,5,236.6,0.703
58.26,1,-0.07,0.014,0.001,-0.03,0.003,-0.009,-1.576,0.013,0.167,57.63,100.1,40.501678,-3.372086,602.2,3,5,236.6,0.703
58.36,1,0.024,0.018,-0.01,-0.015,0.013,-0.003,-1.578,0.012,0.167,57.63,100.1,40.501678,-3.372086,602.2,3,5,236.6,0.703
58.47,1,-0.039,0.022,-0.037,-0.015,0.015,-0.015,-1.576,0.011,0.166,57.63,100.1,40.501678,-3.372086,602.2,3,5,236.6,0.703
58.57,1,0.064,-0.004,-0.01,0.017,0.009,-0.024,-1.577,0.011,0.166,57.63,100.1,40.501678,-3.372086,602.2,3,5,236.6,0.703
58.67,1,-0.075,0.031,-0.04,-0.008,0.01,-0.022,-1.577,0.008,0.165,57.63,100.1,40.501678,-3.372086,602.2,3,5,236.6,0.703
58.77,1,0.01,0.024,-0.009,-0.029,0.025,-0.024,-1.575,0.003,0.165,57.63,100.1,40.501678,-3.372086,602.2,3,5,236.6,0.703
58.87,1,0.025,-0.01,-0.024,0.007,0.008,-0.022,-1.571,0.001,0.164,57.63,100.1,40.501678,-3.372086,602.2,3,5,236.6,0.703
58.97,1,0.011,0.025,-0.061,0.01,0.011,-0.039,-1.566,-0.001,0.163,57.63,100.1,40.501678,-3.372086,602.2,3,5,236.6,0.703
59.07,1,-0.091,0.01,-0.08,-0.018,0.012,-0.055,-1.562,-0.003,0.162,58.6,100.3,40.501537,-3.372358,602.4,3,5,236.6,0.0
59.18,1,-0.031,0.023,-0.035,-0.055,0.022,-0.055,-1.559,-0.004,0.161,58.6,100.3,40.501537,-3.372358,602.4,3,5,236.6,0.0
59.27,1,-0.015,0.028,-0.045,-0.018,0.019,-0.047,-1.558,-0.004,0.16,58.6,100.3,40.501537,-3.372358,602.4,3,5,236.6,0.0
59.37,1,0.01,0.015,-0.037,-0.016,0.021,-0.043,-1.555,-0.005,0.159,58.6,100.3,40.501537,-3.372358,602.4,3,5,236.6,0.0
59.47,1,-0.053,0.023,-0.058,-0.014,0.021,-0.047,-1.554,-0.001,0.158,58.6,100.3,40.501537,-3.372358,602.4,3,5,236.6,0.0
59.57,1,-0.041,0.029,-0.08,-0.05,0.023,-0.063,-1.552,0.002,0.157,58.6,100.3,40.501537,-3.372358,602.4,3,5,236.6,0.0
59.68,1,0.009,0.004,-0.022,-0.009,0.018,-0.049,-1.549,0.002,0.156,58.6,100.3,40.501537,-3.372358,602.4,3,5,236.6,0.0
59.77,1,-0.009,0.005,-0.044,-0.008,0.011,-0.045,-1.541,0.001,0.155,58.6,100.3,40.501537,-3.372358,602.4,3,5,236.6,0.0
59.88,1,-0.012,0.024,-0.062,-0.001,0.014,-0.044,-1.537,0.001,0.154,58.6,100.3,40.501537,-3.372358,602.4,3,5,236.6,0.0
59.98,1,-0.061,-0.013,-0.072,-0.031,0.006,-0.064,-1.535,0.002,0.154,58.6,100.3,40.501537,-3.372358,602.4,3,5,236.6,0.0
60.07,1,-0.011,-0.009,-0.015,-0.039,-0.006,-0.045,-1.534,0.008,0.154,59.6,100.7,40.501396,-3.372636,602.6,3,5,236.6,0.0
60.17,1,0.026,0.008,-0.05,-0.003,-0.002,-0.046,-1.53,0.006,0.153,59.6,100.7,40.501396,-3.372636,602.6,3,5,236.6,0.0
60.28,1,0.074,-0.001,-0.044,0.038,0.002,-0.041,-1.527,0.005,0.153,59.6,100.7,40.501396,-3.372636,602.6,3,5,236.6,0.0
60.38,1,0.0,0.013,-0.022,0.023,0.007,-0.034,-1.524,0.004,0.152,59.6,100.7,40.501396,-3.372636,602.6,3,5,236.6,0.0
60.48,1,-0.004,0.009,-0.038,0.007,0.007,-0.031,-1.523,0.006,0.152,59.6,100.7,40.501396,-3.372636,602.6,3,5,236.6,0.0
60.58,1,-0.077,0.01,-0.048,-0.017,0.011,-0.039,-1.525,0.003,0.151,59.6,100.7,40.501396,-3.372636,602.6,3,5,236.6,0.0
60.67,1,-0.102,-0.008,-0.051,-0.076,0.004,-0.053,-1.523,-0.002,0.151,59.6,100.7,40.501396,-3.372636,602.6,3,5,236.6,0.0
60.77,1,0.018,0.001,0.001,-0.042,-0.001,-0.022,-1.52,-0.003,0.15,59.6,100.7,40.501396,-3.372636,602.6,3,5,236.6,0.0
60.88,1,0.016,0.015,0.025,-0.005,0.005,-0.001,-1.521,-0.008,0.149,59.6,100.7,40.501396,-3.372636,602.6,3,5,236.6,0.0
60.98,1,-0.047,0.007,0.009,-0.016,0.012,0.001,-1.523,-0.008,0.148,59.6,100.7,40.501396,-3.372636,602.6,3,5,236.6,0.0
61.08,1,0.017,0.004,0.058,-0.005,0.007,0.029,-1.526,-0.007,0.147,60.6,100.6,40.501259,-3.37292,602.7,3,5,237.0,0.352
61.24,1,-0.037,0.0,0.023,-0.015,0.001,0.038,-1.53,-0.006,0.146,60.6,100.6,40.501259,-3.37292,602.7,3,5,237.0,0.352
61.27,1,0.104,0.03,0.019,0.023,0.013,0.031,-1.534,-0.003,0.145,60.6,100.6,40.501259,-3.37292,602.7,3,5,237.0,0.352
61.38,1,-0.024,0.007,0.003,0.027,0.014,0.01,-1.531,-0.002,0.145,60.6,100.6,40.501259,-3.37292,602.7,3,5,237.0,0.352
61.47,1,-0.011,-0.011,0.015,-0.009,0.005,0.011,-1.531,-0.001,0.145,60.6,100.6,40.501259,-3.37292,602.7,3,5,237.0,0.352
61.58,1,0.047,-0.021,0.041,0.021,-0.014,0.025,-1.535,-0.001,0.144,60.6,100.6,40.501259,-3.37292,602.7,3,5,237.0,0.352
61.68,1,-0.045,-0.0,-0.001,-0.001,-0.004,0.016,-1.538,0.0,0.145,60.6,100.6,40.501259,-3.37292,602.7,3,5,237.0,0.352
61.77,1,-0.016,-0.017,0.007,-0.024,-0.013,0.009,-1.538,0.003,0.145,60.6,100.6,40.501259,-3.37292,602.7,3,5,237.0,0.352
61.87,1,0.032,-0.007,0.032,0.006,-0.012,0.019,-1.54,0.004,0.146,60.6,100.6,40.501259,-3.37292,602.7,3,5,237.0,0.352
61.98,1,-0.074,0.008,0.022,-0.021,-0.001,0.025,-1.541,0.003,0.146,60.6,100.6,40.501259,-3.37292,602.7,3,5,237.0,0.352
62.07,1,-0.001,-0.001,0.017,-0.044,-0.001,0.018,-1.542,0.004,0.146,61.59,98.3,40.501125,-3.373194,602.8,3,5,237.3,0.703
62.17,1,-0.033,0.004,0.035,-0.008,0.0,0.025,-1.543,0.006,0.145,61.59,98.3,40.501125,-3.373194,602.8,3,5,237.3,0.703
62.27,1,-0.093,-0.002,-0.01,-0.053,0.004,0.017,-1.542,0.009,0.145,61.59,98.3,40.501125,-3.373194,602.8,3,5,237.3,0.703
62.38,1,0.067,-0.011,0.041,-0.018,-0.008,0.015,-1.544,0.009,0.144,61.59,98.3,40.501125,-3.373194,602.8,3,5,237.3,0.703
62.48,1,-0.074,0.043,0.009,-0.02,0.012,0.022,-1.546,0.006,0.144,61.59,98.3,40.501125,-3.373194,602.8,3,5,237.3,0.703
62.58,1,0.017,0.018,0.019,-0.024,0.025,0.02,-1.546,0.006,0.143,61.59,98.3,40.501125,-3.373194,602.8,3,5,237.3,0.703
62.68,1,0.066,-0.007,0.038,0.039,0.007,0.029,-1.547,0.008,0.143,61.59,98.3,40.501125,-3.373194,602.8,3,5,237.3,0.703
62.78,1,-0.021,-0.018,-0.001,0.012,-0.003,0.014,-1.546,0.01,0.143,61.59,98.3,40.501125,-3.373194,602.8,3,5,237.3,0.703
62.88,1,0.05,0.017,0.009,0.028,-0.003,0.011,-1.545,0.007,0.142,61.59,98.3,40.501125,-3.373194,602.8,3,5,237.3,0.703
62.98,1,-0.075,0.013,0.0,-0.014,0.012,0.006,-1.545,0.002,0.142,61.59,98.3,40.501125,-3.373194,602.8,3,5,237.3,0.703
63.08,1,0.001,0.014,0.033,-0.031,0.013,0.011,-1.547,0.001,0.141,62.6,97.8,40.500992,-3.373461,602.3,3,5,237.3,0.352
63.18,1,-0.027,0.027,0.039,-0.001,0.017,0.036,-1.549,0.001,0.14,62.6,97.8,40.500992,-3.373461,602.3,3,5,237.3,0.352
63.28,1,-0.045,0.037,0.023,-0.048,0.031,0.023,-1.552,0.004,0.14,62.6,97.8,40.500992,-3.373461,602.3,3,5,237.3,0.352
63.38,1,0.063,-0.012,-0.002,0.01,0.012,0.027,-1.551,0.007,0.139,62.6,97.8,40.500992,-3.373461,602.3,3,5,237.3,0.352
63.48,1,-0.017,0.002,-0.02,-0.006,0.006,-0.016,-1.549,0.006,0.139,62.6,97.8,40.500992,-3.373461,602.3,3,5,237.3,0.352
63.58,1,-0.021,0.022,0.029,0.002,0.006,0.002,-1.552,0.009,0.138,62.6,97.8,40.500992,-3.373461,602.3,3,5,237.3,0.352
63.68,1,-0.048,0.001,0.032,-0.026,0.012,0.028,-1.56,0.012,0.137,62.6,97.8,40.500992,-3.373461,602.3,3,5,237.3,0.352
63.78,1,0.027,0.013,0.031,-0.014,0.008,0.024,-1.559,0.01,0.137,62.6,97.8,40.500992,-3.373461,602.3,3,5,237.3,0.352
63.88,1,-0.018,-0.001,-0.008,-0.001,0.01,0.021,-1.558,0.009,0.137,62.6,97.8,40.500992,-3.373461,602.3,3,5,237.3,0.352
63.98,1,0.02,-0.012,0.008,0.008,-0.005,0.005,-1.557,0.008,0.137,62.6,97.8,40.500992,-3.373461,602.3,3,5,237.3,0.352
64.08,1,0.024,-0.025,0.01,0.025,-0.018,0.013,-1.559,0.007,0.137,63.61,98.1,40.50087,-3.373704,602.0,3,5,237.3,0.0
64.19,1,-0.005,0.001,0.031,0.002,-0.006,0.015,-1.561,0.007,0.137,63.61,98.1,40.50087,-3.373704,602.0,3,5,237.3,0.0
64.29,1,-0.005,0.006,0.007,0.002,-0.004,0.018,-1.561,0.007,0.137,63.61,98.1,40.50087,-3.373704,602.0,3,5,237.3,0.0
64.38,1,-0.072,0.009,0.009,-0.041,0.009,0.007,-1.565,0.009,0.137,63.61,98.1,40.50087,-3.373704,602.0,3,5,237.3,0.0
64.48,1,0.013,-0.011,0.029,-0.016,-0.0,0.015,-1.567,0.011,0.137,63.61,98.1,40.50087,-3.373704,602.0,3,5,237.3,0.0
64.58,1,-0.035,0.003,-0.004,-0.017,-0.003,0.015,-1.568,0.011,0.137,63.61,98.1,40.50087,-3.373704,602.0,3,5,237.3,0.0
64.68,1,0.01,0.004,0.005,-0.004,-0.002,0.009,-1.569,0.011,0.137,63.61,98.1,40.50087,-3.373704,602.0,3,5,237.3,0.0
64.78,1,-0.025,0.026,-0.0,-0.018,0.017,0.003,-1.571,0.01,0.137,63.61,98.1,40.50087,-3.373704,602.0,3,5,237.3,0.0
64.88,1,-0.034,0.021,0.0,-0.031,0.02,-0.003,-1.573,0.01,0.137,63.61,98.1,40.50087,-3.373704,602.0,3,5,237.3,0.0
64.98,1,0.037,-0.018,0.001,0.003,0.005,0.011,-1.577,0.01,0.137,63.61,98.1,40.50087,-3.373704,602.0,3,5,237.3,0.0
65.09,1,-0.031,-0.006,-0.042,-0.005,-0.005,-0.022,-1.576,0.01,0.138,64.65,99.0,40.50074,-3.373986,602.2,3,5,237.3,0.0
65.18,1,-0.027,-0.015,-0.023,-0.015,-0.008,-0.024,-1.574,0.012,0.139,64.65,99.0,40.50074,-3.373986,602.2,3,5,237.3,0.0
65.29,1,0.002,0.002,0.008,-0.023,-0.011,-0.013,-1.572,0.018,0.139,64.65,99.0,40.50074,-3.373986,602.2,3,5,237.3,0.0
65.38,1,0.024,-0.005,-0.021,0.012,-0.002,-0.009,-1.569,0.018,0.14,64.65,99.0,40.50074,-3.373986,602.2,3,5,237.3,0.0
65.48,1,0.02,-0.028,0.028,0.011,-0.009,-0.004,-1.561,0.021,0.14,64.65,99.0,40.50074,-3.373986,602.2,3,5,237.3,0.0
65.58,1,-0.03,-0.006,-0.016,0.003,-0.019,0.007,-1.561,0.021,0.141,64.65,99.0,40.50074,-3.373986,602.2,3,5,237.3,0.0
65.68,1,-0.067,-0.002,-0.017,-0.035,-0.007,-0.013,-1.559,0.019,0.142,64.65,99.0,40.50074,-3.373986,602.2,3,5,237.3,0.0
65.78,1,0.018,-0.027,-0.035,-0.022,-0.014,-0.022,-1.555,0.019,0.143,64.65,99.0,40.50074,-3.373986,602.2,3,5,237.3,0.0
65.89,1,-0.01,-0.013,-0.016,-0.008,-0.015,-0.025,-1.55,0.025,0.145,64.65,99.0,40.50074,-3.373986,602.2,3,5,237.3,0.0
65.99,1,-0.017,-0.042,-0.03,-0.008,-0.026,-0.023,-1.545,0.027,0.146,64.65,99.0,40.50074,-3.373986,602.2,3,5,237.3,0.0
66.09,1,-0.03,-0.026,-0.038,-0.025,-0.031,-0.031,-1.542,0.028,0.147,65.6,100.0,40.50061,-3.374258,601.7,3,5,237.7,0.352
66.18,1,0.022,-0.013,-0.004,0.008,-0.026,-0.017,-1.543,0.028,0.148,65.6,100.0,40.50061,-3.374258,601.7,3,5,237.7,0.352
66.28,1,-0.016,-0.001,-0.021,-0.015,-0.009,-0.02,-1.541,0.03,0.149,65.6,100.0,40.50061,-3.374258,601.7,3,5,237.7,0.352
66.38,1,-0.015,-0.023,-0.011,-0.005,-0.015,-0.016,-1.538,0.031,0.15,65.6,100.0,40.50061,-3.374258,601.7,3,5,237.7,0.352
66.48,1,-0.011,-0.009,-0.014,-0.016,-0.013,-0.014,-1.539,0.034,0.152,65.6,100.0,40.50061,-3.374258,601.7,3,5,237.7,0.352
66.59,1,-0.011,-0.014,-0.019,-0.005,-0.016,-0.018,-1.54,0.036,0.153,65.6,100.0,40.50061,-3.374258,601.7,3,5,237.7,0.352
66.69,1,-0.03,-0.016,0.013,-0.03,-0.015,-0.005,-1.543,0.041,0.154,65.6,100.0,40.50061,-3.374258,601.7,3,5,237.7,0.352
66.79,1,-0.048,0.031,-0.007,-0.021,0.003,0.0,-1.543,0.04,0.154,65.6,100.0,40.50061,-3.374258,601.7,3,5,237.7,0.352
66.89,1,-0.103,-0.002,-0.026,-0.074,0.013,-0.014,-1.543,0.044,0.155,65.6,100.0,40.50061,-3.374258,601.7,3,5,237.7,0.352
66.99,1,0.071,-0.0,0.009,-0.019,0.006,-0.005,-1.543,0.043,0.156,65.6,100.0,40.50061,-3.374258,601.7,3,5,237.7,0.352
67.09,1,0.003,0.011,-0.012,0.017,0.001,-0.004,-1.542,0.041,0.157,66.69,100.8,40.500473,-3.374534,601.7,3,5,237.7,0.352
67.2,1,0.011,0.013,-0.016,-0.002,0.007,-0.017,-1.54,0.038,0.157,66.69,100.8,40.500473,-3.374534,601.7,3,5,237.7,0.352
67.29,1,0.009,0.026,-0.014,0.023,0.019,-0.011,-1.541,0.035,0.158,66.69,100.8,40.500473,-3.374534,601.7,3,5,237.7,0.352
67.39,1,-0.007,0.007,-0.013,-0.009,0.014,-0.014,-1.539,0.035,0.159,66.69,100.8,40.500473,-3.374534,601.7,3,5,237.7,0.352
67.49,1,-0.011,-0.016,-0.042,0.002,-0.001,-0.024,-1.537,0.036,0.159,66.69,100.8,40.500473,-3.374534,601.7,3,5,237.7,0.352
67.59,1,0.02,-0.008,-0.035,-0.006,-0.001,-0.032,-1.535,0.038,0.16,66.69,100.8,40.500473,-3.374534,601.7,3,5,237.7,0.352
67.69,1,-0.009,0.015,-0.02,0.014,-0.002,-0.028,-1.534,0.039,0.16,66.69,100.8,40.500473,-3.374534,601.7,3,5,237.7,0.352
67.8,1,-0.085,-0.001,-0.017,-0.045,0.007,-0.023,-1.534,0.04,0.161,66.69,100.8,40.500473,-3.374534,601.7,3,5,237.7,0.352
67.89,1,0.013,0.002,0.02,-0.029,-0.0,-0.005,-1.536,0.04,0.162,66.69,100.8,40.500473,-3.374534,601.7,3,5,237.7,0.352
67.99,1,-0.005,0.012,-0.008,0.001,0.005,0.001,-1.535,0.036,0.163,66.69,100.8,40.500473,-3.374534,601.7,3,5,237.7,0.352
68.09,1,-0.029,0.003,-0.027,-0.02,0.009,-0.009,-1.53,0.034,0.164,67.62,100.3,40.500336,-3.374815,601.8,3,5,237.0,0.703
68.19,1,0.081,0.013,-0.012,0.025,0.008,-0.014,-1.529,0.033,0.164,67.62,100.3,40.500336,-3.374815,601.8,3,5,237.0,0.703
68.29,1,-0.047,0.038,-0.038,0.003,0.018,-0.027,-1.526,0.032,0.164,67.62,100.3,40.500336,-3.374815,601.8,3,5,237.0,0.703
68.4,1,-0.058,0.024,-0.059,-0.046,0.025,-0.048,-1.527,0.027,0.164,67.62,100.3,40.500336,-3.374815,601.8,3,5,237.0,0.703
68.5,1,-0.048,0.046,-0.008,-0.026,0.038,-0.029,-1.528,0.025,0.164,67.62,100.3,40.500336,-3.374815,601.8,3,5,237.0,0.703
68.6,1,-0.037,0.021,-0.005,-0.059,0.029,-0.016,-1.528,0.024,0.163,67.62,100.3,40.500336,-3.374815,601.8,3,5,237.0,0.703
68.69,1,-0.014,0.033,-0.006,-0.014,0.026,-0.004,-1.528,0.025,0.162,67.62,100.3,40.500336,-3.374815,601.8,3,5,237.0,0.703
68.79,1,-0.068,0.053,-0.048,-0.05,0.044,-0.026,-1.527,0.024,0.162,67.62,100.3,40.500336,-3.374815,601.8,3,5,237.0,0.703
68.9,1,0.011,0.05,-0.019,-0.018,0.046,-0.034,-1.527,0.022,0.16,67.62,100.3,40.500336,-3.374815,601.8,3,5,237.0,0.703
69.0,1,-0.06,0.056,0.013,-0.033,0.054,-0.002,-1.528,0.02,0.159,67.62,100.3,40.500336,-3.374815,601.8,3,5,237.0,0.703
69.1,1,0.049,0.038,0.008,-0.013,0.049,-0.003,-1.529,0.017,0.158,68.61,99.6,40.500202,-3.375077,601.5,3,5,236.6,1.055
69.2,1,-0.032,0.06,-0.002,0.006,0.048,0.009,-1.534,0.018,0.157,68.61,99.6,40.500202,-3.375077,601.5,3,5,236.6,1.055
69.29,1,-0.025,0.027,0.035,-0.03,0.048,0.009,-1.533,0.015,0.156,68.61,99.6,40.500202,-3.375077,601.5,3,5,236.6,1.055
69.39,1,0.012,0.05,0.029,-0.006,0.037,0.023,-1.535,0.014,0.155,68.61,99.6,40.500202,-3.375077,601.5,3,5,236.6,1.055
69.49,1,-0.091,0.038,-0.004,-0.044,0.043,0.02,-1.535,0.008,0.154,68.61,99.6,40.500202,-3.375077,601.5,3,5,236.6,1.055
69.59,1,0.088,0.025,0.014,0.008,0.036,0.005,-1.535,0.005,0.153,68.61,99.6,40.500202,-3.375077,601.5,3,5,236.6,1.055
69.69,1,-0.06,0.031,0.013,0.0,0.03,0.015,-1.533,0.004,0.152,68.61,99.6,40.500202,-3.375077,601.5,3,5,236.6,1.055
69.8,1,0.0,0.026,0.037,-0.018,0.031,0.021,-1.533,0.002,0.151,68.61,99.6,40.500202,-3.375077,601.5,3,5,236.6,1.055
69.89,1,-0.036,0.048,0.023,-0.008,0.034,0.029,-1.535,-0.002,0.149,68.61,99.6,40.500202,-3.375077,601.5,3,5,236.6,1.055
69.99,1,-0.091,0.024,-0.004,-0.06,0.033,0.013,-1.534,-0.002,0.149,68.61,99.6,40.500202,-3.375077,601.5,3,5,236.6,1.055
70.1,1,0.021,0.014,0.042,-0.032,0.028,0.018,-1.535,0.0,0.148,69.61,98.4,40.500069,-3.37535,600.8,3,5,236.2,0.703
70.19,1,0.03,-0.005,0.047,0.01,0.005,0.042,-1.538,0.003,0.147,69.61,98.4,40.500069,-3.37535,600.8,3,5,236.2,0.703
70.31,1,-0.013,0.008,-0.042,0.001,0.004,0.004,-1.539,0.001,0.147,69.61,98.4,40.500069,-3.37535,600.8,3,5,236.2,0.703
70.4,1,0.014,0.023,0.004,0.003,0.017,-0.003,-1.54,0.001,0.146,69.61,98.4,40.500069,-3.37535,600.8,3,5,236.2,0.703
70.51,1,-0.05,-0.0,0.003,-0.011,0.007,-0.004,-1.54,0.003,0.147,69.61,98.4,40.500069,-3.37535,600.8,3,5,236.2,0.703
70.6,1,0.013,-0.007,0.028,-0.024,0.005,0.01,-1.545,0.005,0.146,69.61,98.4,40.500069,-3.37535,600.8,3,5,236.2,0.703
70.7,1,-0.003,0.006,0.012,0.006,0.0,0.019,-1.548,0.007,0.146,69.61,98.4,40.500069,-3.37535,600.8,3,5,236.2,0.703
70.8,1,0.02,-0.008,-0.007,-0.001,-0.006,0.008,-1.546,0.009,0.147,69.61,98.4,40.500069,-3.37535,600.8,3,5,236.2,0.703
70.9,1,-0.012,-0.02,0.023,0.007,-0.01,0.007,-1.544,0.011,0.148,69.61,98.4,40.500069,-3.37535,600.8,3,5,236.2,0.703
71.0,1,-0.044,0.009,0.008,-0.025,-0.005,0.012,-1.546,0.016,0.148,69.61,98.4,40.500069,-3.37535,600.8,3,5,236.2,0.703
71.1,1,-0.06,-0.01,0.001,-0.043,-0.002,0.007,-1.546,0.016,0.149,70.6,97.9,40.499928,-3.375615,600.6,3,5,237.0,0.703
71.2,1,0.056,0.005,0.013,0.0,-0.004,0.009,-1.55,0.018,0.149,70.6,97.9,40.499928,-3.375615,600.6,3,5,237.0,0.703
71.3,1,-0.048,0.005,-0.014,-0.004,0.004,0.001,-1.551,0.016,0.15,70.6,97.9,40.499928,-3.375615,600.6,3,5,237.0,0.703
71.4,1,0.02,-0.031,0.034,-0.011,-0.01,0.008,-1.551,0.012,0.15,70.6,97.9,40.499928,-3.375615,600.6,3,5,237.0,0.703
71.51,1,-0.059,0.006,0.015,-0.014,-0.007,0.018,-1.548,0.011,0.151,70.6,97.9,40.499928,-3.375615,600.6,3,5,237.0,0.703
71.6,1,-0.021,-0.0,0.005,-0.046,-0.003,0.012,-1.548,0.011,0.151,70.6,97.9,40.499928,-3.375615,600.6,3,5,237.0,0.703
71.71,1,-0.031,0.023,0.004,-0.015,0.009,0.008,-1.549,0.011,0.151,70.6,97.9,40.499928,-3.375615,600.6,3,5,237.0,0.703
71.8,1,-0.016,0.008,0.006,-0.028,0.014,0.006,-1.548,0.01,0.152,70.6,97.9,40.499928,-3.375615,600.6,3,5,237.0,0.703
71.9,1,0.035,-0.005,0.014,0.002,-0.001,0.007,-1.547,0.015,0.152,70.6,97.9,40.499928,-3.375615,600.6,3,5,237.0,0.703
72.0,1,-0.014,-0.007,0.008,-0.003,0.001,0.007,-1.548,0.015,0.153,70.6,97.9,40.499928,-3.375615,600.6,3,5,237.0,0.703
72.11,1,-0.007,-0.019,0.035,-0.005,-0.012,0.021,-1.551,0.019,0.154,71.61,98.9,40.499802,-3.375887,599.7,4,5,237.7,1.406
72.2,1,-0.051,-0.008,0.019,-0.014,-0.011,0.026,-1.551,0.02,0.155,71.61,98.9,40.499802,-3.375887,599.7,4,5,237.7,1.406
72.31,1,-0.037,0.005,0.022,-0.043,-0.003,0.018,-1.556,0.021,0.155,71.61,98.9,40.499802,-3.375887,599.7,4,5,237.7,1.406
72.41,1,-0.003,0.004,0.034,-0.017,0.0,0.027,-1.56,0.017,0.156,71.61,98.9,40.499802,-3.375887,599.7,4,5,237.7,1.406
72.5,1,0.025,0.006,0.04,-0.009,0.002,0.034,-1.565,0.017,0.157,71.61,98.9,40.499802,-3.375887,599.7,4,5,237.7,1.406
72.6,1,0.02,0.009,0.025,0.021,0.009,0.029,-1.564,0.015,0.158,71.61,98.9,40.499802,-3.375887,599.7,4,5,237.7,1.406
72.71,1,0.044,0.002,0.021,0.024,0.005,0.027,-1.565,0.017,0.158,71.61,98.9,40.499802,-3.375887,599.7,4,5,237.7,1.406
72.8,1,-0.015,0.003,0.053,0.021,0.002,0.035,-1.567,0.018,0.16,71.61,98.9,40.499802,-3.375887,599.7,4,5,237.7,1.406
72.92,1,0.019,-0.004,0.046,0.007,0.001,0.042,-1.568,0.02,0.161,71.61,98.9,40.499802,-3.375887,599.7,4,5,237.7,1.406
73.0,1,-0.048,0.007,0.03,-0.007,0.001,0.043,-1.57,0.021,0.161,71.61,98.9,40.499802,-3.375887,599.7,4,5,237.7,1.406
73.11,1,-0.077,-0.009,0.022,-0.046,-0.001,0.031,-1.572,0.022,0.163,72.64,98.7,40.499672,-3.376164,600.5,4,5,237.3,0.352
73.2,1,0.011,-0.007,0.044,-0.033,-0.003,0.031,-1.577,0.022,0.163,72.64,98.7,40.499672,-3.376164,600.5,4,5,237.3,0.352
73.3,1,-0.099,-0.004,0.009,-0.047,-0.007,0.031,-1.58,0.021,0.164,72.64,98.7,40.499672,-3.376164,600.5,4,5,237.3,0.352
73.4,1,0.009,0.007,0.038,-0.031,-0.001,0.025,-1.584,0.021,0.165,72.64,98.7,40.499672,-3.376164,600.5,4,5,237.3,0.352
73.51,1,-0.032,0.016,-0.003,-0.028,0.008,0.017,-1.583,0.021,0.166,72.64,98.7,40.499672,-3.376164,600.5,4,5,237.3,0.352
73.61,1,0.066,0.013,0.014,0.007,0.012,0.012,-1.588,0.021,0.167,72.64,98.7,40.499672,-3.376164,600.5,4,5,237.3,0.352
73.71,1,-0.008,0.011,-0.006,0.014,0.012,0.008,-1.587,0.022,0.168,72.64,98.7,40.499672,-3.376164,600.5,4,5,237.3,0.352
73.8,1,0.08,-0.006,0.025,0.031,0.005,0.006,-1.588,0.022,0.168,72.64,98.7,40.499672,-3.376164,600.5,4,5,237.3,0.352
73.91,1,-0.044,0.019,-0.025,0.008,0.008,-0.001,-1.589,0.021,0.169,72.64,98.7,40.499672,-3.376164,600.5,4,5,237.3,0.352
74.0,1,-0.039,0.014,0.009,-0.029,0.017,-0.002,-1.589,0.022,0.17,72.64,98.7,40.499672,-3.376164,600.5,4,5,237.3,0.352
74.1,1,-0.041,0.009,-0.036,-0.011,0.011,-0.013,-1.591,0.022,0.17,73.62,99.9,40.499531,-3.376443,600.1,3,5,237.0,0.703
74.21,1,-0.036,0.011,0.006,-0.032,0.006,-0.011,-1.592,0.02,0.171,73.62,99.9,40.499531,-3.376443,600.1,3,5,237.0,0.703
74.31,1,-0.078,0.016,0.043,-0.066,0.014,0.012,-1.592,0.018,0.171,73.62,99.9,40.499531,-3.376443,600.1,3,5,237.0,0.703
74.41,1,0.099,0.011,0.026,0.013,0.014,0.029,-1.592,0.016,0.171,73.62,99.9,40.499531,-3.376443,600.1,3,5,237.0,0.703
74.51,1,-0.028,0.01,-0.03,0.002,0.01,0.001,-1.591,0.015,0.172,73.62,99.9,40.499531,-3.376443,600.1,3,5,237.0,0.703
74.62,1,0.001,0.016,0.01,0.01,0.014,0.001,-1.59,0.014,0.172,73.62,99.9,40.499531,-3.376443,600.1,3,5,237.0,0.703
74.71,1,0.004,0.022,-0.002,-0.012,0.016,0.001,-1.588,0.013,0.172,73.62,99.9,40.499531,-3.376443,600.1,3,5,237.0,0.703
74.81,1,-0.018,0.02,-0.012,-0.002,0.019,-0.005,-1.584,0.012,0.172,73.62,99.9,40.499531,-3.376443,600.1,3,5,237.0,0.703
74.91,1,-0.015,0.02,0.024,-0.007,0.02,0.005,-1.584,0.01,0.172,73.62,99.9,40.499531,-3.376443,600.1,3,5,237.0,0.703
75.01,1,-0.037,0.003,0.04,-0.028,0.012,0.024,-1.586,0.009,0.172,73.62,99.9,40.499531,-3.376443,600.1,3,5,237.0,0.703
75.11,1,-0.035,0.034,-0.01,-0.02,0.018,0.014,-1.584,0.007,0.172,74.66,101.3,40.499397,-3.37672,599.3,3,5,236.6,0.703
75.21,1,-0.011,0.029,-0.003,-0.023,0.027,0.001,-1.582,0.005,0.171,74.66,101.3,40.499397,-3.37672,599.3,3,5,236.6,0.703
75.32,1,-0.086,0.03,-0.011,-0.039,0.032,-0.004,-1.581,0.004,0.171,74.66,101.3,40.499397,-3.37672,599.3,3,5,236.6,0.703
75.42,1,0.025,0.03,0.023,-0.039,0.03,0.002,-1.582,0.003,0.171,74.66,101.3,40.499397,-3.37672,599.3,3,5,236.6,0.703
75.51,1,-0.021,0.013,0.008,-0.017,0.021,0.015,-1.584,0.006,0.171,74.66,101.3,40.499397,-3.37672,599.3,3,5,236.6,0.703
75.61,1,-0.027,0.018,0.012,-0.018,0.016,0.008,-1.584,0.007,0.171,74.66,101.3,40.499397,-3.37672,599.3,3,5,236.6,0.703
75.71,1,0.045,0.007,0.013,0.009,0.017,0.011,-1.584,0.009,0.172,74.66,101.3,40.499397,-3.37672,599.3,3,5,236.6,0.703
75.81,1,-0.017,0.006,-0.004,0.004,0.009,0.008,-1.584,0.01,0.172,74.66,101.3,40.499397,-3.37672,599.3,3,5,236.6,0.703
75.91,1,-0.049,0.012,0.011,-0.025,0.005,0.004,-1.583,0.011,0.172,74.66,101.3,40.499397,-3.37672,599.3,3,5,236.6,0.703
76.02,1,0.005,-0.003,0.017,-0.018,0.011,0.017,-1.585,0.01,0.172,74.66,101.3,40.499397,-3.37672,599.3,3,5,236.6,0.703
76.11,1,0.02,-0.025,-0.004,0.004,-0.013,0.004,-1.583,0.014,0.172,75.65,102.6,40.499256,-3.377,599.0,3,5,236.2,0.703
76.21,1,-0.043,-0.002,0.002,-0.007,-0.008,-0.0,-1.584,0.013,0.173,75.65,102.6,40.499256,-3.377,599.0,3,5,236.2,0.703
76.32,1,-0.038,-0.008,-0.004,-0.026,-0.007,0.007,-1.585,0.012,0.173,75.65,102.6,40.499256,-3.377,599.0,3,5,236.2,0.703
76.41,1,0.014,-0.006,0.012,-0.009,-0.006,0.003,-1.589,0.015,0.173,75.65,102.6,40.499256,-3.377,599.0,3,5,236.2,0.703
76.52,1,-0.036,-0.009,0.008,-0.012,-0.008,0.009,-1.59,0.015,0.174,75.65,102.6,40.499256,-3.377,599.0,3,5,236.2,0.703
76.61,1,0.002,-0.008,0.031,-0.031,-0.004,0.011,-1.592,0.014,0.175,75.65,102.6,40.499256,-3.377,599.0,3,5,236.2,0.703
76.81,1,0.039,0.014,-0.011,0.026,-0.006,0.007,-1.589,0.014,0.175,75.65,102.6,40.499256,-3.377,599.0,3,5,236.2,0.703
76.91,1,0.022,0.036,-0.024,0.031,0.018,-0.006,-1.586,0.01,0.173,75.65,102.6,40.499256,-3.377,599.0,3,5,236.2,0.703
77.02,1,-0.057,0.06,-0.054,-0.003,0.039,-0.028,-1.585,0.003,0.172,75.65,102.6,40.499256,-3.377,599.0,3,5,236.2,0.703
77.11,1,-0.065,0.053,-0.054,-0.056,0.054,-0.048,-1.583,-0.002,0.171,75.65,102.6,40.499256,-3.377,599.0,3,5,236.2,0.703
77.21,1,-0.022,0.023,-0.044,-0.037,0.031,-0.043,-1.582,-0.004,0.17,76.61,105.0,40.499111,-3.377288,598.9,4,5,236.2,0.352
77.32,1,-0.099,0.034,-0.061,-0.065,0.033,-0.058,-1.578,-0.009,0.168,76.61,105.0,40.499111,-3.377288,598.9,4,5,236.2,0.352
77.41,1,0.018,0.022,-0.017,-0.02,0.037,-0.038,-1.577,-0.013,0.167,76.61,105.0,40.499111,-3.377288,598.9,4,5,236.2,0.352
77.52,1,0.033,0.037,-0.037,-0.004,0.03,-0.031,-1.573,-0.012,0.166,76.61,105.0,40.499111,-3.377288,598.9,4,5,236.2,0.352
77.62,1,0.006,0.016,-0.082,-0.006,0.021,-0.061,-1.566,-0.011,0.165,76.61,105.0,40.499111,-3.377288,598.9,4,5,236.2,0.352
77.72,1,0.023,-0.024,-0.068,0.03,0.007,-0.061,-1.558,-0.009,0.164,76.61,105.0,40.499111,-3.377288,598.9,4,5,236.2,0.352
77.82,1,0.026,-0.027,-0.067,0.025,-0.016,-0.067,-1.552,-0.009,0.165,76.61,105.0,40.499111,-3.377288,598.9,4,5,236.2,0.352
77.92,1,-0.132,-0.048,-0.073,-0.041,-0.03,-0.07,-1.548,-0.008,0.166,76.61,105.0,40.499111,-3.377288,598.9,4,5,236.2,0.352
78.02,1,-0.066,-0.043,-0.034,-0.069,-0.036,-0.06,-1.547,-0.005,0.167,76.61,105.0,40.499111,-3.377288,598.9,4,5,236.2,0.352
78.12,1,-0.013,-0.04,-0.038,-0.036,-0.046,-0.038,-1.548,0.001,0.168,76.61,105.0,40.499111,-3.377288,598.9,4,5,236.2,0.352
78.22,1,-0.03,-0.018,-0.061,-0.042,-0.033,-0.05,-1.548,0.002,0.169,77.61,106.3,40.498966,-3.377575,598.8,4,5,235.9,0.352
78.32,1,0.008,-0.04,-0.043,-0.013,-0.032,-0.049,-1.546,0.005,0.17,77.61,106.3,40.498966,-3.377575,598.8,4,5,235.9,0.352
78.42,1,0.037,-0.018,-0.08,0.002,-0.027,-0.064,-1.544,0.006,0.171,77.61,106.3,40.498966,-3.377575,598.8,4,5,235.9,0.352
78.52,1,0.008,-0.031,-0.062,0.021,-0.027,-0.067,-1.538,0.007,0.172,77.61,106.3,40.498966,-3.377575,598.8,4,5,235.9,0.352
78.62,1,-0.024,-0.035,-0.041,0.009,-0.029,-0.047,-1.534,0.008,0.173,77.61,106.3,40.498966,-3.377575,598.8,4,5,235.9,0.352
78.72,1,-0.021,-0.015,-0.036,-0.029,-0.025,-0.049,-1.532,0.007,0.173,77.61,106.3,40.498966,-3.377575,598.8,4,5,235.9,0.352
78.82,1,-0.107,-0.028,-0.062,-0.055,-0.023,-0.051,-1.532,0.009,0.174,77.61,106.3,40.498966,-3.377575,598.8,4,5,235.9,0.352
78.92,1,-0.038,-0.024,-0.032,-0.051,-0.026,-0.04,-1.532,0.013,0.175,77.61,106.3,40.498966,-3.377575,598.8,4,5,235.9,0.352
79.02,1,0.008,0.003,-0.007,-0.04,-0.014,-0.031,-1.532,0.015,0.176,77.61,106.3,40.498966,-3.377575,598.8,4,5,235.9,0.352
79.13,1,0.067,-0.004,0.008,0.028,-0.005,-0.005,-1.532,0.018,0.176,77.61,106.3,40.498966,-3.377575,598.8,4,5,235.9,0.352
79.23,1,0.011,0.005,-0.027,0.022,-0.005,-0.014,-1.526,0.022,0.177,78.59,106.5,40.498821,-3.377872,599.4,4,5,236.6,0.703
79.32,1,0.003,-0.018,-0.014,0.025,-0.001,-0.016,-1.523,0.023,0.177,78.59,106.5,40.498821,-3.377872,599.4,4,5,236.6,0.703
79.42,1,-0.001,-0.002,0.006,-0.006,-0.009,-0.007,-1.522,0.022,0.178,78.59,106.5,40.498821,-3.377872,599.4,4,5,236.6,0.703
79.52,1,-0.024,0.019,0.0,0.003,0.005,-0.0,-1.519,0.021,0.178,78.59,106.5,40.498821,-3.377872,599.4,4,5,236.6,0.703
79.62,1,-0.065,0.002,-0.015,-0.032,0.006,-0.003,-1.519,0.021,0.178,78.59,106.5,40.498821,-3.377872,599.4,4,5,236.6,0.703
79.73,1,-0.031,0.001,-0.002,-0.04,0.005,-0.008,-1.525,0.019,0.179,78.59,106.5,40.498821,-3.377872,599.4,4,5,236.6,0.703
79.83,1,0.051,-0.008,0.054,-0.005,-0.001,0.016,-1.527,0.019,0.18,78.59,106.5,40.498821,-3.377872,599.4,4,5,236.6,0.703
79.93,1,-0.027,-0.008,0.038,-0.005,-0.007,0.035,-1.526,0.019,0.181,78.59,106.5,40.498821,-3.377872,599.4,4,5,236.6,0.703
80.02,1,0.019,0.007,0.009,0.008,0.003,0.032,-1.527,0.018,0.181,78.59,106.5,40.498821,-3.377872,599.4,4,5,236.6,0.703
80.12,1,-0.026,0.003,0.019,-0.013,0.003,0.013,-1.529,0.02,0.181,78.59,106.5,40.498821,-3.377872,599.4,4,5,236.6,0.703
80.22,1,0.001,0.021,0.056,-0.005,0.006,0.032,-1.533,0.024,0.181,79.61,106.2,40.498669,-3.378158,599.2,4,5,235.9,0.703
80.32,1,-0.023,0.039,-0.011,-0.018,0.021,0.023,-1.535,0.025,0.181,79.61,106.2,40.498669,-3.378158,599.2,4,5,235.9,0.703
80.42,1,-0.005,0.007,0.002,0.001,0.023,0.009,-1.534,0.025,0.181,79.61,106.2,40.498669,-3.378158,599.2,4,5,235.9,0.703
80.52,1,-0.002,0.012,0.02,-0.011,0.014,0.004,-1.537,0.025,0.181,79.61,106.2,40.498669,-3.378158,599.2,4,5,235.9,0.703
80.62,1,-0.06,0.01,0.015,-0.022,0.011,0.015,-1.54,0.023,0.181,79.61,106.2,40.498669,-3.378158,599.2,4,5,235.9,0.703
80.72,1,0.006,0.003,0.027,-0.022,0.007,0.025,-1.544,0.019,0.181,79.61,106.2,40.498669,-3.378158,599.2,4,5,235.9,0.703
80.83,1,-0.001,0.02,0.024,-0.009,0.014,0.027,-1.546,0.014,0.181,79.61,106.2,40.498669,-3.378158,599.2,4,5,235.9,0.703
80.93,1,0.015,0.014,0.05,-0.002,0.015,0.027,-1.549,0.011,0.181,79.61,106.2,40.498669,-3.378158,599.2,4,5,235.9,0.703
81.04,1,0.02,0.007,-0.002,0.011,0.009,0.024,-1.55,0.009,0.181,79.61,106.2,40.498669,-3.378158,599.2,4,5,235.9,0.703
81.12,1,-0.051,0.011,-0.021,-0.004,0.01,0.002,-1.548,0.007,0.181,79.61,106.2,40.498669,-3.378158,599.2,4,5,235.9,0.703
81.22,1,-0.021,0.001,-0.006,-0.032,0.011,-0.012,-1.549,0.006,0.181,80.61,103.4,40.498528,-3.378449,598.6,4,5,235.5,1.055
81.32,1,-0.013,0.019,0.016,-0.013,0.009,0.003,-1.548,0.005,0.181,80.61,103.4,40.498528,-3.378449,598.6,4,5,235.5,1.055
81.42,1,-0.023,0.006,-0.001,-0.017,0.009,0.009,-1.551,0.004,0.181,80.61,103.4,40.498528,-3.378449,598.6,4,5,235.5,1.055
81.52,1,0.012,0.008,0.019,-0.02,0.009,0.007,-1.549,0.002,0.18,80.61,103.4,40.498528,-3.378449,598.6,4,5,235.5,1.055
81.62,1,-0.037,0.034,0.01,-0.008,0.019,0.015,-1.549,0.002,0.18,80.61,103.4,40.498528,-3.378449,598.6,4,5,235.5,1.055
81.73,1,-0.036,0.044,0.015,-0.035,0.031,0.007,-1.551,0.0,0.179,80.61,103.4,40.498528,-3.378449,598.6,4,5,235.5,1.055
81.83,1,0.006,-0.006,-0.002,-0.016,0.019,0.012,-1.553,0.001,0.178,80.61,103.4,40.498528,-3.378449,598.6,4,5,235.5,1.055
81.93,1,0.025,0.001,-0.008,0.013,0.007,0.001,-1.551,0.001,0.178,80.61,103.4,40.498528,-3.378449,598.6,4,5,235.5,1.055
82.03,1,-0.035,0.018,-0.062,-0.01,0.007,-0.03,-1.547,0.001,0.176,80.61,103.4,40.498528,-3.378449,598.6,4,5,235.5,1.055
82.13,1,-0.022,0.026,-0.064,-0.015,0.021,-0.049,-1.544,-0.0,0.175,80.61,103.4,40.498528,-3.378449,598.6,4,5,235.5,1.055
82.24,1,-0.051,0.017,-0.022,-0.034,0.023,-0.043,-1.542,-0.002,0.175,81.59,103.4,40.498386,-3.378739,598.6,4,5,235.2,0.703
82.34,1,0.024,-0.031,0.01,-0.025,-0.001,-0.02,-1.541,0.001,0.175,81.59,103.4,40.498386,-3.378739,598.6,4,5,235.2,0.703
82.43,1,0.058,0.0,-0.047,0.032,-0.014,-0.013,-1.54,-0.001,0.175,81.59,103.4,40.498386,-3.378739,598.6,4,5,235.2,0.703
82.53,1,-0.016,-0.02,-0.05,0.013,-0.007,-0.045,-1.54,-0.002,0.175,81.59,103.4,40.498386,-3.378739,598.6,4,5,235.2,0.703
82.63,1,-0.053,-0.02,-0.005,-0.012,-0.014,-0.031,-1.54,-0.004,0.175,81.59,103.4,40.498386,-3.378739,598.6,4,5,235.2,0.703
82.73,1,-0.048,0.002,-0.038,-0.046,-0.016,-0.022,-1.538,-0.007,0.175,81.59,103.4,40.498386,-3.378739,598.6,4,5,235.2,0.703
82.83,1,-0.0,-0.011,-0.021,-0.023,-0.003,-0.027,-1.535,-0.01,0.175,81.59,103.4,40.498386,-3.378739,598.6,4,5,235.2,0.703
82.93,1,0.024,0.004,-0.04,-0.0,-0.005,-0.028,-1.531,-0.009,0.175,81.59,103.4,40.498386,-3.378739,598.6,4,5,235.2,0.703
83.03,1,0.045,0.002,-0.052,0.023,0.001,-0.046,-1.529,-0.008,0.175,81.59,103.4,40.498386,-3.378739,598.6,4,5,235.2,0.703
83.13,1,-0.01,-0.034,-0.026,0.014,-0.017,-0.04,-1.527,-0.006,0.175,81.59,103.4,40.498386,-3.378739,598.6,4,5,235.2,0.703
83.23,1,-0.03,-0.023,0.011,-0.004,-0.019,-0.01,-1.526,-0.004,0.175,82.59,103.9,40.49823,-3.379019,599.0,3,5,235.5,0.352
83.33,1,-0.017,0.001,0.013,-0.017,-0.01,0.002,-1.526,-0.004,0.175,82.59,103.9,40.49823,-3.379019,599.0,3,5,235.5,0.352
83.43,1,-0.029,0.004,-0.046,-0.021,-0.006,-0.013,-1.525,-0.004,0.174,82.59,103.9,40.49823,-3.379019,599.0,3,5,235.5,0.352
83.53,1,0.006,0.004,-0.012,-0.015,-0.001,-0.022,-1.525,-0.004,0.174,82.59,103.9,40.49823,-3.379019,599.0,3,5,235.5,0.352
83.64,1,-0.015,0.003,0.0,-0.008,0.005,-0.013,-1.525,-0.005,0.173,82.59,103.9,40.49823,-3.379019,599.0,3,5,235.5,0.352
83.73,1,0.012,0.027,0.029,-0.005,0.014,0.007,-1.526,-0.007,0.172,82.59,103.9,40.49823,-3.379019,599.0,3,5,235.5,0.352
83.88,1,-0.027,0.007,-0.004,-0.015,0.011,0.009,-1.526,-0.008,0.171,82.59,103.9,40.49823,-3.379019,599.0,3,5,235.5,0.352
83.94,1,-0.02,0.03,-0.028,-0.011,0.021,-0.006,-1.528,-0.01,0.17,82.59,103.9,40.49823,-3.379019,599.0,3,5,235.5,0.352
84.03,1,-0.015,0.018,-0.0,-0.015,0.02,-0.016,-1.526,-0.01,0.169,82.59,103.9,40.49823,-3.379019,599.0,3,5,235.5,0.352
84.15,1,-0.009,0.006,-0.009,-0.004,0.014,-0.001,-1.528,-0.012,0.167,82.59,103.9,40.49823,-3.379019,599.0,3,5,235.5,0.352
84.23,1,-0.01,-0.002,-0.015,-0.018,0.006,-0.013,-1.528,-0.015,0.166,83.6,103.0,40.498077,-3.379304,598.6,4,5,235.5,0.352
84.33,1,0.007,0.034,0.005,0.003,0.019,-0.005,-1.526,-0.02,0.165,83.6,103.0,40.498077,-3.379304,598.6,4,5,235.5,0.352
84.43,1,0.013,0.012,0.02,0.002,0.016,0.003,-1.528,-0.023,0.163,83.6,103.0,40.498077,-3.379304,598.6,4,5,235.5,0.352
84.53,1,-0.046,0.013,0.025,-0.008,0.015,0.022,-1.528,-0.026,0.162,83.6,103.0,40.498077,-3.379304,598.6,4,5,235.5,0.352
84.63,1,-0.039,-0.001,0.036,-0.044,0.008,0.02,-1.53,-0.028,0.16,83.6,103.0,40.498077,-3.379304,598.6,4,5,235.5,0.352
84.74,1,-0.037,0.03,0.027,-0.033,0.013,0.034,-1.535,-0.03,0.159,83.6,103.0,40.498077,-3.379304,598.6,4,5,235.5,0.352
84.84,1,-0.004,0.013,0.047,-0.027,0.017,0.037,-1.537,-0.032,0.157,83.6,103.0,40.498077,-3.379304,598.6,4,5,235.5,0.352
84.93,1,0.004,0.005,-0.002,-0.001,0.014,0.021,-1.535,-0.033,0.155,83.6,103.0,40.498077,-3.379304,598.6,4,5,235.5,0.352
85.03,1,0.029,-0.025,0.013,0.009,-0.003,0.014,-1.536,-0.031,0.154,83.6,103.0,40.498077,-3.379304,598.6,4,5,235.5,0.352
85.14,1,-0.015,-0.025,-0.002,0.009,-0.017,0.009,-1.534,-0.029,0.154,83.6,103.0,40.498077,-3.379304,598.6,4,5,235.5,0.352
85.24,1,-0.005,-0.024,0.033,-0.019,-0.023,0.011,-1.534,-0.029,0.153,84.59,102.1,40.497932,-3.379582,598.3,3,5,235.9,0.352
85.34,1,0.01,-0.026,0.027,0.007,-0.025,0.025,-1.536,-0.028,0.153,84.59,102.1,40.497932,-3.379582,598.3,3,5,235.9,0.352
85.45,1,0.02,-0.012,0.019,0.007,-0.022,0.019,-1.537,-0.028,0.153,84.59,102.1,40.497932,-3.379582,598.3,3,5,235.9,0.352
85.54,1,-0.101,-0.023,0.016,-0.026,-0.017,0.023,-1.538,-0.027,0.152,84.59,102.1,40.497932,-3.379582,598.3,3,5,235.9,0.352
85.64,1,-0.036,-0.031,0.004,-0.049,-0.025,0.015,-1.538,-0.027,0.152,84.59,102.1,40.497932,-3.379582,598.3,3,5,235.9,0.352
85.74,1,-0.033,-0.027,0.033,-0.036,-0.027,0.024,-1.542,-0.024,0.151,84.59,102.1,40.497932,-3.379582,598.3,3,5,235.9,0.352
85.84,1,0.033,-0.012,0.019,-0.006,-0.025,0.018,-1.545,-0.022,0.151,84.59,102.1,40.497932,-3.379582,598.3,3,5,235.9,0.352
85.94,1,0.011,-0.02,0.056,0.006,-0.016,0.037,-1.548,-0.019,0.151,84.59,102.1,40.497932,-3.379582,598.3,3,5,235.9,0.352
86.04,1,0.003,-0.021,0.002,0.011,-0.02,0.028,-1.55,-0.017,0.15,84.59,102.1,40.497932,-3.379582,598.3,3,5,235.9,0.352
86.14,1,-0.056,-0.007,0.009,-0.02,-0.014,0.011,-1.55,-0.016,0.15,84.59,102.1,40.497932,-3.379582,598.3,3,5,235.9,0.352
86.24,1,0.027,-0.014,0.036,-0.006,-0.013,0.024,-1.551,-0.016,0.15,85.59,101.4,40.497791,-3.379853,598.0,3,5,236.6,1.055
86.34,1,-0.004,-0.018,-0.002,-0.009,-0.014,0.015,-1.552,-0.016,0.15,85.59,101.4,40.497791,-3.379853,598.0,3,5,236.6,1.055
86.44,1,0.005,-0.029,0.007,0.002,-0.024,0.006,-1.555,-0.013,0.15,85.59,101.4,40.497791,-3.379853,598.0,3,5,236.6,1.055
86.54,1,-0.033,-0.024,0.001,-0.017,-0.023,0.005,-1.556,-0.01,0.151,85.59,101.4,40.497791,-3.379853,598.0,3,5,236.6,1.055
86.74,1,0.01,-0.014,-0.002,-0.007,-0.025,0.008,-1.556,-0.003,0.151,85.59,101.4,40.497791,-3.379853,598.0,3,5,236.6,1.055
86.84,1,-0.041,-0.019,-0.029,-0.011,-0.018,-0.006,-1.552,-0.001,0.152,85.59,101.4,40.497791,-3.379853,598.0,3,5,236.6,1.055
86.94,1,-0.003,-0.023,-0.009,-0.016,-0.019,-0.017,-1.549,0.001,0.152,85.59,101.4,40.497791,-3.379853,598.0,3,5,236.6,1.055
87.05,1,-0.032,-0.04,-0.015,-0.018,-0.031,-0.013,-1.545,0.006,0.153,85.59,101.4,40.497791,-3.379853,598.0,3,5,236.6,1.055
87.14,1,0.031,-0.042,-0.021,-0.006,-0.038,-0.015,-1.542,0.01,0.154,85.59,101.4,40.497791,-3.379853,598.0,3,5,236.6,1.055
87.25,1,-0.009,-0.024,-0.026,0.004,-0.033,-0.021,-1.538,0.012,0.155,85.59,101.4,40.497791,-3.379853,598.0,3,5,236.6,1.055
87.34,1,-0.008,-0.031,-0.025,0.003,-0.028,-0.026,-1.535,0.016,0.156,86.59,102.2,40.49765,-3.380132,597.9,3,5,236.6,0.703
87.44,1,-0.028,-0.03,-0.017,-0.028,-0.034,-0.023,-1.534,0.019,0.158,86.59,102.2,40.49765,-3.380132,597.9,3,5,236.6,0.703
87.54,1,-0.007,-0.035,-0.019,-0.006,-0.03,-0.017,-1.531,0.021,0.159,86.59,102.2,40.49765,-3.380132,597.9,3,5,236.6,0.703
87.64,1,0.053,-0.011,0.02,0.024,-0.021,-0.003,-1.527,0.023,0.16,86.59,102.2,40.49765,-3.380132,597.9,3,5,236.6,0.703
87.74,1,0.011,-0.04,0.001,0.014,-0.028,-0.004,-1.527,0.028,0.162,86.59,102.2,40.49765,-3.380132,597.9,3,5,236.6,0.703
87.85,1,0.007,-0.027,-0.024,0.009,-0.035,-0.002,-1.527,0.029,0.164,86.59,102.2,40.49765,-3.380132,597.9,3,5,236.6,0.703
87.94,1,-0.065,-0.013,-0.003,-0.024,-0.023,-0.01,-1.526,0.028,0.165,86.59,102.2,40.49765,-3.380132,597.9,3,5,236.6,0.703
88.05,1,-0.038,-0.017,-0.012,-0.036,-0.019,-0.008,-1.524,0.029,0.166,86.59,102.2,40.49765,-3.380132,597.9,3,5,236.6,0.703
88.14,1,-0.008,-0.003,-0.011,-0.026,-0.012,-0.011,-1.524,0.03,0.167,86.59,102.2,40.49765,-3.380132,597.9,3,5,236.6,0.703
88.24,1,-0.014,-0.026,-0.005,-0.013,-0.013,-0.009,-1.524,0.03,0.168,86.59,102.2,40.49765,-3.380132,597.9,3,5,236.6,0.703
88.34,1,-0.02,-0.018,-0.02,-0.024,-0.015,-0.011,-1.523,0.027,0.169,87.61,103.3,40.497513,-3.380406,597.7,3,5,237.0,0.352
88.45,1,-0.007,0.01,-0.006,-0.01,-0.009,-0.01,-1.523,0.026,0.17,87.61,103.3,40.497513,-3.380406,597.7,3,5,237.0,0.352
88.55,1,-0.045,-0.013,-0.004,-0.028,-0.005,-0.008,-1.524,0.027,0.171,87.61,103.3,40.497513,-3.380406,597.7,3,5,237.0,0.352
88.64,1,0.007,-0.027,0.028,-0.019,-0.02,0.006,-1.526,0.028,0.172,87.61,103.3,40.497513,-3.380406,597.7,3,5,237.0,0.352
88.74,1,-0.045,-0.001,-0.001,-0.021,-0.013,0.009,-1.526,0.028,0.173,87.61,103.3,40.497513,-3.380406,597.7,3,5,237.0,0.352
88.84,1,-0.015,0.009,0.025,-0.031,-0.002,0.009,-1.525,0.026,0.174,87.61,103.3,40.497513,-3.380406,597.7,3,5,237.0,0.352
88.94,1,-0.021,-0.019,0.021,-0.015,-0.006,0.024,-1.528,0.025,0.175,87.61,103.3,40.497513,-3.380406,597.7,3,5,237.0,0.352
89.04,1,0.031,0.017,0.016,0.001,0.001,0.019,-1.528,0.023,0.176,87.61,103.3,40.497513,-3.380406,597.7,3,5,237.0,0.352
89.14,1,-0.029,0.008,-0.006,0.001,0.01,0.005,-1.527,0.022,0.176,87.61,103.3,40.497513,-3.380406,597.7,3,5,237.0,0.352
89.25,1,0.006,-0.001,0.036,-0.011,0.002,0.017,-1.53,0.022,0.177,87.61,103.3,40.497513,-3.380406,597.7,3,5,237.0,0.352
89.34,1,0.013,-0.008,0.021,-0.003,0.002,0.026,-1.532,0.022,0.177,88.59,102.1,40.497372,-3.380693,597.1,3,5,237.0,0.352
89.45,1,-0.004,0.012,0.032,-0.001,-0.001,0.021,-1.533,0.019,0.177,88.59,102.1,40.497372,-3.380693,597.1,3,5,237.0,0.352
89.55,1,-0.01,0.008,0.022,0.004,0.006,0.025,-1.535,0.019,0.177,88.59,102.1,40.497372,-3.380693,597.1,3,5,237.0,0.352
89.65,1,0.012,0.016,0.027,0.009,0.011,0.031,-1.539,0.018,0.178,88.59,102.1,40.497372,-3.380693,597.1,3,5,237.0,0.352
89.75,1,-0.017,0.014,0.002,-0.005,0.015,0.017,-1.541,0.016,0.178,88.59,102.1,40.497372,-3.380693,597.1,3,5,237.0,0.352
89.85,1,0.007,0.005,0.021,-0.001,0.01,0.012,-1.542,0.016,0.178,88.59,102.1,40.497372,-3.380693,597.1,3,5,237.0,0.352
89.95,1,-0.046,-0.004,0.001,-0.016,0.004,0.013,-1.543,0.016,0.179,88.59,102.1,40.497372,-3.380693,597.1,3,5,237.0,0.352
90.05,1,-0.023,0.012,-0.003,-0.031,0.004,0.001,-1.542,0.016,0.179,88.59,102.1,40.497372,-3.380693,597.1,3,5,237.0,0.352
90.15,1,-0.051,-0.003,0.006,-0.037,0.005,-0.0,-1.542,0.016,0.179,88.59,102.1,40.497372,-3.380693,597.1,3,5,237.0,0.352
90.25,1,-0.009,-0.004,0.02,-0.024,-0.002,0.014,-1.541,0.016,0.18,88.59,102.1,40.497372,-3.380693,597.1,3,5,237.0,0.352
90.36,1,0.039,0.013,0.035,-0.001,0.007,0.024,-1.541,0.016,0.18,89.59,101.3,40.497234,-3.38096,596.6,4,5,236.2,0.703
90.45,1,0.01,-0.003,0.0,0.021,0.001,0.016,-1.538,0.016,0.18,89.59,101.3,40.497234,-3.38096,596.6,4,5,236.2,0.703
90.55,1,-0.002,-0.015,-0.005,0.003,-0.005,0.004,-1.536,0.017,0.18,89.59,101.3,40.497234,-3.38096,596.6,4,5,236.2,0.703
90.65,1,-0.058,0.01,0.029,-0.018,-0.001,0.011,-1.539,0.017,0.18,89.59,101.3,40.497234,-3.38096,596.6,4,5,236.2,0.703
90.75,1,-0.09,-0.01,0.03,-0.067,-0.001,0.023,-1.543,0.017,0.181,89.59,101.3,40.497234,-3.38096,596.6,4,5,236.2,0.703
90.85,1,-0.01,-0.019,0.024,-0.042,-0.014,0.025,-1.546,0.017,0.181,89.59,101.3,40.497234,-3.38096,596.6,4,5,236.2,0.703
90.96,1,0.042,-0.0,0.016,-0.004,-0.005,0.022,-1.547,0.017,0.182,89.59,101.3,40.497234,-3.38096,596.6,4,5,236.2,0.703
91.05,1,-0.022,-0.021,0.003,0.002,-0.014,0.011,-1.543,0.017,0.182,89.59,101.3,40.497234,-3.38096,596.6,4,5,236.2,0.703
91.15,1,-0.026,-0.013,-0.038,-0.017,-0.016,-0.012,-1.542,0.018,0.183,89.59,101.3,40.497234,-3.38096,596.6,4,5,236.2,0.703
91.25,1,-0.006,-0.002,-0.0,-0.011,-0.009,-0.012,-1.543,0.021,0.183,89.59,101.3,40.497234,-3.38096,596.6,4,5,236.2,0.703
91.35,1,-0.034,0.01,-0.017,-0.031,-0.001,-0.012,-1.543,0.019,0.183,90.59,101.3,40.497089,-3.381232,595.9,4,5,235.9,1.055
91.46,1,-0.012,0.004,-0.001,-0.018,0.004,-0.006,-1.54,0.018,0.183,90.59,101.3,40.497089,-3.381232,595.9,4,5,235.9,1.055
91.56,1,-0.012,0.0,-0.004,-0.01,0.006,-0.002,-1.538,0.017,0.183,90.59,101.3,40.497089,-3.381232,595.9,4,5,235.9,1.055
91.66,1,-0.075,0.01,-0.013,-0.046,0.005,-0.007,-1.54,0.016,0.184,90.59,101.3,40.497089,-3.381232,595.9,4,5,235.9,1.055
91.75,1,-0.044,-0.007,-0.002,-0.052,-0.003,-0.007,-1.542,0.014,0.184,90.59,101.3,40.497089,-3.381232,595.9,4,5,235.9,1.055
91.85,1,-0.036,0.014,0.026,-0.035,0.007,0.007,-1.542,0.014,0.184,90.59,101.3,40.497089,-3.381232,595.9,4,5,235.9,1.055
91.95,1,-0.006,0.008,-0.022,-0.018,0.008,0.001,-1.539,0.014,0.184,90.59,101.3,40.497089,-3.381232,595.9,4,5,235.9,1.055
92.05,1,-0.028,-0.007,-0.031,-0.025,0.002,-0.02,-1.536,0.015,0.184,90.59,101.3,40.497089,-3.381232,595.9,4,5,235.9,1.055
92.16,1,0.012,0.02,-0.015,-0.012,0.005,-0.018,-1.537,0.014,0.183,90.59,101.3,40.497089,-3.381232,595.9,4,5,235.9,1.055
92.25,1,0.013,0.027,-0.011,0.004,0.021,-0.016,-1.538,0.012,0.183,90.59,101.3,40.497089,-3.381232,595.9,4,5,235.9,1.055
92.35,1,-0.014,0.03,0.002,-0.002,0.021,-0.009,-1.539,0.01,0.182,91.59,101.7,40.496948,-3.38151,596.1,4,5,235.5,0.703
92.46,1,-0.01,0.019,-0.02,0.003,0.025,-0.011,-1.54,0.008,0.181,91.59,101.7,40.496948,-3.38151,596.1,4,5,235.5,0.703
92.55,1,-0.032,-0.009,0.002,-0.023,0.013,-0.007,-1.539,0.007,0.181,91.59,101.7,40.496948,-3.38151,596.1,4,5,235.5,0.703
92.67,1,-0.06,0.001,-0.017,-0.039,0.001,-0.01,-1.538,0.008,0.18,91.59,101.7,40.496948,-3.38151,596.1,4,5,235.5,0.703
92.77,1,-0.004,0.011,-0.011,-0.041,0.003,-0.014,-1.538,0.006,0.179,91.59,101.7,40.496948,-3.38151,596.1,4,5,235.5,0.703
92.86,1,-0.039,0.005,-0.002,-0.015,0.006,-0.004,-1.537,0.003,0.179,91.59,101.7,40.496948,-3.38151,596.1,4,5,235.5,0.703
92.95,1,-0.034,0.026,-0.003,-0.039,0.016,-0.004,-1.539,-0.001,0.179,91.59,101.7,40.496948,-3.38151,596.1,4,5,235.5,0.703
93.05,1,0.028,0.009,0.013,-0.007,0.014,0.001,-1.54,-0.001,0.179,91.59,101.7,40.496948,-3.38151,596.1,4,5,235.5,0.703
93.16,1,-0.015,0.013,-0.01,-0.004,0.011,0.002,-1.541,-0.001,0.178,91.59,101.7,40.496948,-3.38151,596.1,4,5,235.5,0.703
93.26,1,-0.007,0.03,-0.01,-0.006,0.021,-0.006,-1.542,-0.003,0.177,91.59,101.7,40.496948,-3.38151,596.1,4,5,235.5,0.703
93.36,1,-0.002,0.032,-0.001,-0.011,0.026,-0.01,-1.541,-0.006,0.175,92.59,101.1,40.496799,-3.381787,596.8,4,5,235.9,0.352
93.46,1,-0.049,0.009,0.024,-0.012,0.021,0.011,-1.545,-0.009,0.174,92.59,101.1,40.496799,-3.381787,596.8,4,5,235.9,0.352
93.56,1,-0.041,0.016,0.013,-0.045,0.017,0.012,-1.548,-0.01,0.173,92.59,101.1,40.496799,-3.381787,596.8,4,5,235.9,0.352
93.66,1,-0.065,0.006,0.002,-0.047,0.011,0.012,-1.553,-0.011,0.172,92.59,101.1,40.496799,-3.381787,596.8,4,5,235.9,0.352
93.77,1,0.008,0.005,0.009,-0.031,0.007,0.011,-1.552,-0.013,0.171,92.59,101.1,40.496799,-3.381787,596.8,4,5,235.9,0.352
93.86,1,-0.011,0.01,-0.017,-0.007,0.009,-0.006,-1.549,-0.015,0.17,92.59,101.1,40.496799,-3.381787,596.8,4,5,235.9,0.352
93.96,1,-0.022,-0.005,0.011,-0.021,0.001,-0.008,-1.549,-0.018,0.169,92.59,101.1,40.496799,-3.381787,596.8,4,5,235.9,0.352
94.07,1,-0.002,0.008,0.005,-0.01,0.005,0.007,-1.551,-0.019,0.168,92.59,101.1,40.496799,-3.381787,596.8,4,5,235.9,0.352
94.16,1,-0.01,0.026,0.014,-0.014,0.015,0.008,-1.551,-0.022,0.167,92.59,101.1,40.496799,-3.381787,596.8,4,5,235.9,0.352
94.26,1,0.008,0.013,-0.003,0.002,0.019,0.009,-1.552,-0.022,0.165,92.59,101.1,40.496799,-3.381787,596.8,4,5,235.9,0.352
94.36,1,-0.003,-0.022,0.036,0.011,0.0,0.017,-1.552,-0.023,0.163,93.59,100.5,40.496655,-3.382058,597.4,3,5,235.5,0.352
94.47,1,0.111,0.018,0.013,0.044,0.003,0.019,-1.554,-0.026,0.162,93.59,100.5,40.496655,-3.382058,597.4,3,5,235.5,0.352
94.57,1,0.018,-0.019,-0.01,0.052,-0.004,0.006,-1.554,-0.027,0.161,93.59,100.5,40.496655,-3.382058,597.4,3,5,235.5,0.352
94.67,1,0.017,-0.026,0.018,0.018,-0.014,0.002,-1.552,-0.023,0.161,93.59,100.5,40.496655,-3.382058,597.4,3,5,235.5,0.352
94.77,1,-0.009,-0.035,0.01,0.006,-0.028,0.017,-1.553,-0.019,0.162,93.59,100.5,40.496655,-3.382058,597.4,3,5,235.5,0.352
94.87,1,-0.048,-0.065,-0.021,-0.017,-0.046,-0.004,-1.554,-0.014,0.164,93.59,100.5,40.496655,-3.382058,597.4,3,5,235.5,0.352
94.96,1,-0.07,-0.069,-0.014,-0.04,-0.06,-0.013,-1.553,-0.007,0.165,93.59,100.5,40.496655,-3.382058,597.4,3,5,235.5,0.352
95.07,1,-0.015,-0.048,-0.014,-0.048,-0.054,-0.013,-1.555,-0.005,0.166,93.59,100.5,40.496655,-3.382058,597.4,3,5,235.5,0.352
95.16,1,0.069,-0.016,0.01,0.012,-0.042,-0.003,-1.556,-0.008,0.167,93.59,100.5,40.496655,-3.382058,597.4,3,5,235.5,0.352
95.27,1,-0.022,-0.039,-0.056,0.012,-0.034,-0.022,-1.554,-0.007,0.168,93.59,100.5,40.496655,-3.382058,597.4,3,5,235.5,0.352
95.36,1,-0.007,-0.011,-0.016,-0.003,-0.023,-0.027,-1.552,-0.005,0.169,94.63,100.8,40.496517,-3.38233,597.9,3,5,236.2,0.703
95.47,1,-0.015,-0.049,-0.012,-0.013,-0.033,-0.017,-1.55,0.002,0.17,94.63,100.8,40.496517,-3.38233,597.9,3,5,236.2,0.703
95.56,1,0.015,-0.066,-0.025,-0.001,-0.052,-0.017,-1.547,0.007,0.171,94.63,100.8,40.496517,-3.38233,597.9,3,5,236.2,0.703
95.66,1,-0.04,-0.037,-0.025,-0.016,-0.044,-0.027,-1.544,0.012,0.172,94.63,100.8,40.496517,-3.38233,597.9,3,5,236.2,0.703
95.77,1,-0.005,-0.048,-0.001,-0.021,-0.047,-0.016,-1.544,0.014,0.174,94.63,100.8,40.496517,-3.38233,597.9,3,5,236.2,0.703
95.87,1,-0.066,-0.024,0.007,-0.022,-0.037,0.001,-1.542,0.019,0.176,94.63,100.8,40.496517,-3.38233,597.9,3,5,236.2,0.703
95.96,1,0.02,-0.048,0.03,-0.027,-0.041,0.011,-1.542,0.025,0.178,94.63,100.8,40.496517,-3.38233,597.9,3,5,236.2,0.703
96.06,1,0.054,-0.033,0.032,0.027,-0.04,0.028,-1.541,0.03,0.18,94.63,100.8,40.496517,-3.38233,597.9,3,5,236.2,0.703
96.17,1,-0.037,-0.028,-0.008,0.008,-0.033,0.011,-1.54,0.032,0.182,94.63,100.8,40.496517,-3.38233,597.9,3,5,236.2,0.703
96.26,1,-0.048,-0.001,-0.007,-0.029,-0.018,-0.002,-1.543,0.033,0.183,94.63,100.8,40.496517,-3.38233,597.9,3,5,236.2,0.703
96.36,1,-0.066,-0.009,0.013,-0.049,-0.014,0.004,-1.547,0.034,0.185,95.64,100.0,40.496376,-3.382601,598.2,3,5,237.0,1.406
96.46,1,-0.028,-0.02,0.0,-0.045,-0.013,0.007,-1.549,0.037,0.186,95.64,100.0,40.496376,-3.382601,598.2,3,5,237.0,1.406
96.57,1,0.054,-0.019,-0.008,-0.003,-0.017,-0.003,-1.546,0.037,0.188,95.64,100.0,40.496376,-3.382601,598.2,3,5,237.0,1.406
96.77,1,-0.05,-0.003,0.011,-0.017,0.001,-0.003,-1.547,0.034,0.191,95.64,100.0,40.496376,-3.382601,598.2,3,5,237.0,1.406
96.87,1,-0.026,-0.021,0.013,-0.026,-0.01,0.005,-1.549,0.034,0.192,95.64,100.0,40.496376,-3.382601,598.2,3,5,237.0,1.406
96.97,1,-0.075,-0.006,0.032,-0.048,-0.008,0.018,-1.55,0.034,0.194,95.64,100.0,40.496376,-3.382601,598.2,3,5,237.0,1.406
97.07,1,-0.032,-0.021,0.047,-0.06,-0.01,0.032,-1.554,0.033,0.195,95.64,100.0,40.496376,-3.382601,598.2,3,5,237.0,1.406
97.18,1,0.029,-0.015,0.038,-0.007,-0.019,0.035,-1.554,0.032,0.197,95.64,100.0,40.496376,-3.382601,598.2,3,5,237.0,1.406
97.27,1,-0.023,0.012,0.019,-0.004,-0.005,0.038,-1.556,0.033,0.198,95.64,100.0,40.496376,-3.382601,598.2,3,5,237.0,1.406
97.37,1,0.005,-0.003,0.02,-0.006,-0.001,0.021,-1.555,0.031,0.2,95.64,100.0,40.496376,-3.382601,598.2,3,5,237.0,1.406
97.47,1,-0.018,0.014,-0.004,-0.006,0.007,0.008,-1.555,0.029,0.201,96.59,99.8,40.496243,-3.38287,598.0,3,5,236.2,0.703
97.57,1,-0.025,0.0,0.012,-0.014,0.003,0.009,-1.557,0.029,0.202,96.59,99.8,40.496243,-3.38287,598.0,3,5,236.2,0.703
97.67,1,-0.036,-0.005,0.008,-0.027,0.001,0.011,-1.558,0.029,0.203,96.59,99.8,40.496243,-3.38287,598.0,3,5,236.2,0.703
97.77,1,-0.023,-0.018,0.009,-0.03,-0.008,0.006,-1.56,0.029,0.205,96.59,99.8,40.496243,-3.38287,598.0,3,5,236.2,0.703
97.87,1,-0.001,-0.028,-0.001,-0.02,-0.023,0.007,-1.56,0.029,0.206,96.59,99.8,40.496243,-3.38287,598.0,3,5,236.2,0.703
97.97,1,0.013,-0.009,-0.002,0.003,-0.013,-0.001,-1.558,0.028,0.207,96.59,99.8,40.496243,-3.38287,598.0,3,5,236.2,0.703
98.08,1,0.024,-0.002,-0.026,0.011,-0.009,-0.012,-1.555,0.028,0.209,96.59,99.8,40.496243,-3.38287,598.0,3,5,236.2,0.703
98.18,1,-0.002,-0.001,-0.003,0.005,-0.002,-0.009,-1.554,0.03,0.21,96.59,99.8,40.496243,-3.38287,598.0,3,5,236.2,0.703
98.27,1,0.021,-0.025,-0.004,0.014,-0.012,-0.007,-1.551,0.031,0.212,96.59,99.8,40.496243,-3.38287,598.0,3,5,236.2,0.703
98.38,1,-0.001,0.012,0.009,0.01,-0.006,0.002,-1.551,0.031,0.213,96.59,99.8,40.496243,-3.38287,598.0,3,5,236.2,0.703
98.47,1,-0.037,-0.006,0.009,-0.009,-0.003,0.006,-1.551,0.031,0.214,97.59,98.2,40.496101,-3.383141,599.2,3,5,235.2,1.758
98.57,1,-0.016,0.016,-0.008,-0.021,0.003,-0.0,-1.552,0.03,0.215,97.59,98.2,40.496101,-3.383141,599.2,3,5,235.2,1.758
98.67,1,0.008,0.0,0.052,-0.009,0.007,0.019,-1.556,0.03,0.216,97.59,98.2,40.496101,-3.383141,599.2,3,5,235.2,1.758
98.77,1,-0.046,0.013,0.011,-0.016,0.004,0.026,-1.556,0.031,0.217,97.59,98.2,40.496101,-3.383141,599.2,3,5,235.2,1.758
98.88,1,-0.042,0.016,0.006,-0.031,0.013,0.014,-1.557,0.031,0.218,97.59,98.2,40.496101,-3.383141,599.2,3,5,235.2,1.758
98.98,1,-0.026,-0.008,0.009,-0.037,0.006,0.009,-1.558,0.032,0.219,97.59,98.2,40.496101,-3.383141,599.2,3,5,235.2,1.758
99.08,1,-0.014,-0.017,0.025,-0.025,-0.01,0.018,-1.561,0.033,0.221,97.59,98.2,40.496101,-3.383141,599.2,3,5,235.2,1.758
99.17,1,-0.007,-0.019,0.011,-0.016,-0.014,0.013,-1.56,0.035,0.222,97.59,98.2,40.496101,-3.383141,599.2,3,5,235.2,1.758
99.27,1,-0.005,-0.0,0.006,-0.006,-0.007,0.01,-1.56,0.035,0.223,97.59,98.2,40.496101,-3.383141,599.2,3,5,235.2,1.758
99.37,1,0.003,-0.008,-0.022,-0.004,-0.008,-0.001,-1.559,0.035,0.224,97.59,98.2,40.496101,-3.383141,599.2,3,5,235.2,1.758
99.47,1,-0.058,0.027,0.007,-0.018,0.007,-0.003,-1.558,0.034,0.224,98.67,99.2,40.49596,-3.383398,595.6,4,5,234.8,1.406
99.58,1,0.003,0.016,0.017,-0.03,0.018,0.009,-1.558,0.033,0.225,98.67,99.2,40.49596,-3.383398,595.6,4,5,234.8,1.406
99.67,1,0.005,0.031,-0.009,0.002,0.019,0.002,-1.556,0.031,0.225,98.67,99.2,40.49596,-3.383398,595.6,4,5,234.8,1.406
99.77,1,0.007,0.011,-0.012,-0.008,0.024,-0.007,-1.557,0.027,0.224,98.67,99.2,40.49596,-3.383398,595.6,4,5,234.8,1.406
99.87,1,0.016,0.034,0.026,0.019,0.023,0.007,-1.558,0.026,0.224,98.67,99.2,40.49596,-3.383398,595.6,4,5,234.8,1.406
99.98,1,-0.06,0.035,-0.027,-0.023,0.029,-0.004,-1.558,0.022,0.224,98.67,99.2,40.49596,-3.383398,595.6,4,5,234.8,1.406
100.07,1,-0.019,0.004,-0.029,-0.026,0.019,-0.023,-1.555,0.02,0.224,98.67,99.2,40.49596,-3.383398,595.6,4,5,234.8,1.406
100.17,1,-0.019,0.027,-0.011,-0.021,0.023,-0.017,-1.554,0.015,0.223,98.67,99.2,40.49596,-3.383398,595.6,4,5,234.8,1.406
100.28,1,0.0,0.023,-0.011,-0.015,0.018,-0.011,-1.556,0.011,0.222,98.67,99.2,40.49596,-3.383398,595.6,4,5,234.8,1.406
100.37,1,0.008,0.029,0.01,0.01,0.025,-0.006,-1.555,0.009,0.221,98.67,99.2,40.49596,-3.383398,595.6,4,5,234.8,1.406
100.48,1,0.022,0.021,-0.023,0.007,0.024,-0.005,-1.554,0.008,0.22,99.61,100.1,40.495811,-3.383669,595.2,4,5,234.1,1.055
100.57,1,-0.05,0.018,-0.005,-0.012,0.022,-0.011,-1.55,0.005,0.22,99.61,100.1,40.495811,-3.383669,595.2,4,5,234.1,1.055
100.68,1,0.021,0.02,-0.005,-0.013,0.02,-0.011,-1.549,0.004,0.219,99.61,100.1,40.495811,-3.383669,595.2,4,5,234.1,1.055
100.78,1,-0.021,0.023,-0.021,0.003,0.025,-0.014,-1.548,0.004,0.218,99.61,100.1,40.495811,-3.383669,595.2,4,5,234.1,1.055
100.88,1,-0.057,0.02,0.0,-0.037,0.02,-0.006,-1.548,0.003,0.217,99.61,100.1,40.495811,-3.383669,595.2,4,5,234.1,1.055
100.98,1,0.004,0.013,0.017,-0.023,0.017,0.001,-1.548,0.0,0.216,99.61,100.1,40.495811,-3.383669,595.2,4,5,234.1,1.055
101.08,1,-0.004,0.0,-0.001,-0.007,0.013,0.006,-1.548,-0.003,0.215,99.61,100.1,40.495811,-3.383669,595.2,4,5,234.1,1.055
101.18,1,-0.005,0.009,-0.027,-0.009,0.001,-0.011,-1.547,-0.003,0.214,99.61,100.1,40.495811,-3.383669,595.2,4,5,234.1,1.055
101.29,1,-0.021,0.026,-0.012,-0.01,0.017,-0.014,-1.545,-0.007,0.213,99.61,100.1,40.495811,-3.383669,595.2,4,5,234.1,1.055
101.38,1,0.05,0.029,0.008,0.006,0.023,-0.007,-1.547,-0.011,0.212,99.61,100.1,40.495811,-3.383669,595.2,4,5,234.1,1.055
101.49,1,-0.027,0.03,-0.007,0.012,0.031,-0.001,-1.547,-0.014,0.211,100.62,100.5,40.495663,-3.383935,595.7,3,5,233.4,1.406
101.58,1,-0.007,-0.014,-0.013,-0.02,0.011,-0.008,-1.545,-0.014,0.21,100.62,100.5,40.495663,-3.383935,595.7,3,5,233.4,1.406
101.7,1,-0.03,0.013,-0.008,-0.001,0.008,-0.007,-1.544,-0.014,0.209,100.62,100.5,40.495663,-3.383935,595.7,3,5,233.4,1.406
101.78,1,-0.017,0.023,0.004,-0.025,0.015,-0.008,-1.544,-0.015,0.209,100.62,100.5,40.495663,-3.383935,595.7,3,5,233.4,1.406
101.88,1,0.025,-0.011,-0.0,-0.002,0.005,0.0,-1.543,-0.013,0.208,100.62,100.5,40.495663,-3.383935,595.7,3,5,233.4,1.406
101.98,1,0.008,0.002,-0.008,0.003,-0.003,-0.005,-1.541,-0.013,0.207,100.62,100.5,40.495663,-3.383935,595.7,3,5,233.4,1.406
102.09,1,-0.002,-0.016,0.027,0.006,-0.004,0.007,-1.541,-0.012,0.207,100.62,100.5,40.495663,-3.383935,595.7,3,5,233.4,1.406
102.19,1,-0.028,-0.027,0.02,-0.011,-0.016,0.019,-1.54,-0.011,0.207,100.62,100.5,40.495663,-3.383935,595.7,3,5,233.4,1.406
102.28,1,0.022,-0.016,0.008,-0.001,-0.018,0.017,-1.543,-0.01,0.207,100.62,100.5,40.495663,-3.383935,595.7,3,5,233.4,1.406
102.38,1,-0.016,-0.028,-0.016,-0.004,-0.019,-0.002,-1.545,-0.007,0.206,100.62,100.5,40.495663,-3.383935,595.7,3,5,233.4,1.406
102.48,1,-0.047,-0.031,0.013,-0.016,-0.03,-0.002,-1.547,-0.004,0.207,101.6,100.4,40.495514,-3.384205,596.2,4,5,233.4,0.703
102.58,1,0.007,-0.035,0.036,-0.028,-0.03,0.017,-1.55,-0.004,0.207,101.6,100.4,40.495514,-3.384205,596.2,4,5,233.4,0.703
102.69,1,-0.025,-0.013,0.005,-0.007,-0.024,0.021,-1.552,-0.003,0.207,101.6,100.4,40.495514,-3.384205,596.2,4,5,233.4,0.703
102.78,1,-0.061,-0.018,0.032,-0.047,-0.019,0.018,-1.553,-0.001,0.208,101.6,100.4,40.495514,-3.384205,596.2,4,5,233.4,0.703
102.88,1,0.064,-0.043,0.018,0.001,-0.03,0.023,-1.552,0.002,0.209,101.6,100.4,40.495514,-3.384205,596.2,4,5,233.4,0.703
102.99,1,0.011,-0.027,0.04,0.017,-0.03,0.032,-1.552,0.005,0.209,101.6,100.4,40.495514,-3.384205,596.2,4,5,233.4,0.703
103.08,1,-0.034,-0.024,0.023,0.002,-0.026,0.019,-1.552,0.007,0.209,101.6,100.4,40.495514,-3.384205,596.2,4,5,233.4,0.703
103.18,1,0.002,-0.014,0.02,0.001,-0.022,0.03,-1.553,0.011,0.209,101.6,100.4,40.495514,-3.384205,596.2,4,5,233.4,0.703
103.28,1,-0.029,-0.005,0.037,-0.012,-0.016,0.031,-1.554,0.015,0.21,101.6,100.4,40.495514,-3.384205,596.2,4,5,233.4,0.703
103.39,1,-0.023,-0.022,0.027,-0.028,-0.014,0.03,-1.558,0.016,0.21,101.6,100.4,40.495514,-3.384205,596.2,4,5,233.4,0.703
103.48,1,-0.015,-0.029,-0.009,-0.021,-0.02,0.013,-1.562,0.018,0.211,102.64,100.7,40.495361,-3.38447,596.4,4,5,233.8,0.352
103.58,1,-0.028,-0.04,0.021,-0.022,-0.031,0.013,-1.566,0.022,0.212,102.64,100.7,40.495361,-3.38447,596.4,4,5,233.8,0.352
103.69,1,0.01,-0.028,-0.027,-0.007,-0.032,-0.003,-1.568,0.024,0.214,102.64,100.7,40.495361,-3.38447,596.4,4,5,233.8,0.352
103.78,1,0.009,-0.054,0.035,-0.003,-0.038,0.008,-1.568,0.027,0.215,102.64,100.7,40.495361,-3.38447,596.4,4,5,233.8,0.352
103.89,1,-0.016,-0.035,-0.027,0.002,-0.042,0.001,-1.569,0.029,0.216,102.64,100.7,40.495361,-3.38447,596.4,4,5,233.8,0.352
103.98,1,-0.042,-0.025,-0.025,-0.03,-0.033,-0.017,-1.568,0.028,0.217,102.64,100.7,40.495361,-3.38447,596.4,4,5,233.8,0.352
104.08,1,0.039,-0.001,-0.002,0.004,-0.019,-0.011,-1.57,0.026,0.218,102.64,100.7,40.495361,-3.38447,596.4,4,5,233.8,0.352
104.18,1,-0.046,-0.034,-0.009,-0.014,-0.014,-0.014,-1.57,0.027,0.219,102.64,100.7,40.495361,-3.38447,596.4,4,5,233.8,0.352
104.28,1,0.042,-0.002,-0.023,-0.013,-0.026,-0.013,-1.569,0.024,0.219,102.64,100.7,40.495361,-3.38447,596.4,4,5,233.8,0.352
104.4,1,0.067,-0.019,-0.01,0.048,-0.012,-0.009,-1.565,0.022,0.22,102.64,100.7,40.495361,-3.38447,596.4,4,5,233.8,0.352
104.49,1,0.033,-0.014,-0.037,0.047,-0.018,-0.026,-1.557,0.023,0.221,103.62,100.9,40.495209,-3.384738,596.7,4,5,233.8,0.352
104.6,1,-0.031,-0.026,-0.022,0.016,-0.019,-0.027,-1.553,0.026,0.222,103.62,100.9,40.495209,-3.384738,596.7,4,5,233.8,0.352
104.69,1,-0.081,-0.06,-0.023,-0.029,-0.032,-0.023,-1.55,0.029,0.224,103.62,100.9,40.495209,-3.384738,596.7,4,5,233.8,0.352
104.79,1,-0.061,-0.036,-0.007,-0.063,-0.045,-0.017,-1.548,0.032,0.226,103.62,100.9,40.495209,-3.384738,596.7,4,5,233.8,0.352
104.89,1,0.036,-0.0,0.003,-0.019,-0.025,-0.005,-1.547,0.034,0.227,103.62,100.9,40.495209,-3.384738,596.7,4,5,233.8,0.352
104.99,1,-0.021,-0.03,-0.015,-0.013,-0.014,-0.011,-1.545,0.035,0.228,103.62,100.9,40.495209,-3.384738,596.7,4,5,233.8,0.352
105.1,1,0.025,-0.03,0.023,0.002,-0.03,0.004,-1.545,0.038,0.229,103.62,100.9,40.495209,-3.384738,596.7,4,5,233.8,0.352
105.19,1,-0.009,-0.02,-0.005,0.005,-0.022,0.003,-1.546,0.039,0.23,103.62,100.9,40.495209,-3.384738,596.7,4,5,233.8,0.352
105.3,1,-0.022,-0.008,-0.004,-0.007,-0.021,0.001,-1.544,0.039,0.23,103.62,100.9,40.495209,-3.384738,596.7,4,5,233.8,0.352
105.4,1,-0.047,0.011,0.017,-0.027,-0.003,0.006,-1.542,0.037,0.231,103.62,100.9,40.495209,-3.384738,596.7,4,5,233.8,0.352
105.49,1,0.005,0.002,0.038,-0.02,-0.001,0.021,-1.543,0.037,0.232,104.59,100.7,40.495071,-3.385002,597.0,4,5,233.4,0.352
105.59,1,-0.042,0.011,0.007,-0.023,0.008,0.02,-1.543,0.037,0.232,104.59,100.7,40.495071,-3.385002,597.0,4,5,233.4,0.352
105.69,1,-0.003,-0.013,0.013,-0.016,-0.001,0.011,-1.546,0.04,0.233,104.59,100.7,40.495071,-3.385002,597.0,4,5,233.4,0.352
105.79,1,-0.015,0.0,0.014,-0.013,-0.004,0.018,-1.55,0.04,0.234,104.59,100.7,40.495071,-3.385002,597.0,4,5,233.4,0.352
105.89,1,-0.014,0.024,0.002,-0.015,0.009,0.008,-1.551,0.039,0.234,104.59,100.7,40.495071,-3.385002,597.0,4,5,233.4,0.352
106.0,1,-0.016,0.009,-0.004,-0.01,0.01,0.003,-1.552,0.037,0.234,104.59,100.7,40.495071,-3.385002,597.0,4,5,233.4,0.352
106.09,1,0.016,0.009,0.022,-0.013,0.014,0.007,-1.552,0.034,0.234,104.59,100.7,40.495071,-3.385002,597.0,4,5,233.4,0.352
106.19,1,-0.0,0.017,-0.01,0.011,0.01,0.006,-1.552,0.032,0.233,104.59,100.7,40.495071,-3.385002,597.0,4,5,233.4,0.352
106.29,1,-0.008,0.014,-0.001,-0.011,0.014,-0.004,-1.553,0.029,0.233,104.59,100.7,40.495071,-3.385002,597.0,4,5,233.4,0.352
106.4,1,0.006,0.003,0.021,0.002,0.012,0.007,-1.554,0.026,0.233,104.59,100.7,40.495071,-3.385002,597.0,4,5,233.4,0.352
106.5,1,-0.027,-0.014,0.007,-0.012,-0.003,0.01,-1.554,0.028,0.233,105.6,100.7,40.494926,-3.38527,597.5,4,5,233.1,0.703
106.6,1,-0.025,0.002,-0.0,-0.017,-0.002,0.008,-1.555,0.028,0.233,105.6,100.7,40.494926,-3.38527,597.5,4,5,233.1,0.703
106.89,1,-0.005,-0.014,-0.006,0.006,-0.002,0.001,-1.553,0.026,0.232,105.6,100.7,40.494926,-3.38527,597.5,4,5,233.1,0.703
106.99,1,0.047,0.004,-0.002,0.007,0.003,-0.007,-1.552,0.025,0.232,105.6,100.7,40.494926,-3.38527,597.5,4,5,233.1,0.703
107.09,1,-0.022,0.02,-0.029,0.009,0.007,-0.013,-1.55,0.022,0.231,105.6,100.7,40.494926,-3.38527,597.5,4,5,233.1,0.703
107.19,1,0.012,0.012,-0.02,0.005,0.013,-0.021,-1.548,0.02,0.231,105.6,100.7,40.494926,-3.38527,597.5,4,5,233.1,0.703
107.29,1,-0.031,0.013,-0.035,-0.009,0.012,-0.023,-1.548,0.02,0.23,105.6,100.7,40.494926,-3.38527,597.5,4,5,233.1,0.703
107.39,1,0.019,0.007,-0.021,-0.003,0.009,-0.029,-1.548,0.021,0.23,105.6,100.7,40.494926,-3.38527,597.5,4,5,233.1,0.703
107.5,1,-0.032,-0.004,-0.008,-0.009,0.002,-0.018,-1.545,0.019,0.229,105.6,100.7,40.494926,-3.38527,597.5,4,5,233.1,0.703
107.59,1,0.016,0.016,-0.009,-0.006,0.008,-0.012,-1.544,0.018,0.228,105.6,100.7,40.494926,-3.38527,597.5,4,5,233.1,0.703
107.7,1,-0.043,-0.005,-0.032,-0.019,0.007,-0.019,-1.542,0.018,0.228,106.61,100.0,40.494774,-3.385523,597.3,4,5,232.0,1.406
107.8,1,0.075,0.005,-0.026,0.018,0.002,-0.025,-1.538,0.018,0.227,106.61,100.0,40.494774,-3.385523,597.3,4,5,232.0,1.406
107.89,1,-0.048,0.005,-0.031,0.009,0.003,-0.027,-1.537,0.017,0.226,106.61,100.0,40.494774,-3.385523,597.3,4,5,232.0,1.406
107.99,1,-0.01,0.004,-0.026,-0.017,0.005,-0.027,-1.533,0.014,0.226,106.61,100.0,40.494774,-3.385523,597.3,4,5,232.0,1.406
108.09,1,-0.027,0.03,-0.035,-0.019,0.011,-0.031,-1.527,0.012,0.225,106.61,100.0,40.494774,-3.385523,597.3,4,5,232.0,1.406
108.2,1,0.029,-0.002,-0.012,-0.005,0.013,-0.023,-1.525,0.01,0.224,106.61,100.0,40.494774,-3.385523,597.3,4,5,232.0,1.406
108.3,1,-0.053,-0.027,-0.01,-0.019,-0.01,-0.012,-1.527,0.008,0.224,106.61,100.0,40.494774,-3.385523,597.3,4,5,232.0,1.406
108.4,1,0.031,-0.02,0.009,-0.003,-0.016,-0.008,-1.523,0.009,0.223,106.61,100.0,40.494774,-3.385523,597.3,4,5,232.0,1.406
108.5,1,-0.043,0.006,-0.03,-0.003,-0.009,-0.016,-1.517,0.007,0.223,106.61,100.0,40.494774,-3.385523,597.3,4,5,232.0,1.406
108.6,1,0.035,-0.021,0.03,-0.0,-0.006,0.001,-1.518,0.006,0.222,106.61,100.0,40.494774,-3.385523,597.3,4,5,232.0,1.406
108.7,1,-0.034,-0.002,-0.034,-0.003,-0.012,-0.006,-1.52,0.005,0.221,107.6,101.1,40.494617,-3.385784,597.4,4,5,231.7,1.406
108.8,1,0.009,0.002,0.013,-0.019,-0.003,-0.008,-1.518,0.004,0.22,107.6,101.1,40.494617,-3.385784,597.4,4,5,231.7,1.406
108.9,1,0.038,0.011,-0.001,0.018,0.003,0.002,-1.518,0.001,0.22,107.6,101.1,40.494617,-3.385784,597.4,4,5,231.7,1.406
109.0,1,-0.034,0.011,-0.04,-0.001,0.006,-0.014,-1.516,0.001,0.219,107.6,101.1,40.494617,-3.385784,597.4,4,5,231.7,1.406
109.1,1,0.031,0.012,0.002,0.005,0.014,-0.015,-1.515,-0.002,0.218,107.6,101.1,40.494617,-3.385784,597.4,4,5,231.7,1.406
109.2,1,-0.029,0.002,-0.031,0.001,0.007,-0.016,-1.512,-0.002,0.217,107.6,101.1,40.494617,-3.385784,597.4,4,5,231.7,1.406
109.3,1,-0.009,-0.005,0.003,-0.018,0.001,-0.012,-1.513,-0.001,0.216,107.6,101.1,40.494617,-3.385784,597.4,4,5,231.7,1.406
109.4,1,-0.021,-0.005,0.005,-0.002,-0.001,-0.004,-1.513,-0.001,0.215,107.6,101.1,40.494617,-3.385784,597.4,4,5,231.7,1.406
109.5,1,-0.06,-0.011,0.006,-0.038,-0.006,0.005,-1.513,-0.002,0.215,107.6,101.1,40.494617,-3.385784,597.4,4,5,231.7,1.406
109.6,1,0.004,0.012,-0.01,-0.022,-0.002,-0.001,-1.513,-0.002,0.214,107.6,101.1,40.494617,-3.385784,597.4,4,5,231.7,1.406
