Timestamp_Accel,SystemActivated,accelerometerXAxis,accelerometerYAxis,accelerometerZAxis,AccelX_KF,AccelY_KF,AccelZ_KF,gyroscopeXAxis,gyroscopeYAxis,gyroscopeZAxis,Timestamp_GPS,Speed,latitude,longitude,Altitude,VerticalAccuracy,HorizontalAccuracy,Course,Difcourse
13.06,0,0.06,0.01,-0.012,0.019,0.016,-0.012,-1.596,-0.039,0.003,13.06,0.0,40.58493,-3.559458,598.6,16,466,-1.0,-1.0
13.15,0,0.046,0.008,-0.024,0.044,0.011,-0.017,-1.597,-0.04,-0.002,13.06,0.0,40.58493,-3.559458,598.6,16,466,-1.0,-1.0
13.25,0,-0.066,-0.002,-0.047,-0.013,0.01,-0.037,-1.593,-0.042,-0.005,13.06,0.0,40.58493,-3.559458,598.6,16,466,-1.0,-1.0
13.36,0,0.003,-0.024,-0.02,-0.015,-0.011,-0.031,-1.594,-0.046,-0.009,13.06,0.0,40.58493,-3.559458,598.6,16,466,-1.0,-1.0
13.45,0,0.023,-0.045,0.01,0.008,-0.025,-0.008,-1.599,-0.045,-0.011,13.06,0.0,40.58493,-3.559458,598.6,16,466,-1.0,-1.0
13.55,1,0.002,-0.035,-0.017,0.01,-0.045,-0.007,-1.602,-0.036,-0.012,13.06,0.0,40.58493,-3.559458,598.6,16,466,-1.0,-1.0
13.66,1,0.012,-0.068,0.037,0.006,-0.043,0.01,-1.602,-0.031,-0.012,13.06,0.0,40.58493,-3.559458,598.6,16,466,-1.0,-1.0
13.75,1,-0.007,-0.106,-0.004,0.0,-0.084,0.009,-1.602,-0.029,-0.012,13.06,0.0,40.58493,-3.559458,598.6,16,466,-1.0,-1.0
13.86,1,-0.038,-0.086,0.022,-0.015,-0.082,0.005,-1.603,-0.029,-0.012,13.06,0.0,40.58493,-3.559458,598.6,16,466,-1.0,-1.0
13.95,1,-0.042,-0.101,0.036,-0.029,-0.092,0.02,-1.604,-0.031,-0.012,13.06,0.0,40.58493,-3.559458,598.6,16,466,-1.0,-1.0
14.05,1,-0.055,-0.105,0.014,-0.044,-0.096,0.032,-1.605,-0.033,-0.012,14.06,67.7,40.584435,-3.554359,608.0,8,5,96.7,177.891
14.15,1,0.03,-0.063,0.072,-0.001,-0.089,0.041,-1.605,-0.035,-0.012,14.06,67.7,40.584435,-3.554359,608.0,8,5,96.7,177.891
14.26,1,0.035,-0.08,0.046,-0.001,-0.079,0.053,-1.603,-0.033,-0.012,14.06,67.7,40.584435,-3.554359,608.0,8,5,96.7,177.891
14.36,1,-0.025,-0.095,0.077,0.001,-0.086,0.057,-1.602,-0.028,-0.011,14.06,67.7,40.584435,-3.554359,608.0,8,5,96.7,177.891
14.46,1,0.041,-0.105,0.033,0.019,-0.089,0.047,-1.604,-0.026,-0.011,14.06,67.7,40.584435,-3.554359,608.0,8,5,96.7,177.891
14.56,1,-0.061,-0.1,0.055,-0.027,-0.101,0.048,-1.609,-0.019,-0.011,14.06,67.7,40.584435,-3.554359,608.0,8,5,96.7,177.891
14.66,1,-0.132,-0.04,0.05,-0.065,-0.08,0.049,-1.613,-0.014,-0.011,14.06,67.7,40.584435,-3.554359,608.0,8,5,96.7,177.891
14.76,1,-0.02,-0.073,0.031,-0.058,-0.056,0.042,-1.613,-0.013,-0.011,14.06,67.7,40.584435,-3.554359,608.0,8,5,96.7,177.891
14.86,1,0.099,-0.016,0.047,0.01,-0.047,0.051,-1.611,-0.001,-0.011,14.06,67.7,40.584435,-3.554359,608.0,8,5,96.7,177.891
14.95,1,-0.015,-0.135,0.004,0.018,-0.085,0.026,-1.61,-0.003,-0.01,14.06,67.7,40.584435,-3.554359,608.0,8,5,96.7,177.891
15.07,1,0.0,-0.045,0.054,0.003,-0.073,0.029,-1.611,-0.006,-0.011,15.04,70.3,40.584419,-3.553917,610.5,3,5,96.7,0.0
15.15,1,0.026,0.002,0.057,0.02,-0.044,0.047,-1.614,-0.006,-0.013,15.04,70.3,40.584419,-3.553917,610.5,3,5,96.7,0.0
15.25,1,-0.031,0.008,0.043,0.002,-0.008,0.049,-1.619,-0.005,-0.013,15.04,70.3,40.584419,-3.553917,610.5,3,5,96.7,0.0
15.35,1,-0.031,-0.044,0.018,-0.025,-0.02,0.036,-1.622,-0.001,-0.014,15.04,70.3,40.584419,-3.553917,610.5,3,5,96.7,0.0
15.46,1,0.026,-0.046,0.05,0.002,-0.034,0.04,-1.63,0.003,-0.015,15.04,70.3,40.584419,-3.553917,610.5,3,5,96.7,0.0
15.55,1,-0.039,0.002,0.022,-0.018,-0.017,0.032,-1.633,0.002,-0.016,15.04,70.3,40.584419,-3.553917,610.5,3,5,96.7,0.0
15.67,1,-0.003,-0.0,0.044,-0.017,-0.003,0.035,-1.635,0.003,-0.017,15.04,70.3,40.584419,-3.553917,610.5,3,5,96.7,0.0
15.76,1,0.006,-0.064,0.002,-0.002,-0.035,0.021,-1.637,0.003,-0.018,15.04,70.3,40.584419,-3.553917,610.5,3,5,96.7,0.0
15.86,1,-0.046,-0.053,0.08,-0.022,-0.045,0.037,-1.64,-0.001,-0.019,15.04,70.3,40.584419,-3.553917,610.5,3,5,96.7,0.0
15.95,1,0.025,0.007,0.013,-0.012,-0.027,0.039,-1.64,-0.005,-0.021,15.04,70.3,40.584419,-3.553917,610.5,3,5,96.7,0.0
16.05,1,0.003,0.01,0.057,0.01,-0.0,0.048,-1.639,-0.007,-0.022,16.04,73.0,40.584393,-3.553681,610.0,3,5,97.0,0.352
16.15,1,0.048,-0.019,0.038,0.021,-0.009,0.037,-1.639,-0.008,-0.023,16.04,73.0,40.584393,-3.553681,610.0,3,5,97.0,0.352
16.27,1,-0.044,-0.007,0.017,0.008,-0.008,0.034,-1.639,-0.007,-0.024,16.04,73.0,40.584393,-3.553681,610.0,3,5,97.0,0.352
16.35,1,-0.014,-0.026,0.015,-0.015,-0.019,0.022,-1.637,-0.008,-0.024,16.04,73.0,40.584393,-3.553681,610.0,3,5,97.0,0.352
16.45,1,0.001,-0.021,0.009,-0.02,-0.026,0.015,-1.638,-0.0,-0.025,16.04,73.0,40.584393,-3.553681,610.0,3,5,97.0,0.352
16.55,1,0.001,-0.009,0.022,0.006,-0.014,0.022,-1.641,0.005,-0.026,16.04,73.0,40.584393,-3.553681,610.0,3,5,97.0,0.352
16.66,1,-0.017,0.001,-0.008,-0.013,-0.008,0.007,-1.642,0.008,-0.026,16.04,73.0,40.584393,-3.553681,610.0,3,5,97.0,0.352
16.76,1,-0.014,-0.025,0.013,-0.008,-0.013,0.009,-1.648,0.011,-0.026,16.04,73.0,40.584393,-3.553681,610.0,3,5,97.0,0.352
16.86,1,-0.043,-0.009,-0.064,-0.025,-0.014,-0.023,-1.644,0.013,-0.026,16.04,73.0,40.584393,-3.553681,610.0,3,5,97.0,0.352
16.96,1,-0.007,-0.005,-0.085,-0.025,-0.01,-0.056,-1.633,0.014,-0.027,16.04,73.0,40.584393,-3.553681,610.0,3,5,97.0,0.352
17.06,1,-0.006,0.019,-0.135,-0.016,0.006,-0.101,-1.628,0.017,-0.028,17.07,73.0,40.584393,-3.553681,610.0,3,5,97.0,0.352
17.16,1,-0.067,-0.005,-0.099,-0.031,0.012,-0.103,-1.624,0.02,-0.028,17.07,73.0,40.584393,-3.553681,610.0,3,5,97.0,0.352
17.26,1,-0.05,0.024,-0.095,-0.048,0.007,-0.099,-1.617,0.022,-0.029,17.07,73.0,40.584393,-3.553681,610.0,3,5,97.0,0.352
17.37,1,0.014,0.006,-0.062,-0.023,0.008,-0.082,-1.617,0.02,-0.029,17.07,73.0,40.584393,-3.553681,610.0,3,5,97.0,0.352
17.46,1,0.044,-0.036,-0.073,0.007,-0.01,-0.08,-1.617,0.021,-0.03,17.07,73.0,40.584393,-3.553681,610.0,3,5,97.0,0.352
17.56,1,-0.016,0.007,-0.096,0.011,-0.009,-0.083,-1.617,0.02,-0.03,17.07,73.0,40.584393,-3.553681,610.0,3,5,97.0,0.352
17.66,1,0.005,-0.017,-0.076,0.003,-0.01,-0.086,-1.616,0.018,-0.031,17.07,73.0,40.584393,-3.553681,610.0,3,5,97.0,0.352
17.76,1,0.035,0.002,-0.059,0.025,0.0,-0.073,-1.611,0.014,-0.032,17.07,73.0,40.584393,-3.553681,610.0,3,5,97.0,0.352
17.86,1,0.02,0.015,-0.077,0.022,-0.005,-0.066,-1.603,0.015,-0.033,17.07,73.0,40.584393,-3.553681,610.0,3,5,97.0,0.352
17.96,1,-0.047,-0.006,-0.093,-0.006,0.009,-0.08,-1.603,0.015,-0.034,17.07,73.0,40.584393,-3.553681,610.0,3,5,97.0,0.352
18.06,1,-0.076,0.012,-0.045,-0.045,0.006,-0.075,-1.603,0.017,-0.035,18.07,76.6,40.584343,-3.553189,610.2,3,5,98.1,0.703
18.17,1,-0.112,-0.002,-0.023,-0.083,0.009,-0.042,-1.602,0.02,-0.036,18.07,76.6,40.584343,-3.553189,610.2,3,5,98.1,0.703
18.27,1,0.051,-0.015,0.005,-0.037,-0.013,-0.016,-1.605,0.018,-0.037,18.07,76.6,40.584343,-3.553189,610.2,3,5,98.1,0.703
18.36,1,0.052,0.048,-0.008,0.02,0.006,-0.005,-1.604,0.019,-0.038,18.07,76.6,40.584343,-3.553189,610.2,3,5,98.1,0.703
18.46,1,-0.024,0.006,-0.028,0.01,0.02,-0.016,-1.599,0.018,-0.039,18.07,76.6,40.584343,-3.553189,610.2,3,5,98.1,0.703
18.56,1,0.023,-0.0,-0.003,0.007,0.013,-0.013,-1.599,0.017,-0.04,18.07,76.6,40.584343,-3.553189,610.2,3,5,98.1,0.703
18.66,1,0.004,0.017,0.005,0.012,0.008,-0.006,-1.597,0.015,-0.042,18.07,76.6,40.584343,-3.553189,610.2,3,5,98.1,0.703
18.77,1,0.016,0.016,-0.001,0.008,0.016,0.003,-1.592,0.014,-0.043,18.07,76.6,40.584343,-3.553189,610.2,3,5,98.1,0.703
18.86,1,0.027,0.022,0.02,0.02,0.015,0.008,-1.591,0.012,-0.044,18.07,76.6,40.584343,-3.553189,610.2,3,5,98.1,0.703
18.97,1,0.007,0.033,0.015,0.017,0.028,0.011,-1.59,0.008,-0.046,18.07,76.6,40.584343,-3.553189,610.2,3,5,98.1,0.703
19.06,1,-0.042,0.025,0.007,-0.012,0.028,0.006,-1.591,0.002,-0.049,19.12,75.9,40.584316,-3.552943,610.5,3,5,98.8,1.406
19.17,1,0.01,0.044,0.006,0.001,0.026,0.01,-1.598,-0.005,-0.052,19.12,75.9,40.584316,-3.552943,610.5,3,5,98.8,1.406
19.27,1,-0.02,0.087,0.01,-0.013,0.055,0.011,-1.603,-0.011,-0.055,19.12,75.9,40.584316,-3.552943,610.5,3,5,98.8,1.406
19.37,1,-0.043,0.059,0.026,-0.03,0.073,0.015,-1.605,-0.01,-0.058,19.12,75.9,40.584316,-3.552943,610.5,3,5,98.8,1.406
19.47,1,-0.053,0.033,0.016,-0.03,0.049,0.017,-1.608,-0.008,-0.061,19.12,75.9,40.584316,-3.552943,610.5,3,5,98.8,1.406
19.57,1,-0.057,0.038,0.01,-0.057,0.044,0.013,-1.608,-0.008,-0.063,19.12,75.9,40.584316,-3.552943,610.5,3,5,98.8,1.406
19.67,1,0.004,0.058,0.0,-0.038,0.048,0.006,-1.607,-0.009,-0.066,19.12,75.9,40.584316,-3.552943,610.5,3,5,98.8,1.406
19.76,1,0.082,0.044,0.032,0.03,0.048,0.022,-1.608,-0.009,-0.069,19.12,75.9,40.584316,-3.552943,610.5,3,5,98.8,1.406
19.87,1,-0.005,0.068,0.016,0.031,0.051,0.019,-1.607,-0.007,-0.072,19.12,75.9,40.584316,-3.552943,610.5,3,5,98.8,1.406
19.97,1,0.024,0.028,0.03,0.011,0.048,0.022,-1.606,-0.008,-0.073,19.12,75.9,40.584316,-3.552943,610.5,3,5,98.8,1.406
20.07,1,0.01,0.041,0.046,0.016,0.038,0.036,-1.606,-0.007,-0.075,20.08,76.9,40.584282,-3.552694,611.0,3,5,100.2,2.109
20.16,1,0.021,0.016,0.017,0.019,0.034,0.03,-1.607,-0.008,-0.078,20.08,76.9,40.584282,-3.552694,611.0,3,5,100.2,2.109
20.27,1,-0.016,0.015,0.0,0.006,0.02,0.007,-1.609,-0.007,-0.08,20.08,76.9,40.584282,-3.552694,611.0,3,5,100.2,2.109
20.37,1,-0.138,0.04,0.018,-0.049,0.028,0.025,-1.613,-0.006,-0.082,20.08,76.9,40.584282,-3.552694,611.0,3,5,100.2,2.109
20.47,1,-0.116,0.058,-0.011,-0.111,0.043,-0.001,-1.616,-0.007,-0.084,20.08,76.9,40.584282,-3.552694,611.0,3,5,100.2,2.109
20.58,1,0.013,0.054,0.021,-0.056,0.038,0.002,-1.619,-0.006,-0.087,20.08,76.9,40.584282,-3.552694,611.0,3,5,100.2,2.109
20.67,1,-0.078,0.014,-0.001,-0.043,0.049,0.014,-1.621,-0.006,-0.089,20.08,76.9,40.584282,-3.552694,611.0,3,5,100.2,2.109
20.77,1,-0.049,0.028,0.022,-0.06,0.028,0.008,-1.623,-0.006,-0.092,20.08,76.9,40.584282,-3.552694,611.0,3,5,100.2,2.109
20.87,1,0.012,0.082,0.035,-0.034,0.048,0.022,-1.624,-0.008,-0.095,20.08,76.9,40.584282,-3.552694,611.0,3,5,100.2,2.109
20.97,1,0.095,0.032,-0.006,0.033,0.048,0.019,-1.624,-0.016,-0.099,20.08,76.9,40.584282,-3.552694,611.0,3,5,100.2,2.109
21.07,1,-0.021,0.075,0.019,0.023,0.055,0.011,-1.617,-0.018,-0.103,21.04,78.7,40.58424,-3.552437,610.7,3,5,101.6,2.812
21.17,1,0.028,0.045,0.017,0.007,0.063,0.016,-1.615,-0.025,-0.106,21.04,78.7,40.58424,-3.552437,610.7,3,5,101.6,2.812
21.28,1,0.02,0.055,-0.001,0.034,0.052,0.011,-1.613,-0.032,-0.111,21.04,78.7,40.58424,-3.552437,610.7,3,5,101.6,2.812
21.37,1,0.02,0.024,-0.003,0.016,0.041,-0.005,-1.612,-0.035,-0.114,21.04,78.7,40.58424,-3.552437,610.7,3,5,101.6,2.812
21.47,1,0.023,-0.007,0.006,0.023,0.016,-0.001,-1.613,-0.037,-0.119,21.04,78.7,40.58424,-3.552437,610.7,3,5,101.6,2.812
21.57,1,-0.019,0.012,0.029,0.003,0.008,0.017,-1.615,-0.038,-0.122,21.04,78.7,40.58424,-3.552437,610.7,3,5,101.6,2.812
21.67,1,-0.017,0.014,-0.025,0.004,0.021,0.004,-1.616,-0.038,-0.125,21.04,78.7,40.58424,-3.552437,610.7,3,5,101.6,2.812
21.77,1,-0.103,-0.02,-0.007,-0.057,0.001,-0.006,-1.617,-0.035,-0.125,21.04,78.7,40.58424,-3.552437,610.7,3,5,101.6,2.812
21.87,1,-0.029,-0.033,0.019,-0.056,-0.022,0.001,-1.621,-0.028,-0.126,21.04,78.7,40.58424,-3.552437,610.7,3,5,101.6,2.812
21.97,1,0.041,0.001,-0.006,-0.009,-0.014,0.002,-1.621,-0.021,-0.127,21.04,78.7,40.58424,-3.552437,610.7,3,5,101.6,2.812
22.07,1,-0.063,0.007,-0.009,-0.026,0.0,-0.002,-1.623,-0.018,-0.128,22.09,80.4,40.58419,-3.552174,611.5,3,5,103.7,2.812
22.28,1,-0.016,-0.033,0.018,-0.042,-0.033,-0.006,-1.627,-0.021,-0.129,22.09,80.4,40.58419,-3.552174,611.5,3,5,103.7,2.812
22.37,1,-0.016,-0.016,-0.025,-0.01,-0.025,-0.001,-1.63,-0.02,-0.13,22.09,80.4,40.58419,-3.552174,611.5,3,5,103.7,2.812
22.48,1,-0.036,-0.006,-0.031,-0.029,-0.017,-0.028,-1.63,-0.016,-0.13,22.09,80.4,40.58419,-3.552174,611.5,3,5,103.7,2.812
22.57,1,-0.055,-0.042,-0.017,-0.044,-0.027,-0.023,-1.631,-0.016,-0.131,22.09,80.4,40.58419,-3.552174,611.5,3,5,103.7,2.812
22.67,1,0.018,-0.023,-0.003,-0.015,-0.03,-0.018,-1.634,-0.017,-0.133,22.09,80.4,40.58419,-3.552174,611.5,3,5,103.7,2.812
22.77,1,0.052,-0.014,0.002,0.019,-0.019,-0.007,-1.637,-0.018,-0.134,22.09,80.4,40.58419,-3.552174,611.5,3,5,103.7,2.812
22.87,1,-0.021,0.016,-0.024,0.004,-0.002,-0.014,-1.635,-0.018,-0.136,22.09,80.4,40.58419,-3.552174,611.5,3,5,103.7,2.812
22.98,1,0.009,-0.014,-0.005,0.004,-0.005,-0.009,-1.631,-0.016,-0.137,22.09,80.4,40.58419,-3.552174,611.5,3,5,103.7,2.812
23.07,1,-0.045,-0.001,-0.01,-0.01,-0.007,-0.011,-1.633,-0.015,-0.139,22.09,80.4,40.58419,-3.552174,611.5,3,5,103.7,2.812
23.17,1,-0.044,0.013,-0.001,-0.036,0.003,-0.004,-1.632,-0.017,-0.141,23.04,82.0,40.584141,-3.551917,612.5,3,5,105.1,3.516
23.27,1,-0.036,-0.0,-0.013,-0.031,0.004,-0.004,-1.632,-0.02,-0.143,23.04,82.0,40.584141,-3.551917,612.5,3,5,105.1,3.516
23.37,1,0.002,-0.001,-0.003,-0.029,-0.001,-0.011,-1.632,-0.021,-0.145,23.04,82.0,40.584141,-3.551917,612.5,3,5,105.1,3.516
23.47,1,0.009,-0.017,-0.025,0.0,-0.007,-0.012,-1.634,-0.023,-0.147,23.04,82.0,40.584141,-3.551917,612.5,3,5,105.1,3.516
23.57,1,-0.017,0.006,-0.03,-0.009,-0.003,-0.023,-1.633,-0.025,-0.148,23.04,82.0,40.584141,-3.551917,612.5,3,5,105.1,3.516
23.68,1,0.002,0.002,-0.039,-0.004,0.002,-0.03,-1.634,-0.024,-0.15,23.04,82.0,40.584141,-3.551917,612.5,3,5,105.1,3.516
23.77,1,0.005,-0.029,-0.037,-0.002,-0.012,-0.036,-1.634,-0.021,-0.151,23.04,82.0,40.584141,-3.551917,612.5,3,5,105.1,3.516
23.87,1,-0.008,-0.028,-0.009,0.002,-0.025,-0.026,-1.633,-0.019,-0.152,23.04,82.0,40.584141,-3.551917,612.5,3,5,105.1,3.516
23.98,1,-0.028,-0.017,-0.039,-0.019,-0.02,-0.025,-1.632,-0.02,-0.154,23.04,82.0,40.584141,-3.551917,612.5,3,5,105.1,3.516
24.08,1,0.026,-0.013,-0.019,0.001,-0.016,-0.029,-1.632,-0.021,-0.155,23.04,82.0,40.584141,-3.551917,612.5,3,5,105.1,3.516
24.18,1,-0.005,-0.004,-0.005,0.007,-0.013,-0.014,-1.633,-0.019,-0.156,24.05,83.4,40.58408,-3.551654,612.3,3,5,106.2,2.461
24.28,1,0.009,-0.012,-0.019,0.01,-0.014,-0.016,-1.632,-0.018,-0.158,24.05,83.4,40.58408,-3.551654,612.3,3,5,106.2,2.461
24.38,1,-0.029,0.007,-0.006,-0.013,-0.002,-0.011,-1.635,-0.018,-0.16,24.05,83.4,40.58408,-3.551654,612.3,3,5,106.2,2.461
24.48,1,-0.027,0.006,-0.008,-0.023,0.006,-0.009,-1.637,-0.019,-0.161,24.05,83.4,40.58408,-3.551654,612.3,3,5,106.2,2.461
24.58,1,-0.047,0.024,-0.027,-0.033,0.013,-0.014,-1.639,-0.02,-0.163,24.05,83.4,40.58408,-3.551654,612.3,3,5,106.2,2.461
24.68,1,-0.002,0.034,-0.006,-0.024,0.026,-0.014,-1.639,-0.022,-0.165,24.05,83.4,40.58408,-3.551654,612.3,3,5,106.2,2.461
24.78,1,-0.006,0.015,-0.002,-0.013,0.029,-0.014,-1.638,-0.025,-0.167,24.05,83.4,40.58408,-3.551654,612.3,3,5,106.2,2.461
24.88,1,-0.036,0.042,-0.027,-0.016,0.025,-0.009,-1.638,-0.025,-0.169,24.05,83.4,40.58408,-3.551654,612.3,3,5,106.2,2.461
24.98,1,-0.078,0.041,-0.056,-0.048,0.035,-0.035,-1.64,-0.024,-0.171,24.05,83.4,40.58408,-3.551654,612.3,3,5,106.2,2.461
25.08,1,0.063,0.013,0.031,-0.012,0.026,-0.018,-1.641,-0.025,-0.173,24.05,83.4,40.58408,-3.551654,612.3,3,5,106.2,2.461
25.18,1,0.008,0.019,-0.027,0.014,0.025,-0.001,-1.64,-0.025,-0.176,25.03,84.7,40.584015,-3.551389,611.3,3,5,107.6,2.461
25.28,1,-0.044,-0.003,-0.047,-0.013,0.007,-0.024,-1.64,-0.025,-0.177,25.03,84.7,40.584015,-3.551389,611.3,3,5,107.6,2.461
25.39,1,-0.08,0.011,-0.04,-0.043,0.006,-0.043,-1.642,-0.026,-0.179,25.03,84.7,40.584015,-3.551389,611.3,3,5,107.6,2.461
25.48,1,-0.02,-0.01,-0.03,-0.046,0.002,-0.038,-1.642,-0.025,-0.18,25.03,84.7,40.584015,-3.551389,611.3,3,5,107.6,2.461
25.59,1,-0.018,-0.001,-0.024,-0.025,-0.002,-0.027,-1.637,-0.023,-0.181,25.03,84.7,40.584015,-3.551389,611.3,3,5,107.6,2.461
25.69,1,-0.004,0.003,-0.03,-0.018,0.002,-0.026,-1.632,-0.022,-0.182,25.03,84.7,40.584015,-3.551389,611.3,3,5,107.6,2.461
25.78,1,0.021,-0.011,-0.039,0.004,-0.007,-0.033,-1.629,-0.022,-0.184,25.03,84.7,40.584015,-3.551389,611.3,3,5,107.6,2.461
25.88,1,-0.003,-0.016,-0.067,0.001,-0.008,-0.045,-1.626,-0.024,-0.185,25.03,84.7,40.584015,-3.551389,611.3,3,5,107.6,2.461
25.98,1,-0.048,-0.007,-0.047,-0.021,-0.011,-0.049,-1.625,-0.025,-0.186,25.03,84.7,40.584015,-3.551389,611.3,3,5,107.6,2.461
26.08,1,0.027,0.024,-0.035,-0.014,0.006,-0.051,-1.627,-0.028,-0.188,25.03,84.7,40.584015,-3.551389,611.3,3,5,107.6,2.461
26.18,1,0.026,-0.009,-0.058,0.023,-0.001,-0.046,-1.622,-0.03,-0.189,26.04,86.1,40.583942,-3.551122,611.8,3,5,109.0,2.461
26.28,1,-0.021,-0.009,-0.118,0.001,-0.002,-0.082,-1.617,-0.03,-0.191,26.04,86.1,40.583942,-3.551122,611.8,3,5,109.0,2.461
26.38,1,0.013,-0.021,-0.088,0.001,-0.011,-0.092,-1.613,-0.03,-0.192,26.04,86.1,40.583942,-3.551122,611.8,3,5,109.0,2.461
26.48,1,0.005,-0.007,-0.075,0.01,-0.011,-0.082,-1.606,-0.031,-0.193,26.04,86.1,40.583942,-3.551122,611.8,3,5,109.0,2.461
26.59,1,-0.051,0.013,-0.093,-0.021,0.001,-0.088,-1.601,-0.031,-0.194,26.04,86.1,40.583942,-3.551122,611.8,3,5,109.0,2.461
26.68,1,-0.045,-0.02,-0.046,-0.027,-0.01,-0.067,-1.596,-0.03,-0.194,26.04,86.1,40.583942,-3.551122,611.8,3,5,109.0,2.461
26.78,1,-0.01,-0.016,-0.073,-0.031,-0.013,-0.07,-1.589,-0.028,-0.194,26.04,86.1,40.583942,-3.551122,611.8,3,5,109.0,2.461
26.89,1,-0.012,-0.004,-0.07,-0.017,-0.008,-0.07,-1.586,-0.028,-0.195,26.04,86.1,40.583942,-3.551122,611.8,3,5,109.0,2.461
26.98,1,-0.013,0.012,-0.047,-0.014,-0.005,-0.059,-1.585,-0.028,-0.196,26.04,86.1,40.583942,-3.551122,611.8,3,5,109.0,2.461
27.08,1,-0.007,-0.001,-0.063,-0.007,0.004,-0.052,-1.584,-0.028,-0.197,26.04,86.1,40.583942,-3.551122,611.8,3,5,109.0,2.461
27.18,1,-0.015,-0.008,-0.077,-0.006,-0.003,-0.072,-1.578,-0.027,-0.197,27.11,86.1,40.583862,-3.550856,611.9,3,5,110.4,2.812
27.29,1,-0.009,-0.013,-0.007,-0.014,-0.01,-0.051,-1.572,-0.024,-0.198,27.11,86.1,40.583862,-3.550856,611.9,3,5,110.4,2.812
27.39,1,-0.041,0.002,0.0,-0.026,-0.005,-0.014,-1.575,-0.023,-0.199,27.11,86.1,40.583862,-3.550856,611.9,3,5,110.4,2.812
27.49,1,0.019,-0.001,-0.01,-0.011,-0.003,-0.014,-1.575,-0.025,-0.2,27.11,86.1,40.583862,-3.550856,611.9,3,5,110.4,2.812
27.59,1,-0.012,0.033,0.013,-0.003,0.012,0.001,-1.575,-0.027,-0.202,27.11,86.1,40.583862,-3.550856,611.9,3,5,110.4,2.812
27.68,1,-0.01,0.019,-0.018,-0.008,0.022,-0.005,-1.577,-0.029,-0.203,27.11,86.1,40.583862,-3.550856,611.9,3,5,110.4,2.812
27.79,1,-0.025,0.002,-0.02,-0.017,0.015,-0.015,-1.578,-0.029,-0.205,27.11,86.1,40.583862,-3.550856,611.9,3,5,110.4,2.812
27.89,1,-0.008,0.003,0.003,-0.019,0.005,-0.006,-1.577,-0.03,-0.206,27.11,86.1,40.583862,-3.550856,611.9,3,5,110.4,2.812
28.0,1,-0.004,0.015,0.011,-0.008,0.015,0.005,-1.58,-0.03,-0.208,27.11,86.1,40.583862,-3.550856,611.9,3,5,110.4,2.812
28.1,1,-0.005,-0.01,0.009,-0.006,0.001,0.002,-1.581,-0.028,-0.209,27.11,86.1,40.583862,-3.550856,611.9,3,5,110.4,2.812
28.19,1,-0.037,-0.003,-0.003,-0.017,-0.004,0.006,-1.583,-0.028,-0.211,28.06,86.1,40.583862,-3.550856,611.9,3,5,110.4,2.812
28.29,1,-0.013,-0.024,-0.008,-0.024,-0.011,-0.006,-1.587,-0.029,-0.212,28.06,86.1,40.583862,-3.550856,611.9,3,5,110.4,2.812
28.39,1,0.014,-0.008,0.019,-0.001,-0.017,0.008,-1.591,-0.033,-0.214,28.06,86.1,40.583862,-3.550856,611.9,3,5,110.4,2.812
28.49,1,-0.01,0.007,-0.008,0.002,-0.002,0.003,-1.591,-0.035,-0.215,28.06,86.1,40.583862,-3.550856,611.9,3,5,110.4,2.812
28.59,1,-0.014,-0.008,-0.014,-0.012,0.0,-0.006,-1.589,-0.037,-0.216,28.06,86.1,40.583862,-3.550856,611.9,3,5,110.4,2.812
28.7,1,-0.018,0.004,0.024,-0.013,-0.002,0.002,-1.587,-0.037,-0.217,28.06,86.1,40.583862,-3.550856,611.9,3,5,110.4,2.812
28.79,1,-0.032,0.012,0.006,-0.019,0.002,0.014,-1.586,-0.036,-0.218,28.06,86.1,40.583862,-3.550856,611.9,3,5,110.4,2.812
28.89,1,0.021,-0.006,0.036,-0.01,-0.001,0.018,-1.588,-0.036,-0.219,28.06,86.1,40.583862,-3.550856,611.9,3,5,110.4,2.812
28.99,1,0.02,-0.018,0.005,0.004,-0.005,0.016,-1.591,-0.037,-0.221,28.06,86.1,40.583862,-3.550856,611.9,3,5,110.4,2.812
29.09,1,-0.02,0.007,0.007,0.002,-0.004,0.008,-1.592,-0.035,-0.223,28.06,86.1,40.583862,-3.550856,611.9,3,5,110.4,2.812
29.19,1,0.009,-0.02,-0.01,0.0,-0.005,0.003,-1.589,-0.034,-0.224,29.04,85.0,40.583698,-3.550336,613.5,3,5,113.6,3.164
29.29,1,-0.039,0.016,-0.008,-0.011,-0.001,-0.005,-1.59,-0.035,-0.226,29.04,85.0,40.583698,-3.550336,613.5,3,5,113.6,3.164
29.39,1,-0.002,0.014,-0.024,-0.019,0.011,-0.009,-1.59,-0.039,-0.227,29.04,85.0,40.583698,-3.550336,613.5,3,5,113.6,3.164
29.49,1,0.005,0.006,0.015,0.001,0.009,-0.006,-1.589,-0.041,-0.229,29.04,85.0,40.583698,-3.550336,613.5,3,5,113.6,3.164
29.59,1,-0.046,-0.001,0.028,-0.02,0.004,0.018,-1.589,-0.039,-0.231,29.04,85.0,40.583698,-3.550336,613.5,3,5,113.6,3.164
29.7,1,0.046,0.013,0.013,0.004,0.005,0.013,-1.589,-0.038,-0.232,29.04,85.0,40.583698,-3.550336,613.5,3,5,113.6,3.164
29.79,1,-0.009,0.009,-0.002,0.006,0.003,0.007,-1.589,-0.038,-0.234,29.04,85.0,40.583698,-3.550336,613.5,3,5,113.6,3.164
29.91,1,-0.026,0.012,-0.003,-0.01,0.012,0.0,-1.589,-0.039,-0.236,29.04,85.0,40.583698,-3.550336,613.5,3,5,113.6,3.164
30.0,1,-0.051,-0.005,0.017,-0.034,0.005,0.006,-1.588,-0.039,-0.237,29.04,85.0,40.583698,-3.550336,613.5,3,5,113.6,3.164
30.09,1,-0.023,-0.021,0.03,-0.035,-0.006,0.024,-1.592,-0.04,-0.238,29.04,85.0,40.583698,-3.550336,613.5,3,5,113.6,3.164
30.19,1,-0.016,-0.011,0.023,-0.024,-0.012,0.021,-1.592,-0.041,-0.24,30.04,85.5,40.583607,-3.550081,613.2,3,5,115.0,3.164
30.29,1,-0.019,0.017,-0.017,-0.014,-0.004,0.011,-1.592,-0.042,-0.241,30.04,85.5,40.583607,-3.550081,613.2,3,5,115.0,3.164
30.39,1,-0.042,0.003,0.006,-0.03,0.007,-0.002,-1.592,-0.042,-0.241,30.04,85.5,40.583607,-3.550081,613.2,3,5,115.0,3.164
30.5,1,-0.019,0.009,0.001,-0.033,0.01,-0.001,-1.593,-0.041,-0.242,30.04,85.5,40.583607,-3.550081,613.2,3,5,115.0,3.164
30.59,1,-0.017,0.006,-0.015,-0.018,0.008,-0.006,-1.593,-0.043,-0.243,30.04,85.5,40.583607,-3.550081,613.2,3,5,115.0,3.164
30.69,1,-0.026,0.013,-0.009,-0.022,0.01,-0.012,-1.594,-0.041,-0.244,30.04,85.5,40.583607,-3.550081,613.2,3,5,115.0,3.164
30.79,1,0.009,-0.018,0.015,-0.006,-0.003,0.004,-1.594,-0.041,-0.246,30.04,85.5,40.583607,-3.550081,613.2,3,5,115.0,3.164
30.89,1,-0.003,0.0,-0.03,-0.001,-0.008,-0.009,-1.593,-0.04,-0.247,30.04,85.5,40.583607,-3.550081,613.2,3,5,115.0,3.164
30.99,1,-0.029,0.0,-0.016,-0.014,-0.003,-0.016,-1.594,-0.042,-0.247,30.04,85.5,40.583607,-3.550081,613.2,3,5,115.0,3.164
31.1,1,-0.013,-0.011,-0.018,-0.019,-0.002,-0.017,-1.593,-0.044,-0.248,30.04,85.5,40.583607,-3.550081,613.2,3,5,115.0,3.164
31.2,1,-0.025,-0.026,-0.029,-0.021,-0.013,-0.02,-1.592,-0.043,-0.248,31.04,85.9,40.583511,-3.549828,613.8,3,5,117.1,3.516
31.3,1,-0.016,-0.026,-0.008,-0.028,-0.022,-0.022,-1.593,-0.043,-0.249,31.04,85.9,40.583511,-3.549828,613.8,3,5,117.1,3.516
31.4,1,-0.044,-0.016,-0.009,-0.022,-0.021,-0.01,-1.593,-0.043,-0.25,31.04,85.9,40.583511,-3.549828,613.8,3,5,117.1,3.516
31.5,1,-0.004,-0.008,-0.021,-0.028,-0.015,-0.017,-1.593,-0.043,-0.251,31.04,85.9,40.583511,-3.549828,613.8,3,5,117.1,3.516
31.6,1,0.031,-0.011,-0.015,0.017,-0.013,-0.009,-1.591,-0.045,-0.251,31.04,85.9,40.583511,-3.549828,613.8,3,5,117.1,3.516
31.7,1,-0.005,0.002,-0.0,-0.001,-0.004,-0.013,-1.587,-0.047,-0.252,31.04,85.9,40.583511,-3.549828,613.8,3,5,117.1,3.516
31.8,1,-0.002,-0.018,-0.001,0.003,-0.008,-0.005,-1.583,-0.045,-0.252,31.04,85.9,40.583511,-3.549828,613.8,3,5,117.1,3.516
31.9,1,-0.011,-0.024,-0.015,-0.005,-0.021,-0.009,-1.578,-0.04,-0.253,31.04,85.9,40.583511,-3.549828,613.8,3,5,117.1,3.516
32.0,1,0.017,-0.027,0.004,-0.001,-0.022,-0.001,-1.579,-0.038,-0.254,31.04,85.9,40.583511,-3.549828,613.8,3,5,117.1,3.516
32.2,1,0.006,-0.006,-0.013,0.009,-0.013,0.003,-1.582,-0.038,-0.255,31.04,85.9,40.583511,-3.549828,613.8,3,5,117.1,3.516
32.3,1,-0.039,-0.018,-0.013,-0.011,-0.01,-0.009,-1.579,-0.036,-0.256,32.06,86.3,40.583405,-3.549576,613.6,3,5,118.5,3.516
32.4,1,-0.045,0.005,-0.006,-0.029,-0.006,-0.011,-1.576,-0.033,-0.256,32.06,86.3,40.583405,-3.549576,613.6,3,5,118.5,3.516
32.5,1,-0.017,0.003,0.008,-0.029,0.002,-0.005,-1.578,-0.032,-0.257,32.06,86.3,40.583405,-3.549576,613.6,3,5,118.5,3.516
32.6,1,-0.035,0.001,-0.004,-0.032,-0.001,0.003,-1.58,-0.033,-0.258,32.06,86.3,40.583405,-3.549576,613.6,3,5,118.5,3.516
32.7,1,-0.036,0.002,-0.005,-0.036,0.003,-0.005,-1.58,-0.034,-0.259,32.06,86.3,40.583405,-3.549576,613.6,3,5,118.5,3.516
32.8,1,0.017,0.006,0.024,-0.009,-0.002,0.006,-1.581,-0.032,-0.26,32.06,86.3,40.583405,-3.549576,613.6,3,5,118.5,3.516
32.9,1,0.041,0.008,0.023,0.023,0.007,0.02,-1.584,-0.036,-0.261,32.06,86.3,40.583405,-3.549576,613.6,3,5,118.5,3.516
33.0,1,-0.009,0.021,-0.017,0.01,0.012,0.007,-1.585,-0.035,-0.262,32.06,86.3,40.583405,-3.549576,613.6,3,5,118.5,3.516
33.1,1,-0.042,-0.003,-0.019,-0.02,0.011,-0.011,-1.586,-0.035,-0.263,32.06,86.3,40.583405,-3.549576,613.6,3,5,118.5,3.516
33.2,1,0.003,0.008,-0.011,-0.017,0.007,-0.014,-1.587,-0.036,-0.264,32.06,86.3,40.583405,-3.549576,613.6,3,5,118.5,3.516
33.3,1,-0.007,-0.011,0.007,-0.008,0.001,-0.012,-1.588,-0.034,-0.265,33.04,86.3,40.583405,-3.549576,613.6,3,5,118.5,3.516
33.4,1,-0.01,-0.002,-0.009,-0.005,-0.005,0.006,-1.587,-0.033,-0.265,33.04,86.3,40.583405,-3.549576,613.6,3,5,118.5,3.516
33.5,1,-0.018,0.012,-0.012,-0.014,0.005,-0.004,-1.586,-0.031,-0.266,33.04,86.3,40.583405,-3.549576,613.6,3,5,118.5,3.516
33.61,1,-0.016,-0.027,0.025,-0.012,-0.007,0.002,-1.586,-0.03,-0.266,33.04,86.3,40.583405,-3.549576,613.6,3,5,118.5,3.516
33.7,1,-0.03,-0.006,0.012,-0.017,-0.011,0.011,-1.587,-0.028,-0.265,33.04,86.3,40.583405,-3.549576,613.6,3,5,118.5,3.516
33.8,1,0.019,-0.023,-0.016,-0.013,-0.013,0.0,-1.59,-0.026,-0.265,33.04,86.3,40.583405,-3.549576,613.6,3,5,118.5,3.516
33.9,1,-0.0,-0.019,-0.01,0.0,-0.02,-0.002,-1.592,-0.025,-0.265,33.04,86.3,40.583405,-3.549576,613.6,3,5,118.5,3.516
34.01,1,-0.004,-0.012,-0.0,0.001,-0.017,-0.011,-1.594,-0.025,-0.264,33.04,86.3,40.583405,-3.549576,613.6,3,5,118.5,3.516
34.1,1,-0.034,-0.001,-0.018,-0.014,-0.007,-0.008,-1.595,-0.024,-0.264,33.04,86.3,40.583405,-3.549576,613.6,3,5,118.5,3.516
34.21,1,-0.019,-0.024,-0.013,-0.024,-0.015,-0.013,-1.594,-0.023,-0.263,33.04,86.3,40.583405,-3.549576,613.6,3,5,118.5,3.516
34.3,1,-0.002,-0.012,-0.016,-0.013,-0.018,-0.016,-1.592,-0.021,-0.262,34.11,87.0,40.583183,-3.549086,614.2,3,5,121.6,3.164
34.41,1,-0.008,-0.019,-0.01,-0.008,-0.015,-0.014,-1.591,-0.018,-0.262,34.11,87.0,40.583183,-3.549086,614.2,3,5,121.6,3.164
34.5,1,-0.005,-0.008,-0.011,-0.005,-0.017,-0.017,-1.586,-0.016,-0.261,34.11,87.0,40.583183,-3.549086,614.2,3,5,121.6,3.164
34.61,1,-0.005,-0.021,-0.037,-0.005,-0.013,-0.015,-1.584,-0.014,-0.26,34.11,87.0,40.583183,-3.549086,614.2,3,5,121.6,3.164
34.7,1,-0.04,-0.007,-0.007,-0.02,-0.015,-0.025,-1.585,-0.013,-0.259,34.11,87.0,40.583183,-3.549086,614.2,3,5,121.6,3.164
34.82,1,-0.016,0.015,-0.002,-0.024,-0.001,-0.009,-1.586,-0.012,-0.259,34.11,87.0,40.583183,-3.549086,614.2,3,5,121.6,3.164
34.91,1,0.001,0.007,0.004,-0.015,0.011,-0.001,-1.583,-0.011,-0.259,34.11,87.0,40.583183,-3.549086,614.2,3,5,121.6,3.164
35.01,1,-0.002,0.026,-0.027,-0.002,0.014,-0.01,-1.584,-0.012,-0.26,34.11,87.0,40.583183,-3.549086,614.2,3,5,121.6,3.164
35.11,1,-0.053,0.041,-0.044,-0.026,0.029,-0.022,-1.586,-0.018,-0.261,34.11,87.0,40.583183,-3.549086,614.2,3,5,121.6,3.164
35.21,1,0.042,0.038,0.005,-0.006,0.038,-0.021,-1.586,-0.019,-0.261,34.11,87.0,40.583183,-3.549086,614.2,3,5,121.6,3.164
35.31,1,0.003,0.03,-0.018,0.014,0.031,-0.021,-1.58,-0.018,-0.262,35.11,87.2,40.583065,-3.548843,613.7,3,5,122.7,3.164
35.42,1,-0.0,0.019,-0.016,0.004,0.028,-0.008,-1.575,-0.017,-0.263,35.11,87.2,40.583065,-3.548843,613.7,3,5,122.7,3.164
35.52,1,-0.013,0.026,-0.018,0.0,0.023,-0.018,-1.57,-0.017,-0.264,35.11,87.2,40.583065,-3.548843,613.7,3,5,122.7,3.164
35.61,1,-0.024,0.025,-0.002,-0.017,0.025,-0.008,-1.57,-0.02,-0.265,35.11,87.2,40.583065,-3.548843,613.7,3,5,122.7,3.164
35.71,1,-0.043,0.021,0.009,-0.031,0.024,-0.004,-1.571,-0.023,-0.266,35.11,87.2,40.583065,-3.548843,613.7,3,5,122.7,3.164
35.81,1,-0.02,0.023,0.018,-0.024,0.024,0.006,-1.567,-0.026,-0.267,35.11,87.2,40.583065,-3.548843,613.7,3,5,122.7,3.164
35.91,1,-0.039,-0.004,0.007,-0.027,0.011,0.008,-1.567,-0.025,-0.268,35.11,87.2,40.583065,-3.548843,613.7,3,5,122.7,3.164
36.01,1,-0.023,0.008,-0.004,-0.032,0.001,0.008,-1.566,-0.028,-0.269,35.11,87.2,40.583065,-3.548843,613.7,3,5,122.7,3.164
36.11,1,0.01,0.024,0.02,-0.019,0.015,0.012,-1.565,-0.033,-0.27,35.11,87.2,40.583065,-3.548843,613.7,3,5,122.7,3.164
36.21,1,0.044,0.017,0.016,0.017,0.02,0.015,-1.564,-0.033,-0.271,35.11,87.2,40.583065,-3.548843,613.7,3,5,122.7,3.164
36.31,1,-0.003,-0.001,0.002,0.018,0.014,0.006,-1.562,-0.033,-0.271,36.06,87.1,40.582939,-3.548603,614.8,3,5,124.1,2.461
36.41,1,0.016,0.019,0.03,0.012,0.009,0.013,-1.558,-0.035,-0.272,36.06,87.1,40.582939,-3.548603,614.8,3,5,124.1,2.461
36.52,1,-0.032,-0.003,0.029,-0.005,0.005,0.029,-1.558,-0.034,-0.272,36.06,87.1,40.582939,-3.548603,614.8,3,5,124.1,2.461
36.61,1,-0.024,-0.002,0.005,-0.021,0.0,0.017,-1.561,-0.035,-0.273,36.06,87.1,40.582939,-3.548603,614.8,3,5,124.1,2.461
36.71,1,-0.014,-0.021,0.022,-0.017,-0.007,0.016,-1.564,-0.036,-0.273,36.06,87.1,40.582939,-3.548603,614.8,3,5,124.1,2.461
36.81,1,-0.006,-0.0,0.029,-0.014,-0.011,0.025,-1.566,-0.036,-0.274,36.06,87.1,40.582939,-3.548603,614.8,3,5,124.1,2.461
36.91,1,0.039,0.023,-0.006,0.011,0.006,0.011,-1.569,-0.038,-0.275,36.06,87.1,40.582939,-3.548603,614.8,3,5,124.1,2.461
37.01,1,-0.003,0.021,0.001,0.018,0.02,0.007,-1.569,-0.04,-0.275,36.06,87.1,40.582939,-3.548603,614.8,3,5,124.1,2.461
37.11,1,-0.032,0.023,-0.006,-0.007,0.019,-0.004,-1.567,-0.041,-0.277,36.06,87.1,40.582939,-3.548603,614.8,3,5,124.1,2.461
37.21,1,-0.032,0.012,0.006,-0.029,0.018,-0.002,-1.569,-0.04,-0.278,36.06,87.1,40.582939,-3.548603,614.8,3,5,124.1,2.461
37.31,1,-0.017,-0.006,0.018,-0.026,0.007,0.011,-1.567,-0.041,-0.279,37.05,86.8,40.582813,-3.548374,614.4,3,5,125.9,3.164
37.41,1,0.031,0.002,0.002,0.001,0.001,0.009,-1.565,-0.044,-0.28,37.05,86.8,40.582813,-3.548374,614.4,3,5,125.9,3.164
37.52,1,0.047,-0.007,0.018,0.025,-0.0,0.014,-1.568,-0.045,-0.281,37.05,86.8,40.582813,-3.548374,614.4,3,5,125.9,3.164
37.61,1,-0.05,0.026,-0.003,-0.001,0.012,0.01,-1.571,-0.045,-0.283,37.05,86.8,40.582813,-3.548374,614.4,3,5,125.9,3.164
37.71,1,-0.022,-0.011,-0.014,-0.021,0.005,-0.011,-1.572,-0.044,-0.283,37.05,86.8,40.582813,-3.548374,614.4,3,5,125.9,3.164
37.81,1,-0.028,-0.036,0.01,-0.015,-0.017,0.001,-1.575,-0.041,-0.284,37.05,86.8,40.582813,-3.548374,614.4,3,5,125.9,3.164
37.92,1,-0.018,-0.011,-0.011,-0.026,-0.02,-0.0,-1.574,-0.041,-0.284,37.05,86.8,40.582813,-3.548374,614.4,3,5,125.9,3.164
38.01,1,-0.02,-0.007,-0.01,-0.023,-0.015,-0.009,-1.575,-0.041,-0.284,37.05,86.8,40.582813,-3.548374,614.4,3,5,125.9,3.164
38.11,1,0.009,-0.007,-0.007,-0.01,-0.008,-0.007,-1.575,-0.04,-0.284,37.05,86.8,40.582813,-3.548374,614.4,3,5,125.9,3.164
38.21,1,0.013,0.015,-0.017,0.005,0.003,-0.012,-1.572,-0.039,-0.285,37.05,86.8,40.582813,-3.548374,614.4,3,5,125.9,3.164
38.32,1,-0.044,0.007,-0.01,-0.018,0.005,-0.013,-1.568,-0.037,-0.286,38.05,86.8,40.58268,-3.548151,615.6,3,5,127.6,3.516
38.42,1,-0.003,0.022,-0.016,-0.005,0.006,-0.016,-1.568,-0.036,-0.286,38.05,86.8,40.58268,-3.548151,615.6,3,5,127.6,3.516
38.52,1,-0.041,0.022,0.006,-0.026,0.023,-0.003,-1.566,-0.037,-0.287,38.05,86.8,40.58268,-3.548151,615.6,3,5,127.6,3.516
38.62,1,-0.021,-0.001,-0.002,-0.03,0.013,0.0,-1.562,-0.037,-0.288,38.05,86.8,40.58268,-3.548151,615.6,3,5,127.6,3.516
38.72,1,-0.013,-0.014,0.006,-0.022,-0.003,-0.002,-1.564,-0.037,-0.289,38.05,86.8,40.58268,-3.548151,615.6,3,5,127.6,3.516
38.82,1,-0.016,-0.014,0.012,-0.019,-0.01,0.008,-1.565,-0.038,-0.29,38.05,86.8,40.58268,-3.548151,615.6,3,5,127.6,3.516
38.93,1,-0.038,-0.003,-0.006,-0.023,-0.006,-0.002,-1.566,-0.038,-0.29,38.05,86.8,40.58268,-3.548151,615.6,3,5,127.6,3.516
39.02,1,-0.015,0.001,0.016,-0.023,-0.002,0.01,-1.57,-0.039,-0.291,38.05,86.8,40.58268,-3.548151,615.6,3,5,127.6,3.516
39.13,1,-0.004,-0.008,-0.002,-0.013,-0.004,0.005,-1.572,-0.039,-0.291,38.05,86.8,40.58268,-3.548151,615.6,3,5,127.6,3.516
39.22,1,-0.028,-0.02,-0.004,-0.014,-0.012,0.0,-1.572,-0.039,-0.291,38.05,86.8,40.58268,-3.548151,615.6,3,5,127.6,3.516
39.32,1,-0.024,-0.019,0.012,-0.025,-0.015,0.004,-1.573,-0.038,-0.292,39.04,86.3,40.582539,-3.547932,616.4,3,5,129.0,3.164
39.42,1,0.033,-0.014,0.002,0.002,-0.015,0.006,-1.575,-0.038,-0.292,39.04,86.3,40.582539,-3.547932,616.4,3,5,129.0,3.164
39.52,1,-0.021,-0.014,-0.012,-0.002,-0.019,-0.003,-1.576,-0.038,-0.292,39.04,86.3,40.582539,-3.547932,616.4,3,5,129.0,3.164
39.63,1,-0.06,-0.005,0.002,-0.031,-0.01,-0.002,-1.576,-0.037,-0.292,39.04,86.3,40.582539,-3.547932,616.4,3,5,129.0,3.164
39.73,1,-0.024,-0.011,0.001,-0.038,-0.009,-0.006,-1.574,-0.037,-0.292,39.04,86.3,40.582539,-3.547932,616.4,3,5,129.0,3.164
39.83,1,0.014,-0.01,0.022,-0.013,-0.011,0.012,-1.578,-0.036,-0.292,39.04,86.3,40.582539,-3.547932,616.4,3,5,129.0,3.164
39.93,1,0.006,-0.014,0.015,0.0,-0.009,0.015,-1.579,-0.036,-0.293,39.04,86.3,40.582539,-3.547932,616.4,3,5,129.0,3.164
40.02,1,-0.026,0.011,0.008,-0.009,-0.004,0.014,-1.578,-0.035,-0.293,39.04,86.3,40.582539,-3.547932,616.4,3,5,129.0,3.164
40.12,1,0.026,-0.002,0.031,0.002,-0.001,0.02,-1.576,-0.036,-0.293,39.04,86.3,40.582539,-3.547932,616.4,3,5,129.0,3.164
40.22,1,-0.006,0.007,0.009,0.001,0.001,0.018,-1.575,-0.036,-0.293,39.04,86.3,40.582539,-3.547932,616.4,3,5,129.0,3.164
40.32,1,-0.028,-0.017,0.01,-0.013,-0.006,0.008,-1.577,-0.033,-0.293,40.11,86.3,40.582401,-3.547718,616.2,3,5,130.8,3.164
40.42,1,-0.017,-0.017,-0.003,-0.013,-0.013,0.007,-1.578,-0.032,-0.293,40.11,86.3,40.582401,-3.547718,616.2,3,5,130.8,3.164
40.52,1,-0.022,0.0,0.018,-0.018,-0.003,0.011,-1.581,-0.031,-0.293,40.11,86.3,40.582401,-3.547718,616.2,3,5,130.8,3.164
40.62,1,-0.019,0.005,0.006,-0.021,-0.006,0.005,-1.584,-0.031,-0.293,40.11,86.3,40.582401,-3.547718,616.2,3,5,130.8,3.164
40.73,1,0.044,-0.018,0.012,0.006,-0.006,0.007,-1.587,-0.03,-0.292,40.11,86.3,40.582401,-3.547718,616.2,3,5,130.8,3.164
40.83,1,-0.022,-0.012,-0.011,0.011,-0.014,0.005,-1.589,-0.024,-0.292,40.11,86.3,40.582401,-3.547718,616.2,3,5,130.8,3.164
40.92,1,-0.012,-0.011,-0.011,-0.01,-0.011,-0.011,-1.587,-0.02,-0.291,40.11,86.3,40.582401,-3.547718,616.2,3,5,130.8,3.164
41.02,1,-0.024,0.003,-0.019,-0.016,-0.0,-0.004,-1.583,-0.017,-0.29,40.11,86.3,40.582401,-3.547718,616.2,3,5,130.8,3.164
41.13,1,-0.01,-0.009,0.011,-0.015,-0.009,-0.001,-1.585,-0.016,-0.289,40.11,86.3,40.582401,-3.547718,616.2,3,5,130.8,3.164
41.22,1,0.0,-0.001,0.004,-0.013,-0.004,-0.001,-1.585,-0.016,-0.289,40.11,86.3,40.582401,-3.547718,616.2,3,5,130.8,3.164
41.32,1,0.022,-0.008,-0.011,0.008,-0.002,-0.003,-1.586,-0.016,-0.288,41.12,86.4,40.582253,-3.547508,616.1,3,5,132.2,3.164
41.42,1,-0.027,-0.006,0.005,-0.002,-0.009,-0.0,-1.587,-0.015,-0.287,41.12,86.4,40.582253,-3.547508,616.1,3,5,132.2,3.164
41.52,1,-0.047,-0.015,-0.001,-0.024,-0.011,-0.002,-1.587,-0.017,-0.286,41.12,86.4,40.582253,-3.547508,616.1,3,5,132.2,3.164
41.62,1,0.01,-0.022,-0.012,-0.018,-0.016,-0.008,-1.589,-0.019,-0.285,41.12,86.4,40.582253,-3.547508,616.1,3,5,132.2,3.164
41.72,1,0.024,-0.022,-0.003,0.002,-0.017,-0.001,-1.587,-0.018,-0.284,41.12,86.4,40.582253,-3.547508,616.1,3,5,132.2,3.164
41.83,1,-0.009,-0.004,0.015,0.008,-0.012,0.003,-1.586,-0.016,-0.283,41.12,86.4,40.582253,-3.547508,616.1,3,5,132.2,3.164
41.92,1,-0.048,-0.038,-0.022,-0.032,-0.024,-0.007,-1.584,-0.016,-0.281,41.12,86.4,40.582253,-3.547508,616.1,3,5,132.2,3.164
42.02,1,0.007,-0.03,-0.003,-0.016,-0.031,-0.015,-1.587,-0.017,-0.28,41.12,86.4,40.582253,-3.547508,616.1,3,5,132.2,3.164
42.24,1,0.009,-0.011,-0.015,-0.001,-0.01,-0.012,-1.583,-0.017,-0.278,41.12,86.4,40.582253,-3.547508,616.1,3,5,132.2,3.164
42.34,1,0.083,0.003,-0.005,0.048,-0.005,-0.01,-1.582,-0.017,-0.277,41.12,86.4,40.582253,-3.547508,616.1,3,5,132.2,3.164
42.43,1,-0.007,0.018,-0.013,0.039,0.006,-0.006,-1.58,-0.02,-0.276,42.1,86.5,40.582104,-3.547301,616.1,3,5,133.2,2.461
42.53,1,-0.052,0.001,-0.032,-0.015,0.007,-0.022,-1.582,-0.019,-0.275,42.1,86.5,40.582104,-3.547301,616.1,3,5,133.2,2.461
42.63,1,-0.037,-0.009,-0.03,-0.03,0.0,-0.028,-1.584,-0.018,-0.274,42.1,86.5,40.582104,-3.547301,616.1,3,5,133.2,2.461
42.73,1,0.011,0.011,-0.031,-0.022,0.003,-0.031,-1.581,-0.018,-0.274,42.1,86.5,40.582104,-3.547301,616.1,3,5,133.2,2.461
42.83,1,-0.031,0.002,-0.035,-0.011,0.002,-0.027,-1.577,-0.017,-0.272,42.1,86.5,40.582104,-3.547301,616.1,3,5,133.2,2.461
42.93,1,0.0,0.006,0.003,-0.01,0.003,-0.02,-1.576,-0.019,-0.272,42.1,86.5,40.582104,-3.547301,616.1,3,5,133.2,2.461
43.04,1,-0.002,0.003,-0.027,-0.005,0.007,-0.015,-1.572,-0.019,-0.271,42.1,86.5,40.582104,-3.547301,616.1,3,5,133.2,2.461
43.13,1,-0.027,-0.005,-0.022,-0.015,0.002,-0.024,-1.569,-0.021,-0.27,42.1,86.5,40.582104,-3.547301,616.1,3,5,133.2,2.461
43.23,1,-0.014,-0.017,-0.007,-0.016,-0.013,-0.016,-1.571,-0.022,-0.269,42.1,86.5,40.582104,-3.547301,616.1,3,5,133.2,2.461
43.33,1,0.006,-0.018,-0.009,-0.008,-0.015,-0.011,-1.574,-0.021,-0.268,42.1,86.5,40.582104,-3.547301,616.1,3,5,133.2,2.461
43.43,1,0.028,-0.008,-0.022,0.015,-0.01,-0.013,-1.572,-0.023,-0.267,43.05,86.5,40.581951,-3.547099,617.1,3,5,133.6,1.406
43.53,1,-0.021,-0.019,0.001,-0.004,-0.012,-0.009,-1.569,-0.022,-0.265,43.05,86.5,40.581951,-3.547099,617.1,3,5,133.6,1.406
43.63,1,-0.044,-0.025,-0.035,-0.015,-0.02,-0.017,-1.57,-0.021,-0.263,43.05,86.5,40.581951,-3.547099,617.1,3,5,133.6,1.406
43.73,1,-0.002,-0.032,-0.012,-0.014,-0.028,-0.018,-1.571,-0.021,-0.262,43.05,86.5,40.581951,-3.547099,617.1,3,5,133.6,1.406
43.83,1,-0.055,-0.037,-0.02,-0.038,-0.034,-0.023,-1.571,-0.019,-0.26,43.05,86.5,40.581951,-3.547099,617.1,3,5,133.6,1.406
43.94,1,0.022,-0.03,-0.004,-0.017,-0.033,-0.01,-1.568,-0.017,-0.258,43.05,86.5,40.581951,-3.547099,617.1,3,5,133.6,1.406
44.04,1,0.016,-0.016,-0.015,0.009,-0.024,-0.016,-1.565,-0.015,-0.256,43.05,86.5,40.581951,-3.547099,617.1,3,5,133.6,1.406
44.14,1,-0.01,-0.027,-0.019,0.001,-0.025,-0.014,-1.564,-0.014,-0.254,43.05,86.5,40.581951,-3.547099,617.1,3,5,133.6,1.406
44.25,1,-0.039,-0.014,0.016,-0.014,-0.02,-0.004,-1.564,-0.013,-0.252,43.05,86.5,40.581951,-3.547099,617.1,3,5,133.6,1.406
44.33,1,-0.004,0.004,0.005,-0.021,-0.007,0.011,-1.563,-0.012,-0.25,43.05,86.5,40.581951,-3.547099,617.1,3,5,133.6,1.406
44.43,1,-0.004,-0.009,-0.017,-0.008,-0.004,-0.007,-1.564,-0.01,-0.248,44.15,86.1,40.581806,-3.5469,617.3,3,5,134.3,1.055
44.53,1,-0.017,0.01,-0.019,-0.007,-0.002,-0.015,-1.565,-0.01,-0.246,44.15,86.1,40.581806,-3.5469,617.3,3,5,134.3,1.055
44.63,1,-0.02,-0.006,-0.021,-0.014,-0.002,-0.018,-1.562,-0.009,-0.245,44.15,86.1,40.581806,-3.5469,617.3,3,5,134.3,1.055
44.74,1,0.029,-0.01,-0.017,-0.005,-0.004,-0.019,-1.559,-0.01,-0.243,44.15,86.1,40.581806,-3.5469,617.3,3,5,134.3,1.055
44.83,1,0.0,-0.004,-0.009,0.013,-0.008,-0.01,-1.559,-0.012,-0.241,44.15,86.1,40.581806,-3.5469,617.3,3,5,134.3,1.055
44.93,1,-0.042,-0.012,-0.001,-0.019,-0.008,-0.011,-1.561,-0.013,-0.24,44.15,86.1,40.581806,-3.5469,617.3,3,5,134.3,1.055
45.04,1,0.009,-0.011,-0.02,-0.002,-0.012,0.001,-1.562,-0.013,-0.238,44.15,86.1,40.581806,-3.5469,617.3,3,5,134.3,1.055
45.13,1,-0.015,-0.028,-0.012,-0.008,-0.016,-0.014,-1.563,-0.01,-0.236,44.15,86.1,40.581806,-3.5469,617.3,3,5,134.3,1.055
45.23,1,-0.027,-0.012,-0.008,-0.026,-0.014,-0.013,-1.562,-0.009,-0.234,44.15,86.1,40.581806,-3.5469,617.3,3,5,134.3,1.055
45.34,1,0.004,-0.021,0.037,-0.009,-0.019,0.008,-1.561,-0.008,-0.232,44.15,86.1,40.581806,-3.5469,617.3,3,5,134.3,1.055
45.44,1,-0.041,-0.015,0.0,-0.014,-0.017,0.005,-1.561,-0.006,-0.229,45.05,85.6,40.581654,-3.546701,617.4,3,5,134.6,1.055
45.53,1,-0.034,-0.034,0.017,-0.038,-0.021,0.011,-1.561,-0.003,-0.226,45.05,85.6,40.581654,-3.546701,617.4,3,5,134.6,1.055
45.63,1,-0.011,-0.035,0.024,-0.023,-0.032,0.014,-1.563,0.003,-0.223,45.05,85.6,40.581654,-3.546701,617.4,3,5,134.6,1.055
45.73,1,0.039,-0.011,0.016,0.004,-0.026,0.023,-1.565,0.005,-0.221,45.05,85.6,40.581654,-3.546701,617.4,3,5,134.6,1.055
45.83,1,-0.001,-0.019,0.004,0.016,-0.021,0.016,-1.565,0.006,-0.218,45.05,85.6,40.581654,-3.546701,617.4,3,5,134.6,1.055
45.94,1,-0.007,-0.002,0.005,-0.003,-0.011,0.006,-1.564,0.007,-0.216,45.05,85.6,40.581654,-3.546701,617.4,3,5,134.6,1.055
46.04,1,0.006,0.006,0.006,0.001,-0.0,0.006,-1.563,0.007,-0.214,45.05,85.6,40.581654,-3.546701,617.4,3,5,134.6,1.055
46.14,1,-0.019,0.027,0.016,-0.009,0.011,0.012,-1.566,0.006,-0.212,45.05,85.6,40.581654,-3.546701,617.4,3,5,134.6,1.055
46.24,1,-0.028,0.011,-0.003,-0.016,0.016,0.005,-1.568,0.008,-0.21,45.05,85.6,40.581654,-3.546701,617.4,3,5,134.6,1.055
46.34,1,0.03,0.019,0.005,-0.001,0.017,0.0,-1.567,0.007,-0.209,45.05,85.6,40.581654,-3.546701,617.4,3,5,134.6,1.055
46.44,1,-0.018,0.016,-0.002,0.0,0.015,0.006,-1.567,0.007,-0.207,46.05,85.2,40.581501,-3.546505,618.8,3,5,135.0,0.703
46.54,1,-0.008,0.026,0.007,-0.008,0.017,0.001,-1.565,0.006,-0.206,46.05,85.2,40.581501,-3.546505,618.8,3,5,135.0,0.703
46.64,1,0.012,0.015,0.016,0.008,0.019,0.014,-1.566,0.004,-0.205,46.05,85.2,40.581501,-3.546505,618.8,3,5,135.0,0.703
46.74,1,-0.053,0.027,-0.002,-0.017,0.023,0.006,-1.569,0.004,-0.204,46.05,85.2,40.581501,-3.546505,618.8,3,5,135.0,0.703
46.84,1,-0.012,-0.007,0.017,-0.033,0.016,0.005,-1.571,0.003,-0.203,46.05,85.2,40.581501,-3.546505,618.8,3,5,135.0,0.703
46.94,1,-0.002,0.008,0.018,-0.013,0.008,0.016,-1.574,0.003,-0.202,46.05,85.2,40.581501,-3.546505,618.8,3,5,135.0,0.703
47.04,1,0.011,0.014,-0.022,-0.003,0.008,0.002,-1.576,0.001,-0.2,46.05,85.2,40.581501,-3.546505,618.8,3,5,135.0,0.703
47.14,1,-0.025,0.003,-0.022,-0.003,0.004,-0.012,-1.576,-0.003,-0.199,46.05,85.2,40.581501,-3.546505,618.8,3,5,135.0,0.703
47.24,1,-0.03,0.018,-0.009,-0.02,0.012,-0.02,-1.575,-0.005,-0.198,46.05,85.2,40.581501,-3.546505,618.8,3,5,135.0,0.703
47.34,1,-0.033,0.015,0.0,-0.029,0.017,-0.006,-1.576,-0.005,-0.196,46.05,85.2,40.581501,-3.546505,618.8,3,5,135.0,0.703
47.44,1,0.009,0.006,-0.002,-0.013,0.009,-0.003,-1.578,-0.006,-0.195,47.05,85.0,40.581352,-3.546308,618.4,3,5,134.6,0.703
47.54,1,0.011,-0.01,0.009,0.005,0.003,0.004,-1.578,-0.007,-0.193,47.05,85.0,40.581352,-3.546308,618.4,3,5,134.6,0.703
47.64,1,-0.018,-0.006,0.0,-0.006,-0.003,0.001,-1.575,-0.005,-0.191,47.05,85.0,40.581352,-3.546308,618.4,3,5,134.6,0.703
47.74,1,0.006,0.002,-0.002,-0.007,-0.005,0.0,-1.576,-0.002,-0.19,47.05,85.0,40.581352,-3.546308,618.4,3,5,134.6,0.703
47.85,1,-0.024,0.005,-0.03,-0.009,0.002,-0.014,-1.575,-0.001,-0.188,47.05,85.0,40.581352,-3.546308,618.4,3,5,134.6,0.703
47.94,1,0.035,-0.004,0.002,0.007,0.002,-0.014,-1.574,-0.001,-0.187,47.05,85.0,40.581352,-3.546308,618.4,3,5,134.6,0.703
48.04,1,-0.045,0.002,0.008,-0.008,0.0,-0.002,-1.573,-0.001,-0.185,47.05,85.0,40.581352,-3.546308,618.4,3,5,134.6,0.703
48.14,1,-0.061,-0.003,-0.015,-0.041,-0.001,-0.001,-1.574,-0.001,-0.183,47.05,85.0,40.581352,-3.546308,618.4,3,5,134.6,0.703
48.26,1,-0.012,-0.001,-0.023,-0.035,0.001,-0.014,-1.574,-0.002,-0.182,47.05,85.0,40.581352,-3.546308,618.4,3,5,134.6,0.703
48.35,1,0.005,-0.015,-0.003,-0.009,-0.01,-0.011,-1.576,-0.001,-0.18,47.05,85.0,40.581352,-3.546308,618.4,3,5,134.6,0.703
48.45,1,-0.043,-0.005,-0.011,-0.025,-0.009,-0.01,-1.575,0.0,-0.178,48.05,85.0,40.5812,-3.546118,619.2,3,5,135.4,0.703
48.55,1,-0.006,0.008,-0.001,-0.019,0.004,-0.008,-1.575,-0.001,-0.176,48.05,85.0,40.5812,-3.546118,619.2,3,5,135.4,0.703
48.64,1,-0.0,0.002,-0.019,0.001,0.004,-0.002,-1.572,-0.001,-0.174,48.05,85.0,40.5812,-3.546118,619.2,3,5,135.4,0.703
48.74,1,0.06,-0.046,0.024,0.017,-0.018,-0.001,-1.572,0.003,-0.172,48.05,85.0,40.5812,-3.546118,619.2,3,5,135.4,0.703
48.85,1,-0.068,-0.024,-0.018,-0.007,-0.03,0.0,-1.576,0.008,-0.168,48.05,85.0,40.5812,-3.546118,619.2,3,5,135.4,0.703
48.94,1,-0.074,-0.031,-0.018,-0.053,-0.026,-0.016,-1.576,0.009,-0.165,48.05,85.0,40.5812,-3.546118,619.2,3,5,135.4,0.703
49.05,1,-0.014,-0.023,-0.002,-0.039,-0.03,-0.011,-1.577,0.011,-0.163,48.05,85.0,40.5812,-3.546118,619.2,3,5,135.4,0.703
49.15,1,-0.042,-0.005,0.013,-0.034,-0.021,0.008,-1.578,0.012,-0.16,48.05,85.0,40.5812,-3.546118,619.2,3,5,135.4,0.703
49.24,1,-0.041,0.003,-0.018,-0.039,-0.001,-0.006,-1.576,0.014,-0.158,48.05,85.0,40.5812,-3.546118,619.2,3,5,135.4,0.703
49.34,1,0.022,-0.029,-0.016,-0.014,-0.013,-0.01,-1.576,0.017,-0.155,48.05,85.0,40.5812,-3.546118,619.2,3,5,135.4,0.703
49.45,1,-0.031,-0.015,-0.015,-0.012,-0.019,-0.016,-1.576,0.019,-0.153,49.06,84.6,40.581059,-3.545918,619.1,3,5,135.0,0.352
49.55,1,-0.045,-0.009,-0.019,-0.032,-0.014,-0.018,-1.577,0.019,-0.15,49.06,84.6,40.581059,-3.545918,619.1,3,5,135.0,0.352
49.66,1,-0.011,0.01,-0.018,-0.024,-0.001,-0.017,-1.578,0.02,-0.148,49.06,84.6,40.581059,-3.545918,619.1,3,5,135.0,0.352
49.76,1,-0.025,-0.003,-0.025,-0.025,-0.003,-0.021,-1.576,0.021,-0.145,49.06,84.6,40.581059,-3.545918,619.1,3,5,135.0,0.352
49.85,1,-0.007,0.005,0.021,-0.015,0.003,-0.002,-1.576,0.021,-0.143,49.06,84.6,40.581059,-3.545918,619.1,3,5,135.0,0.352
49.95,1,-0.015,-0.008,0.019,-0.015,-0.002,0.013,-1.577,0.021,-0.14,49.06,84.6,40.581059,-3.545918,619.1,3,5,135.0,0.352
50.05,1,0.008,-0.021,-0.025,-0.007,-0.011,-0.007,-1.576,0.02,-0.138,49.06,84.6,40.581059,-3.545918,619.1,3,5,135.0,0.352
50.15,1,0.033,-0.016,-0.02,0.012,-0.015,-0.011,-1.579,0.022,-0.135,49.06,84.6,40.581059,-3.545918,619.1,3,5,135.0,0.352
50.25,1,-0.006,0.005,-0.001,0.014,-0.006,-0.009,-1.579,0.021,-0.133,49.06,84.6,40.581059,-3.545918,619.1,3,5,135.0,0.352
50.35,1,-0.049,-0.01,-0.022,-0.017,-0.01,-0.015,-1.578,0.023,-0.13,49.06,84.6,40.581059,-3.545918,619.1,3,5,135.0,0.352
50.45,1,-0.031,-0.004,0.001,-0.034,-0.003,-0.008,-1.579,0.026,-0.128,50.04,84.2,40.58091,-3.545717,619.1,3,5,134.3,1.055
50.55,1,-0.042,0.033,-0.018,-0.033,0.013,-0.01,-1.579,0.027,-0.125,50.04,84.2,40.58091,-3.545717,619.1,3,5,134.3,1.055
50.65,1,-0.042,0.012,-0.024,-0.043,0.016,-0.018,-1.582,0.028,-0.123,50.04,84.2,40.58091,-3.545717,619.1,3,5,134.3,1.055
50.76,1,-0.006,-0.005,-0.018,-0.024,0.006,-0.019,-1.582,0.027,-0.121,50.04,84.2,40.58091,-3.545717,619.1,3,5,134.3,1.055
50.85,1,0.012,0.001,0.01,-0.006,0.001,-0.007,-1.579,0.026,-0.119,50.04,84.2,40.58091,-3.545717,619.1,3,5,134.3,1.055
50.95,1,0.009,0.009,-0.016,-0.002,0.007,-0.01,-1.577,0.026,-0.118,50.04,84.2,40.58091,-3.545717,619.1,3,5,134.3,1.055
51.05,1,0.002,0.012,-0.009,0.011,0.007,-0.01,-1.575,0.024,-0.116,50.04,84.2,40.58091,-3.545717,619.1,3,5,134.3,1.055
51.15,1,-0.019,0.026,0.001,-0.001,0.017,-0.007,-1.575,0.023,-0.114,50.04,84.2,40.58091,-3.545717,619.1,3,5,134.3,1.055
51.25,1,-0.013,0.038,0.002,-0.011,0.027,0.0,-1.574,0.021,-0.113,50.04,84.2,40.58091,-3.545717,619.1,3,5,134.3,1.055
51.35,1,0.01,0.013,-0.005,-0.004,0.028,-0.001,-1.575,0.017,-0.112,50.04,84.2,40.58091,-3.545717,619.1,3,5,134.3,1.055
51.46,1,-0.004,0.013,0.021,-0.0,0.016,0.005,-1.574,0.016,-0.111,51.05,84.5,40.580765,-3.545514,619.3,3,5,133.6,1.406
51.55,1,-0.03,0.021,-0.008,-0.016,0.016,0.008,-1.571,0.014,-0.11,51.05,84.5,40.580765,-3.545514,619.3,3,5,133.6,1.406
51.65,1,-0.037,0.011,-0.002,-0.027,0.016,-0.003,-1.568,0.014,-0.108,51.05,84.5,40.580765,-3.545514,619.3,3,5,133.6,1.406
51.75,1,0.017,-0.001,0.027,-0.009,0.004,0.007,-1.566,0.013,-0.107,51.05,84.5,40.580765,-3.545514,619.3,3,5,133.6,1.406
51.86,1,0.019,-0.01,0.018,0.012,0.003,0.018,-1.569,0.015,-0.106,51.05,84.5,40.580765,-3.545514,619.3,3,5,133.6,1.406
51.95,1,-0.042,-0.016,-0.02,-0.007,-0.0,0.005,-1.569,0.019,-0.104,51.05,84.5,40.580765,-3.545514,619.3,3,5,133.6,1.406
52.05,1,-0.022,-0.022,-0.031,-0.031,-0.017,-0.016,-1.572,0.023,-0.102,51.05,84.5,40.580765,-3.545514,619.3,3,5,133.6,1.406
52.16,1,-0.047,0.007,-0.012,-0.035,-0.012,-0.02,-1.571,0.025,-0.1,51.05,84.5,40.580765,-3.545514,619.3,3,5,133.6,1.406
52.26,1,0.052,0.01,-0.001,0.001,-0.001,-0.007,-1.572,0.024,-0.098,51.05,84.5,40.580765,-3.545514,619.3,3,5,133.6,1.406
52.35,1,-0.008,0.018,-0.016,0.01,0.011,-0.011,-1.572,0.022,-0.097,51.05,84.5,40.580765,-3.545514,619.3,3,5,133.6,1.406
52.46,1,-0.027,0.012,-0.013,-0.012,0.014,-0.012,-1.57,0.022,-0.095,52.05,84.5,40.580765,-3.545514,619.3,3,5,133.6,1.406
52.55,1,0.036,0.007,0.024,0.011,0.006,0.004,-1.567,0.02,-0.093,52.05,84.5,40.580765,-3.545514,619.3,3,5,133.6,1.406
52.65,1,-0.006,0.004,-0.016,0.004,0.006,-0.002,-1.569,0.018,-0.092,52.05,84.5,40.580765,-3.545514,619.3,3,5,133.6,1.406
52.76,1,-0.003,0.004,-0.003,0.002,0.003,-0.008,-1.572,0.018,-0.09,52.05,84.5,40.580765,-3.545514,619.3,3,5,133.6,1.406
52.87,1,-0.008,-0.0,-0.015,-0.006,0.004,-0.009,-1.57,0.019,-0.088,52.05,84.5,40.580765,-3.545514,619.3,3,5,133.6,1.406
52.95,1,-0.012,0.006,0.003,-0.009,0.005,-0.0,-1.569,0.019,-0.086,52.05,84.5,40.580765,-3.545514,619.3,3,5,133.6,1.406
53.05,1,-0.036,0.017,-0.014,-0.024,0.011,-0.014,-1.572,0.02,-0.085,52.05,84.5,40.580765,-3.545514,619.3,3,5,133.6,1.406
53.16,1,0.006,-0.005,-0.013,-0.015,0.002,-0.008,-1.573,0.018,-0.083,52.05,84.5,40.580765,-3.545514,619.3,3,5,133.6,1.406
53.26,1,0.018,-0.0,-0.013,0.003,0.003,-0.011,-1.571,0.02,-0.082,52.05,84.5,40.580765,-3.545514,619.3,3,5,133.6,1.406
53.37,1,-0.009,0.021,-0.011,0.003,0.01,-0.016,-1.568,0.019,-0.08,52.05,84.5,40.580765,-3.545514,619.3,3,5,133.6,1.406
53.46,1,-0.025,0.016,-0.007,-0.011,0.011,-0.009,-1.569,0.017,-0.079,53.07,83.3,40.580482,-3.545101,620.4,3,5,132.5,0.703
53.56,1,-0.013,0.004,-0.011,-0.01,0.011,-0.009,-1.568,0.015,-0.078,53.07,83.3,40.580482,-3.545101,620.4,3,5,132.5,0.703
53.66,1,-0.011,0.03,-0.019,-0.018,0.016,-0.012,-1.569,0.014,-0.077,53.07,83.3,40.580482,-3.545101,620.4,3,5,132.5,0.703
53.76,1,-0.026,0.033,0.005,-0.02,0.023,-0.006,-1.571,0.01,-0.076,53.07,83.3,40.580482,-3.545101,620.4,3,5,132.5,0.703
53.86,1,0.007,0.034,0.018,-0.004,0.03,0.003,-1.571,0.009,-0.076,53.07,83.3,40.580482,-3.545101,620.4,3,5,132.5,0.703
53.97,1,-0.006,0.009,-0.004,-0.004,0.024,0.009,-1.571,0.007,-0.075,53.07,83.3,40.580482,-3.545101,620.4,3,5,132.5,0.703
54.07,1,0.008,0.017,-0.012,-0.005,0.019,-0.008,-1.571,0.006,-0.074,53.07,83.3,40.580482,-3.545101,620.4,3,5,132.5,0.703
54.16,1,0.03,0.002,0.021,0.012,0.009,0.005,-1.574,0.005,-0.074,53.07,83.3,40.580482,-3.545101,620.4,3,5,132.5,0.703
54.26,1,-0.066,0.022,-0.042,-0.01,0.015,-0.008,-1.575,0.003,-0.072,53.07,83.3,40.580482,-3.545101,620.4,3,5,132.5,0.703
54.36,1,0.008,-0.006,0.018,-0.015,0.011,-0.013,-1.575,0.003,-0.072,53.07,83.3,40.580482,-3.545101,620.4,3,5,132.5,0.703
54.46,1,-0.063,-0.007,0.024,-0.022,-0.001,0.02,-1.579,0.004,-0.07,54.07,82.8,40.580334,-3.544902,620.8,3,5,132.2,1.406
54.56,1,-0.046,-0.015,-0.017,-0.053,-0.007,-0.001,-1.583,0.006,-0.068,54.07,82.8,40.580334,-3.544902,620.8,3,5,132.2,1.406
54.66,1,0.012,-0.034,0.021,-0.026,-0.022,0.006,-1.584,0.007,-0.066,54.07,82.8,40.580334,-3.544902,620.8,3,5,132.2,1.406
54.76,1,-0.029,-0.006,-0.009,-0.014,-0.016,0.007,-1.581,0.01,-0.064,54.07,82.8,40.580334,-3.544902,620.8,3,5,132.2,1.406
54.86,1,0.001,0.006,-0.018,-0.013,-0.006,-0.012,-1.577,0.013,-0.062,54.07,82.8,40.580334,-3.544902,620.8,3,5,132.2,1.406
54.96,1,0.0,-0.003,-0.001,-0.004,-0.003,-0.009,-1.579,0.014,-0.06,54.07,82.8,40.580334,-3.544902,620.8,3,5,132.2,1.406
55.06,1,-0.021,0.002,-0.008,-0.013,-0.001,-0.002,-1.579,0.016,-0.058,54.07,82.8,40.580334,-3.544902,620.8,3,5,132.2,1.406
55.16,1,-0.017,-0.024,0.0,-0.008,-0.007,-0.007,-1.582,0.018,-0.056,54.07,82.8,40.580334,-3.544902,620.8,3,5,132.2,1.406
55.27,1,0.003,-0.004,0.007,-0.011,-0.01,-0.001,-1.583,0.017,-0.055,54.07,82.8,40.580334,-3.544902,620.8,3,5,132.2,1.406
55.36,1,0.002,0.006,-0.006,-0.001,-0.002,0.003,-1.583,0.017,-0.053,54.07,82.8,40.580334,-3.544902,620.8,3,5,132.2,1.406
55.46,1,-0.002,0.012,-0.009,0.002,0.003,-0.006,-1.581,0.016,-0.052,55.05,82.4,40.5802,-3.544698,621.4,3,5,131.5,1.055
55.56,1,-0.017,-0.001,0.033,-0.02,0.004,0.01,-1.58,0.014,-0.05,55.05,82.4,40.5802,-3.544698,621.4,3,5,131.5,1.055
55.67,1,0.046,-0.003,0.022,0.018,-0.003,0.023,-1.577,0.014,-0.049,55.05,82.4,40.5802,-3.544698,621.4,3,5,131.5,1.055
55.77,1,0.007,0.002,0.016,0.023,0.001,0.013,-1.576,0.015,-0.047,55.05,82.4,40.5802,-3.544698,621.4,3,5,131.5,1.055
55.87,1,-0.017,0.016,-0.012,-0.004,0.007,0.011,-1.573,0.014,-0.046,55.05,82.4,40.5802,-3.544698,621.4,3,5,131.5,1.055
55.96,1,-0.02,0.02,-0.002,-0.008,0.012,-0.0,-1.574,0.013,-0.045,55.05,82.4,40.5802,-3.544698,621.4,3,5,131.5,1.055
56.07,1,-0.028,0.03,0.012,-0.022,0.022,-0.002,-1.574,0.014,-0.044,55.05,82.4,40.5802,-3.544698,621.4,3,5,131.5,1.055
56.16,1,0.003,0.031,-0.024,-0.016,0.03,-0.008,-1.576,0.016,-0.043,55.05,82.4,40.5802,-3.544698,621.4,3,5,131.5,1.055
56.26,1,0.026,0.02,0.014,0.009,0.023,0.001,-1.575,0.015,-0.041,55.05,82.4,40.5802,-3.544698,621.4,3,5,131.5,1.055
56.36,1,-0.009,-0.014,0.009,0.005,0.011,0.004,-1.578,0.014,-0.04,55.05,82.4,40.5802,-3.544698,621.4,3,5,131.5,1.055
56.46,1,-0.016,-0.01,0.013,-0.012,-0.0,0.01,-1.58,0.015,-0.039,56.04,82.9,40.580067,-3.544493,621.8,3,5,130.8,1.055
56.56,1,-0.021,-0.008,-0.006,-0.013,-0.008,0.002,-1.58,0.016,-0.038,56.04,82.9,40.580067,-3.544493,621.8,3,5,130.8,1.055
56.66,1,-0.011,0.004,0.001,-0.013,-0.007,0.001,-1.58,0.01,-0.037,56.04,82.9,40.580067,-3.544493,621.8,3,5,130.8,1.055
56.76,1,-0.003,0.004,-0.041,-0.009,0.001,-0.015,-1.578,0.011,-0.036,56.04,82.9,40.580067,-3.544493,621.8,3,5,130.8,1.055
56.87,1,-0.044,0.004,-0.019,-0.02,0.004,-0.024,-1.575,0.014,-0.035,56.04,82.9,40.580067,-3.544493,621.8,3,5,130.8,1.055
56.97,1,-0.0,-0.003,0.013,-0.024,0.003,-0.008,-1.574,0.016,-0.034,56.04,82.9,40.580067,-3.544493,621.8,3,5,130.8,1.055
57.07,1,0.009,0.002,-0.021,0.002,0.004,-0.005,-1.575,0.014,-0.033,56.04,82.9,40.580067,-3.544493,621.8,3,5,130.8,1.055
57.18,1,-0.018,0.022,-0.025,-0.007,0.006,-0.017,-1.576,0.011,-0.032,56.04,82.9,40.580067,-3.544493,621.8,3,5,130.8,1.055
57.28,1,0.018,0.011,-0.011,0.004,0.011,-0.017,-1.577,0.009,-0.031,56.04,82.9,40.580067,-3.544493,621.8,3,5,130.8,1.055
57.37,1,-0.024,0.014,-0.049,-0.007,0.011,-0.025,-1.573,0.009,-0.031,56.04,82.9,40.580067,-3.544493,621.8,3,5,130.8,1.055
57.47,1,-0.025,0.053,-0.012,-0.02,0.028,-0.027,-1.569,0.008,-0.031,57.05,82.5,40.579933,-3.544287,622.5,3,5,130.4,1.055
57.57,1,-0.043,-0.004,-0.009,-0.025,0.025,-0.016,-1.567,0.007,-0.03,57.05,82.5,40.579933,-3.544287,622.5,3,5,130.4,1.055
57.67,1,-0.002,0.003,-0.009,-0.026,0.011,-0.011,-1.567,0.006,-0.03,57.05,82.5,40.579933,-3.544287,622.5,3,5,130.4,1.055
57.77,1,0.005,0.008,-0.025,0.002,0.002,-0.016,-1.569,0.005,-0.029,57.05,82.5,40.579933,-3.544287,622.5,3,5,130.4,1.055
57.87,1,-0.001,0.032,-0.01,-0.004,0.019,-0.017,-1.565,0.003,-0.029,57.05,82.5,40.579933,-3.544287,622.5,3,5,130.4,1.055
57.97,1,0.006,-0.006,-0.02,-0.002,0.012,-0.016,-1.566,0.001,-0.029,57.05,82.5,40.579933,-3.544287,622.5,3,5,130.4,1.055
58.07,1,-0.031,0.007,-0.045,-0.007,0.004,-0.032,-1.565,-0.004,-0.028,57.05,82.5,40.579933,-3.544287,622.5,3,5,130.4,1.055
58.18,1,-0.004,0.005,-0.001,-0.013,0.005,-0.028,-1.564,-0.005,-0.027,57.05,82.5,40.579933,-3.544287,622.5,3,5,130.4,1.055
58.27,1,-0.002,0.007,-0.027,-0.011,0.005,-0.01,-1.566,-0.006,-0.027,57.05,82.5,40.579933,-3.544287,622.5,3,5,130.4,1.055
58.38,1,0.019,-0.001,-0.019,0.005,0.006,-0.025,-1.563,-0.007,-0.026,57.05,82.5,40.579933,-3.544287,622.5,3,5,130.4,1.055
58.47,1,-0.018,0.001,-0.011,0.011,-0.003,-0.02,-1.561,-0.008,-0.025,58.07,82.0,40.579803,-3.544086,623.4,3,5,129.7,1.055
58.57,1,-0.031,0.01,-0.014,-0.02,0.009,-0.011,-1.56,-0.007,-0.024,58.07,82.0,40.579803,-3.544086,623.4,3,5,129.7,1.055
58.67,1,-0.002,-0.023,-0.005,-0.023,0.002,-0.01,-1.558,-0.006,-0.023,58.07,82.0,40.579803,-3.544086,623.4,3,5,129.7,1.055
58.77,1,-0.033,-0.009,-0.036,-0.01,-0.017,-0.02,-1.56,-0.002,-0.022,58.07,82.0,40.579803,-3.544086,623.4,3,5,129.7,1.055
58.87,1,0.055,-0.005,-0.011,0.004,-0.005,-0.018,-1.56,-0.003,-0.021,58.07,82.0,40.579803,-3.544086,623.4,3,5,129.7,1.055
58.97,1,-0.021,-0.016,-0.025,0.009,-0.012,-0.017,-1.555,-0.002,-0.02,58.07,82.0,40.579803,-3.544086,623.4,3,5,129.7,1.055
59.07,1,-0.039,-0.023,-0.006,-0.022,-0.015,-0.021,-1.554,0.001,-0.019,58.07,82.0,40.579803,-3.544086,623.4,3,5,129.7,1.055
59.17,1,-0.018,-0.008,-0.027,-0.023,-0.018,-0.013,-1.552,0.002,-0.018,58.07,82.0,40.579803,-3.544086,623.4,3,5,129.7,1.055
59.27,1,-0.061,0.016,-0.023,-0.036,-0.0,-0.026,-1.55,0.004,-0.017,58.07,82.0,40.579803,-3.544086,623.4,3,5,129.7,1.055
59.37,1,0.018,-0.006,-0.024,-0.026,-0.001,-0.021,-1.551,0.007,-0.016,58.07,82.0,40.579803,-3.544086,623.4,3,5,129.7,1.055
59.47,1,0.036,0.003,0.004,0.015,-0.001,-0.012,-1.554,0.007,-0.015,59.05,82.0,40.579803,-3.544086,623.4,3,5,129.7,1.055
59.58,1,0.005,0.002,-0.016,0.015,0.004,-0.008,-1.553,0.008,-0.014,59.05,82.0,40.579803,-3.544086,623.4,3,5,129.7,1.055
59.68,1,0.001,0.014,-0.013,0.008,0.006,-0.011,-1.548,0.007,-0.013,59.05,82.0,40.579803,-3.544086,623.4,3,5,129.7,1.055
59.77,1,-0.01,-0.02,-0.038,-0.003,-0.002,-0.025,-1.549,0.008,-0.012,59.05,82.0,40.579803,-3.544086,623.4,3,5,129.7,1.055
59.87,1,0.026,-0.018,0.013,0.009,-0.01,-0.016,-1.547,0.008,-0.012,59.05,82.0,40.579803,-3.544086,623.4,3,5,129.7,1.055
59.97,1,0.012,-0.001,-0.014,0.031,-0.016,-0.004,-1.552,0.008,-0.011,59.05,82.0,40.579803,-3.544086,623.4,3,5,129.7,1.055
60.07,1,-0.045,0.017,-0.016,-0.025,0.007,-0.013,-1.55,0.007,-0.01,59.05,82.0,40.579803,-3.544086,623.4,3,5,129.7,1.055
60.17,1,0.006,0.005,0.004,-0.018,0.01,-0.008,-1.551,0.009,-0.009,59.05,82.0,40.579803,-3.544086,623.4,3,5,129.7,1.055
60.27,1,0.012,-0.009,-0.005,0.01,-0.004,0.0,-1.551,0.008,-0.008,59.05,82.0,40.579803,-3.544086,623.4,3,5,129.7,1.055
60.38,1,-0.027,-0.003,-0.001,-0.008,-0.002,-0.005,-1.548,0.009,-0.007,59.05,82.0,40.579803,-3.544086,623.4,3,5,129.7,1.055
60.47,1,0.025,0.001,0.003,-0.003,-0.003,-0.003,-1.546,0.009,-0.007,60.06,79.5,40.579556,-3.543676,624.1,3,5,128.7,1.055
60.57,1,-0.031,0.01,-0.023,-0.002,0.004,-0.004,-1.544,0.009,-0.007,60.06,79.5,40.579556,-3.543676,624.1,3,5,128.7,1.055
60.67,1,-0.015,0.004,0.001,-0.022,0.006,-0.01,-1.542,0.01,-0.006,60.06,79.5,40.579556,-3.543676,624.1,3,5,128.7,1.055
60.78,1,-0.002,-0.001,-0.028,-0.007,0.005,-0.014,-1.543,0.009,-0.006,60.06,79.5,40.579556,-3.543676,624.1,3,5,128.7,1.055
60.88,1,0.01,0.039,-0.017,0.01,0.017,-0.019,-1.543,0.005,-0.006,60.06,79.5,40.579556,-3.543676,624.1,3,5,128.7,1.055
60.98,1,-0.035,0.033,-0.035,-0.011,0.025,-0.02,-1.539,0.005,-0.006,60.06,79.5,40.579556,-3.543676,624.1,3,5,128.7,1.055
61.08,1,0.013,-0.01,-0.015,-0.013,0.015,-0.025,-1.536,0.005,-0.006,60.06,79.5,40.579556,-3.543676,624.1,3,5,128.7,1.055
61.18,1,0.001,-0.001,0.003,0.001,0.0,-0.014,-1.536,0.006,-0.006,60.06,79.5,40.579556,-3.543676,624.1,3,5,128.7,1.055
61.28,1,-0.064,0.007,-0.012,-0.026,0.002,-0.008,-1.536,0.008,-0.006,60.06,79.5,40.579556,-3.543676,624.1,3,5,128.7,1.055
61.38,1,0.032,-0.001,0.014,-0.025,0.004,-0.002,-1.537,0.009,-0.005,60.06,79.5,40.579556,-3.543676,624.1,3,5,128.7,1.055
61.48,1,0.019,0.004,-0.002,0.025,0.001,0.006,-1.537,0.009,-0.005,61.07,78.7,40.57943,-3.543478,625.3,3,5,128.7,1.055
61.58,1,0.01,0.002,0.007,0.02,0.003,0.005,-1.54,0.009,-0.004,61.07,78.7,40.57943,-3.543478,625.3,3,5,128.7,1.055
61.68,1,0.016,-0.012,-0.014,0.009,-0.001,-0.005,-1.541,0.009,-0.004,61.07,78.7,40.57943,-3.543478,625.3,3,5,128.7,1.055
61.78,1,-0.01,0.007,-0.004,-0.001,-0.002,-0.004,-1.544,0.008,-0.003,61.07,78.7,40.57943,-3.543478,625.3,3,5,128.7,1.055
61.88,1,-0.007,0.002,-0.02,-0.005,0.001,-0.017,-1.545,0.007,-0.003,61.07,78.7,40.57943,-3.543478,625.3,3,5,128.7,1.055
61.98,1,0.041,-0.011,-0.006,0.013,-0.004,-0.009,-1.54,0.007,-0.002,61.07,78.7,40.57943,-3.543478,625.3,3,5,128.7,1.055
62.08,1,0.002,0.034,-0.029,0.016,0.01,-0.013,-1.54,0.008,-0.002,61.07,78.7,40.57943,-3.543478,625.3,3,5,128.7,1.055
62.28,1,-0.017,-0.01,-0.036,-0.015,0.003,-0.035,-1.542,0.006,-0.002,61.07,78.7,40.57943,-3.543478,625.3,3,5,128.7,1.055
62.38,1,-0.062,-0.003,-0.029,-0.032,-0.007,-0.031,-1.543,0.007,-0.001,61.07,78.7,40.57943,-3.543478,625.3,3,5,128.7,1.055
62.49,1,-0.061,-0.007,0.004,-0.055,-0.004,-0.018,-1.542,0.004,-0.001,61.07,78.7,40.57943,-3.543478,625.3,3,5,128.7,1.055
62.58,1,0.007,-0.022,0.011,-0.032,-0.009,-0.003,-1.542,0.004,0.0,62.15,78.7,40.57943,-3.543478,625.3,3,5,128.7,1.055
62.69,1,-0.0,-0.013,-0.022,-0.009,-0.017,-0.007,-1.544,0.006,0.001,62.15,78.7,40.57943,-3.543478,625.3,3,5,128.7,1.055
62.79,1,0.007,-0.006,0.015,0.005,-0.012,-0.0,-1.543,0.009,0.003,62.15,78.7,40.57943,-3.543478,625.3,3,5,128.7,1.055
62.88,1,-0.014,-0.02,-0.013,-0.005,-0.016,0.001,-1.543,0.011,0.004,62.15,78.7,40.57943,-3.543478,625.3,3,5,128.7,1.055
62.98,1,-0.011,-0.038,-0.016,-0.01,-0.027,-0.016,-1.544,0.015,0.006,62.15,78.7,40.57943,-3.543478,625.3,3,5,128.7,1.055
63.09,1,0.038,-0.008,-0.005,0.007,-0.02,-0.012,-1.543,0.016,0.007,62.15,78.7,40.57943,-3.543478,625.3,3,5,128.7,1.055
63.19,1,0.002,-0.02,-0.018,0.017,-0.018,-0.008,-1.542,0.017,0.009,62.15,78.7,40.57943,-3.543478,625.3,3,5,128.7,1.055
63.28,1,-0.011,-0.008,-0.009,-0.002,-0.012,-0.012,-1.542,0.02,0.011,62.15,78.7,40.57943,-3.543478,625.3,3,5,128.7,1.055
63.38,1,0.004,-0.006,0.007,0.005,-0.006,-0.002,-1.543,0.022,0.013,62.15,78.7,40.57943,-3.543478,625.3,3,5,128.7,1.055
63.48,1,-0.059,-0.013,0.001,-0.025,-0.015,-0.0,-1.546,0.023,0.015,62.15,78.7,40.57943,-3.543478,625.3,3,5,128.7,1.055
63.58,1,-0.0,-0.027,0.051,-0.023,-0.016,0.02,-1.549,0.021,0.017,63.08,75.3,40.579193,-3.543087,623.9,3,5,126.9,1.758
63.68,1,-0.04,0.02,0.032,-0.027,-0.006,0.027,-1.552,0.021,0.018,63.08,75.3,40.579193,-3.543087,623.9,3,5,126.9,1.758
63.79,1,-0.026,-0.009,0.021,-0.029,0.001,0.031,-1.553,0.02,0.019,63.08,75.3,40.579193,-3.543087,623.9,3,5,126.9,1.758
63.88,1,-0.002,0.012,0.028,-0.019,0.006,0.028,-1.554,0.021,0.02,63.08,75.3,40.579193,-3.543087,623.9,3,5,126.9,1.758
63.99,1,-0.006,0.005,0.035,-0.005,0.005,0.028,-1.556,0.019,0.021,63.08,75.3,40.579193,-3.543087,623.9,3,5,126.9,1.758
64.08,1,-0.041,0.014,0.012,-0.025,0.008,0.029,-1.556,0.019,0.022,63.08,75.3,40.579193,-3.543087,623.9,3,5,126.9,1.758
64.18,1,-0.01,-0.007,0.023,-0.021,-0.002,0.023,-1.559,0.019,0.022,63.08,75.3,40.579193,-3.543087,623.9,3,5,126.9,1.758
64.28,1,-0.018,0.017,0.002,-0.023,0.009,0.013,-1.566,0.018,0.023,63.08,75.3,40.579193,-3.543087,623.9,3,5,126.9,1.758
64.38,1,0.039,0.023,0.005,0.011,0.011,0.007,-1.57,0.016,0.023,63.08,75.3,40.579193,-3.543087,623.9,3,5,126.9,1.758
64.48,1,-0.033,0.014,-0.01,-0.002,0.02,-0.004,-1.57,0.018,0.024,63.08,75.3,40.579193,-3.543087,623.9,3,5,126.9,1.758
64.59,1,0.007,0.019,0.024,-0.01,0.021,0.004,-1.569,0.017,0.023,64.04,74.8,40.579086,-3.542885,624.1,3,5,125.9,1.758
64.69,1,-0.004,0.017,0.017,-0.002,0.017,0.018,-1.569,0.014,0.023,64.04,74.8,40.579086,-3.542885,624.1,3,5,125.9,1.758
64.78,1,0.001,0.028,0.001,0.003,0.014,0.009,-1.568,0.015,0.023,64.04,74.8,40.579086,-3.542885,624.1,3,5,125.9,1.758
64.89,1,-0.0,0.012,0.017,0.001,0.021,0.013,-1.569,0.013,0.023,64.04,74.8,40.579086,-3.542885,624.1,3,5,125.9,1.758
64.99,1,-0.022,0.035,0.013,-0.006,0.026,0.016,-1.572,0.009,0.022,64.04,74.8,40.579086,-3.542885,624.1,3,5,125.9,1.758
65.09,1,-0.029,0.02,0.009,-0.022,0.028,0.01,-1.575,0.007,0.022,64.04,74.8,40.579086,-3.542885,624.1,3,5,125.9,1.758
65.19,1,0.014,0.007,-0.002,-0.009,0.018,0.002,-1.575,0.006,0.021,64.04,74.8,40.579086,-3.542885,624.1,3,5,125.9,1.758
65.29,1,0.0,0.014,0.013,0.002,0.011,0.007,-1.576,0.004,0.02,64.04,74.8,40.579086,-3.542885,624.1,3,5,125.9,1.758
65.39,1,-0.031,0.022,-0.002,-0.013,0.015,0.008,-1.577,0.001,0.02,64.04,74.8,40.579086,-3.542885,624.1,3,5,125.9,1.758
65.49,1,-0.015,0.019,0.036,-0.022,0.017,0.013,-1.579,-0.003,0.019,64.04,74.8,40.579086,-3.542885,624.1,3,5,125.9,1.758
65.59,1,0.007,0.006,0.025,-0.01,0.013,0.023,-1.583,-0.002,0.019,65.06,75.0,40.578976,-3.54269,624.0,3,5,125.2,1.758
65.69,1,-0.004,-0.01,-0.001,0.002,0.006,0.014,-1.585,-0.0,0.019,65.06,75.0,40.578976,-3.54269,624.0,3,5,125.2,1.758
65.79,1,0.002,0.014,-0.023,0.0,0.008,0.001,-1.581,0.001,0.02,65.06,75.0,40.578976,-3.54269,624.0,3,5,125.2,1.758
65.89,1,-0.005,-0.005,-0.067,0.002,0.002,-0.034,-1.576,0.002,0.02,65.06,75.0,40.578976,-3.54269,624.0,3,5,125.2,1.758
65.99,1,-0.037,0.007,-0.06,-0.014,0.002,-0.053,-1.574,0.0,0.02,65.06,75.0,40.578976,-3.54269,624.0,3,5,125.2,1.758
66.09,1,0.015,-0.02,-0.019,-0.013,-0.004,-0.043,-1.571,0.001,0.02,65.06,75.0,40.578976,-3.54269,624.0,3,5,125.2,1.758
66.19,1,-0.032,0.001,-0.028,-0.012,-0.003,-0.029,-1.569,0.002,0.02,65.06,75.0,40.578976,-3.54269,624.0,3,5,125.2,1.758
66.29,1,-0.005,-0.005,-0.019,-0.014,-0.007,-0.025,-1.568,0.002,0.02,65.06,75.0,40.578976,-3.54269,624.0,3,5,125.2,1.758
66.39,1,0.023,-0.023,-0.009,0.006,-0.013,-0.016,-1.567,0.002,0.021,65.06,75.0,40.578976,-3.54269,624.0,3,5,125.2,1.758
66.49,1,-0.008,0.012,-0.032,0.001,-0.006,-0.022,-1.564,0.003,0.021,65.06,75.0,40.578976,-3.54269,624.0,3,5,125.2,1.758
66.59,1,-0.042,0.014,0.036,-0.024,0.005,-0.006,-1.56,0.0,0.021,66.12,75.9,40.578876,-3.542491,624.2,3,5,124.8,1.055
66.69,1,-0.002,0.006,0.038,-0.017,0.009,0.025,-1.56,-0.001,0.021,66.12,75.9,40.578876,-3.542491,624.2,3,5,124.8,1.055
66.79,1,-0.001,0.001,0.041,-0.006,0.005,0.037,-1.561,-0.001,0.021,66.12,75.9,40.578876,-3.542491,624.2,3,5,124.8,1.055
66.89,1,-0.023,0.0,0.061,-0.012,0.003,0.044,-1.566,-0.002,0.021,66.12,75.9,40.578876,-3.542491,624.2,3,5,124.8,1.055
66.99,1,-0.034,0.0,0.052,-0.018,0.003,0.054,-1.571,-0.004,0.021,66.12,75.9,40.578876,-3.542491,624.2,3,5,124.8,1.055
67.09,1,-0.009,-0.012,0.038,-0.024,-0.004,0.044,-1.572,-0.003,0.022,66.12,75.9,40.578876,-3.542491,624.2,3,5,124.8,1.055
67.19,1,0.023,0.007,0.071,-0.001,0.002,0.057,-1.575,-0.002,0.022,66.12,75.9,40.578876,-3.542491,624.2,3,5,124.8,1.055
67.29,1,-0.028,0.012,0.042,-0.004,0.004,0.047,-1.575,-0.001,0.021,66.12,75.9,40.578876,-3.542491,624.2,3,5,124.8,1.055
67.4,1,-0.01,0.005,0.023,-0.011,0.005,0.034,-1.574,0.002,0.021,66.12,75.9,40.578876,-3.542491,624.2,3,5,124.8,1.055
67.49,1,-0.021,0.006,0.041,-0.023,0.013,0.044,-1.573,0.002,0.021,66.12,75.9,40.578876,-3.542491,624.2,3,5,124.8,1.055
67.59,1,-0.021,0.01,0.051,-0.014,0.007,0.047,-1.574,0.003,0.022,67.06,74.7,40.578758,-3.542277,623.9,3,5,124.5,0.703
67.7,1,-0.017,-0.016,0.039,-0.02,-0.008,0.039,-1.575,0.003,0.022,67.06,74.7,40.578758,-3.542277,623.9,3,5,124.5,0.703
67.79,1,-0.005,-0.007,0.048,-0.014,-0.004,0.045,-1.581,0.003,0.023,67.06,74.7,40.578758,-3.542277,623.9,3,5,124.5,0.703
67.89,1,0.0,0.001,0.033,-0.008,-0.006,0.043,-1.587,0.004,0.023,67.06,74.7,40.578758,-3.542277,623.9,3,5,124.5,0.703
67.99,1,-0.014,0.009,0.027,0.0,-0.002,0.03,-1.59,0.005,0.023,67.06,74.7,40.578758,-3.542277,623.9,3,5,124.5,0.703
68.1,1,-0.012,-0.0,0.052,-0.013,0.006,0.041,-1.588,0.01,0.024,67.06,74.7,40.578758,-3.542277,623.9,3,5,124.5,0.703
68.2,1,-0.039,-0.016,0.023,-0.02,-0.003,0.039,-1.588,0.01,0.025,67.06,74.7,40.578758,-3.542277,623.9,3,5,124.5,0.703
68.3,1,0.028,-0.006,0.054,-0.017,-0.006,0.037,-1.591,0.01,0.025,67.06,74.7,40.578758,-3.542277,623.9,3,5,124.5,0.703
68.39,1,0.018,-0.007,0.048,0.014,-0.01,0.041,-1.594,0.012,0.025,67.06,74.7,40.578758,-3.542277,623.9,3,5,124.5,0.703
68.49,1,-0.022,0.013,0.017,0.003,0.004,0.04,-1.598,0.014,0.025,67.06,74.7,40.578758,-3.542277,623.9,3,5,124.5,0.703
68.59,1,-0.017,0.008,0.048,-0.015,0.011,0.041,-1.599,0.014,0.025,68.06,76.4,40.578655,-3.542072,624.3,3,5,124.1,0.703
68.7,1,-0.012,0.034,0.064,-0.012,0.015,0.047,-1.599,0.014,0.025,68.06,76.4,40.578655,-3.542072,624.3,3,5,124.1,0.703
68.8,1,-0.047,0.026,0.029,-0.029,0.023,0.045,-1.6,0.013,0.025,68.06,76.4,40.578655,-3.542072,624.3,3,5,124.1,0.703
68.9,1,-0.034,-0.003,0.04,-0.03,0.013,0.039,-1.605,0.013,0.025,68.06,76.4,40.578655,-3.542072,624.3,3,5,124.1,0.703
69.0,1,-0.005,0.034,0.068,-0.014,0.02,0.047,-1.611,0.014,0.025,68.06,76.4,40.578655,-3.542072,624.3,3,5,124.1,0.703
69.1,1,-0.029,-0.009,0.045,-0.024,0.009,0.056,-1.612,0.014,0.025,68.06,76.4,40.578655,-3.542072,624.3,3,5,124.1,0.703
69.2,1,0.042,0.002,0.03,0.005,0.001,0.042,-1.612,0.014,0.025,68.06,76.4,40.578655,-3.542072,624.3,3,5,124.1,0.703
69.3,1,-0.012,0.012,0.022,-0.0,0.01,0.039,-1.618,0.012,0.025,68.06,76.4,40.578655,-3.542072,624.3,3,5,124.1,0.703
69.4,1,0.017,0.016,0.02,0.009,0.007,0.021,-1.622,0.008,0.024,68.06,76.4,40.578655,-3.542072,624.3,3,5,124.1,0.703
69.5,1,-0.027,0.029,0.017,-0.01,0.023,0.019,-1.623,0.005,0.024,68.06,76.4,40.578655,-3.542072,624.3,3,5,124.1,0.703
69.6,1,-0.011,0.005,-0.029,-0.013,0.017,-0.0,-1.623,0.002,0.024,69.06,78.3,40.578545,-3.541854,625.5,3,5,123.0,1.406
69.7,1,0.013,0.002,-0.005,0.002,0.003,-0.009,-1.621,0.005,0.024,69.06,78.3,40.578545,-3.541854,625.5,3,5,123.0,1.406
69.8,1,-0.068,0.025,-0.033,-0.028,0.016,-0.018,-1.619,0.006,0.023,69.06,78.3,40.578545,-3.541854,625.5,3,5,123.0,1.406
69.9,1,0.021,0.009,0.003,-0.015,0.02,-0.014,-1.617,0.005,0.023,69.06,78.3,40.578545,-3.541854,625.5,3,5,123.0,1.406
70.0,1,-0.021,0.01,-0.003,-0.008,0.013,-0.001,-1.615,0.008,0.023,69.06,78.3,40.578545,-3.541854,625.5,3,5,123.0,1.406
70.1,1,-0.08,0.036,-0.016,-0.037,0.02,-0.013,-1.613,0.012,0.023,69.06,78.3,40.578545,-3.541854,625.5,3,5,123.0,1.406
70.2,1,0.015,0.005,0.015,-0.033,0.019,-0.004,-1.613,0.013,0.023,69.06,78.3,40.578545,-3.541854,625.5,3,5,123.0,1.406
70.3,1,0.02,-0.005,0.019,-0.002,0.004,0.011,-1.615,0.014,0.024,69.06,78.3,40.578545,-3.541854,625.5,3,5,123.0,1.406
70.4,1,-0.024,-0.001,0.004,-0.002,-0.0,0.012,-1.616,0.014,0.024,69.06,78.3,40.578545,-3.541854,625.5,3,5,123.0,1.406
70.5,1,-0.02,-0.005,0.007,-0.019,-0.005,0.003,-1.615,0.015,0.025,69.06,78.3,40.578545,-3.541854,625.5,3,5,123.0,1.406
70.6,1,-0.014,0.004,-0.012,-0.013,0.001,0.003,-1.613,0.012,0.025,70.06,80.3,40.578434,-3.541628,625.5,3,5,123.0,1.055
70.7,1,-0.022,0.019,-0.023,-0.014,0.006,-0.014,-1.614,0.01,0.025,70.06,80.3,40.578434,-3.541628,625.5,3,5,123.0,1.055
70.8,1,-0.015,-0.009,0.017,-0.016,0.001,0.0,-1.613,0.01,0.025,70.06,80.3,40.578434,-3.541628,625.5,3,5,123.0,1.055
70.91,1,-0.039,0.015,0.007,-0.03,0.008,0.008,-1.616,0.01,0.025,70.06,80.3,40.578434,-3.541628,625.5,3,5,123.0,1.055
71.0,1,0.013,-0.018,-0.007,-0.02,0.001,-0.001,-1.618,0.011,0.026,70.06,80.3,40.578434,-3.541628,625.5,3,5,123.0,1.055
71.1,1,0.016,-0.045,0.011,0.011,-0.024,0.005,-1.616,0.015,0.026,70.06,80.3,40.578434,-3.541628,625.5,3,5,123.0,1.055
71.22,1,0.009,-0.003,0.006,0.007,-0.02,0.003,-1.617,0.018,0.027,70.06,80.3,40.578434,-3.541628,625.5,3,5,123.0,1.055
71.3,1,-0.057,0.004,-0.013,-0.013,-0.007,-0.003,-1.619,0.021,0.028,70.06,80.3,40.578434,-3.541628,625.5,3,5,123.0,1.055
71.4,1,-0.02,0.031,0.01,-0.031,0.013,-0.001,-1.62,0.022,0.029,70.06,80.3,40.578434,-3.541628,625.5,3,5,123.0,1.055
71.5,1,0.082,-0.008,-0.001,0.018,0.015,0.002,-1.619,0.025,0.029,70.06,80.3,40.578434,-3.541628,625.5,3,5,123.0,1.055
71.6,1,0.026,-0.019,0.039,0.044,-0.011,0.018,-1.616,0.024,0.03,71.08,80.3,40.578434,-3.541628,625.5,3,5,123.0,1.055
71.71,1,-0.037,0.014,-0.032,0.002,-0.006,0.003,-1.617,0.023,0.031,71.08,80.3,40.578434,-3.541628,625.5,3,5,123.0,1.055
71.8,1,-0.039,0.009,-0.007,-0.03,0.006,-0.009,-1.619,0.023,0.032,71.08,80.3,40.578434,-3.541628,625.5,3,5,123.0,1.055
71.9,1,0.018,-0.006,-0.015,-0.01,0.004,-0.012,-1.618,0.019,0.032,71.08,80.3,40.578434,-3.541628,625.5,3,5,123.0,1.055
72.0,1,-0.012,0.007,-0.031,0.001,0.001,-0.02,-1.617,0.021,0.033,71.08,80.3,40.578434,-3.541628,625.5,3,5,123.0,1.055
72.1,1,-0.015,0.01,-0.008,-0.01,0.004,-0.018,-1.612,0.023,0.034,71.08,80.3,40.578434,-3.541628,625.5,3,5,123.0,1.055
72.3,1,-0.027,0.011,-0.027,-0.009,0.013,-0.017,-1.607,0.022,0.035,71.08,80.3,40.578434,-3.541628,625.5,3,5,123.0,1.055
72.4,1,-0.005,-0.004,-0.017,-0.014,0.006,-0.022,-1.605,0.022,0.036,71.08,80.3,40.578434,-3.541628,625.5,3,5,123.0,1.055
72.51,1,0.004,0.005,-0.014,-0.004,0.005,-0.015,-1.603,0.02,0.036,71.08,80.3,40.578434,-3.541628,625.5,3,5,123.0,1.055
72.61,1,0.052,0.004,0.012,0.026,0.003,-0.003,-1.6,0.017,0.036,71.08,80.3,40.578434,-3.541628,625.5,3,5,123.0,1.055
72.71,1,-0.003,0.008,-0.015,0.016,0.005,-0.005,-1.596,0.016,0.037,72.13,84.1,40.578197,-3.541167,627.2,3,5,122.3,0.703
72.81,1,-0.052,0.015,-0.024,-0.014,0.007,-0.015,-1.593,0.015,0.037,72.13,84.1,40.578197,-3.541167,627.2,3,5,122.3,0.703
72.91,1,0.002,0.011,-0.006,-0.015,0.011,-0.016,-1.591,0.015,0.036,72.13,84.1,40.578197,-3.541167,627.2,3,5,122.3,0.703
73.01,1,0.012,0.028,-0.015,-0.003,0.018,-0.012,-1.589,0.013,0.036,72.13,84.1,40.578197,-3.541167,627.2,3,5,122.3,0.703
73.11,1,-0.025,0.021,-0.017,-0.013,0.027,-0.011,-1.586,0.011,0.035,72.13,84.1,40.578197,-3.541167,627.2,3,5,122.3,0.703
73.21,1,-0.057,0.041,-0.016,-0.028,0.029,-0.017,-1.583,0.011,0.034,72.13,84.1,40.578197,-3.541167,627.2,3,5,122.3,0.703
73.31,1,0.021,0.021,0.013,-0.018,0.028,-0.002,-1.584,0.009,0.032,72.13,84.1,40.578197,-3.541167,627.2,3,5,122.3,0.703
73.41,1,-0.008,0.042,0.008,0.006,0.031,0.006,-1.581,0.007,0.031,72.13,84.1,40.578197,-3.541167,627.2,3,5,122.3,0.703
73.51,1,0.009,0.038,-0.014,-0.002,0.036,-0.007,-1.578,0.006,0.03,72.13,84.1,40.578197,-3.541167,627.2,3,5,122.3,0.703
73.61,1,-0.018,0.031,0.017,-0.006,0.034,0.002,-1.58,0.004,0.029,72.13,84.1,40.578197,-3.541167,627.2,3,5,122.3,0.703
73.71,1,0.035,0.002,0.031,0.002,0.02,0.014,-1.579,0.002,0.028,73.1,83.3,40.578094,-3.540931,627.0,3,5,120.2,2.109
73.81,1,-0.025,0.047,-0.014,0.002,0.029,0.014,-1.58,0.002,0.027,73.1,83.3,40.578094,-3.540931,627.0,3,5,120.2,2.109
73.91,1,0.021,0.023,-0.012,0.001,0.033,-0.006,-1.579,0.004,0.027,73.1,83.3,40.578094,-3.540931,627.0,3,5,120.2,2.109
74.01,1,-0.005,0.006,0.012,0.006,0.018,0.006,-1.578,0.005,0.026,73.1,83.3,40.578094,-3.540931,627.0,3,5,120.2,2.109
74.11,1,-0.007,0.047,-0.027,0.001,0.028,-0.014,-1.578,0.006,0.025,73.1,83.3,40.578094,-3.540931,627.0,3,5,120.2,2.109
74.21,1,0.02,-0.001,-0.019,-0.005,0.016,-0.015,-1.578,0.007,0.025,73.1,83.3,40.578094,-3.540931,627.0,3,5,120.2,2.109
74.32,1,0.031,-0.023,-0.007,0.025,-0.003,-0.01,-1.577,0.008,0.025,73.1,83.3,40.578094,-3.540931,627.0,3,5,120.2,2.109
74.41,1,-0.02,-0.002,-0.001,0.01,-0.005,-0.014,-1.573,0.007,0.025,73.1,83.3,40.578094,-3.540931,627.0,3,5,120.2,2.109
74.52,1,-0.055,-0.014,-0.009,-0.03,-0.006,-0.004,-1.574,0.005,0.025,73.1,83.3,40.578094,-3.540931,627.0,3,5,120.2,2.109
74.61,1,-0.004,-0.03,-0.004,-0.027,-0.02,-0.007,-1.573,0.005,0.026,73.1,83.3,40.578094,-3.540931,627.0,3,5,120.2,2.109
74.71,1,0.026,-0.028,0.004,0.009,-0.027,0.002,-1.573,0.008,0.027,74.11,84.2,40.577995,-3.540694,627.3,3,5,120.2,2.109
74.82,1,-0.016,-0.023,0.002,-0.008,-0.025,-0.001,-1.572,0.011,0.028,74.11,84.2,40.577995,-3.540694,627.3,3,5,120.2,2.109
74.91,1,-0.032,-0.038,0.004,-0.017,-0.025,-0.0,-1.571,0.012,0.029,74.11,84.2,40.577995,-3.540694,627.3,3,5,120.2,2.109
75.01,1,-0.022,0.009,-0.011,-0.022,-0.013,-0.0,-1.567,0.009,0.03,74.11,84.2,40.577995,-3.540694,627.3,3,5,120.2,2.109
75.12,1,-0.031,0.004,0.026,-0.018,-0.007,0.004,-1.566,0.012,0.031,74.11,84.2,40.577995,-3.540694,627.3,3,5,120.2,2.109
75.22,1,-0.019,-0.014,-0.004,-0.024,-0.006,0.013,-1.568,0.019,0.033,74.11,84.2,40.577995,-3.540694,627.3,3,5,120.2,2.109
75.31,1,-0.019,-0.021,0.005,-0.025,-0.013,0.003,-1.568,0.025,0.034,74.11,84.2,40.577995,-3.540694,627.3,3,5,120.2,2.109
75.41,1,0.032,-0.027,-0.009,0.002,-0.019,0.001,-1.565,0.027,0.036,74.11,84.2,40.577995,-3.540694,627.3,3,5,120.2,2.109
75.51,1,-0.015,-0.012,-0.017,0.006,-0.021,-0.01,-1.566,0.029,0.037,74.11,84.2,40.577995,-3.540694,627.3,3,5,120.2,2.109
75.61,1,-0.019,-0.007,-0.02,-0.02,-0.014,-0.017,-1.566,0.031,0.038,74.11,84.2,40.577995,-3.540694,627.3,3,5,120.2,2.109
75.71,1,0.015,0.023,0.008,-0.005,-0.0,-0.01,-1.567,0.028,0.039,75.05,83.7,40.577892,-3.540459,627.2,3,5,119.5,2.109
75.81,1,-0.025,0.014,-0.014,-0.0,0.013,-0.001,-1.569,0.024,0.04,75.05,83.7,40.577892,-3.540459,627.2,3,5,119.5,2.109
75.91,1,-0.029,0.005,-0.009,-0.018,0.014,-0.013,-1.572,0.024,0.041,75.05,83.7,40.577892,-3.540459,627.2,3,5,119.5,2.109
76.01,1,0.026,0.035,0.016,-0.007,0.02,0.002,-1.572,0.025,0.042,75.05,83.7,40.577892,-3.540459,627.2,3,5,119.5,2.109
76.11,1,-0.031,0.008,-0.028,-0.002,0.016,-0.008,-1.571,0.028,0.042,75.05,83.7,40.577892,-3.540459,627.2,3,5,119.5,2.109
76.22,1,-0.015,0.003,-0.03,-0.019,0.008,-0.022,-1.569,0.027,0.043,75.05,83.7,40.577892,-3.540459,627.2,3,5,119.5,2.109
76.32,1,-0.014,0.004,-0.027,-0.026,0.008,-0.031,-1.568,0.025,0.043,75.05,83.7,40.577892,-3.540459,627.2,3,5,119.5,2.109
76.42,1,-0.008,0.009,0.008,-0.001,0.006,-0.008,-1.566,0.024,0.043,75.05,83.7,40.577892,-3.540459,627.2,3,5,119.5,2.109
76.52,1,-0.023,0.019,-0.015,-0.02,0.011,-0.007,-1.564,0.024,0.043,75.05,83.7,40.577892,-3.540459,627.2,3,5,119.5,2.109
76.62,1,-0.006,0.04,-0.021,-0.011,0.019,-0.013,-1.563,0.022,0.042,75.05,83.7,40.577892,-3.540459,627.2,3,5,119.5,2.109
76.72,1,-0.008,0.022,0.011,-0.013,0.029,-0.008,-1.565,0.02,0.043,76.13,83.0,40.577789,-3.540225,627.5,3,5,118.8,1.406
76.82,1,-0.011,0.013,0.003,-0.012,0.026,0.001,-1.565,0.016,0.043,76.13,83.0,40.577789,-3.540225,627.5,3,5,118.8,1.406
76.92,1,-0.005,-0.003,0.01,-0.001,0.007,0.007,-1.565,0.014,0.043,76.13,83.0,40.577789,-3.540225,627.5,3,5,118.8,1.406
77.02,1,-0.015,0.017,-0.011,-0.012,0.01,-0.0,-1.566,0.014,0.043,76.13,83.0,40.577789,-3.540225,627.5,3,5,118.8,1.406
77.12,1,-0.008,-0.006,0.024,-0.013,0.007,0.003,-1.567,0.014,0.043,76.13,83.0,40.577789,-3.540225,627.5,3,5,118.8,1.406
77.22,1,0.021,0.002,0.033,0.002,0.0,0.023,-1.566,0.015,0.043,76.13,83.0,40.577789,-3.540225,627.5,3,5,118.8,1.406
77.32,1,-0.066,0.007,-0.022,-0.016,0.001,0.007,-1.569,0.014,0.044,76.13,83.0,40.577789,-3.540225,627.5,3,5,118.8,1.406
77.43,1,-0.038,0.017,0.008,-0.043,0.013,-0.002,-1.569,0.012,0.044,76.13,83.0,40.577789,-3.540225,627.5,3,5,118.8,1.406
77.53,1,-0.009,-0.02,0.017,-0.028,-0.0,0.014,-1.571,0.012,0.045,76.13,83.0,40.577789,-3.540225,627.5,3,5,118.8,1.406
77.63,1,0.023,0.007,0.004,0.002,-0.003,0.006,-1.571,0.011,0.046,76.13,83.0,40.577789,-3.540225,627.5,3,5,118.8,1.406
77.73,1,-0.013,0.004,-0.003,-0.001,0.003,0.005,-1.57,0.011,0.046,77.04,82.9,40.577694,-3.539981,627.8,3,5,117.8,1.406
77.82,1,0.007,0.005,0.001,-0.002,0.003,0.0,-1.57,0.011,0.047,77.04,82.9,40.577694,-3.539981,627.8,3,5,117.8,1.406
77.92,1,-0.032,0.01,0.025,-0.009,0.007,0.014,-1.572,0.011,0.047,77.04,82.9,40.577694,-3.539981,627.8,3,5,117.8,1.406
78.02,1,-0.081,0.007,-0.015,-0.049,0.009,0.002,-1.572,0.01,0.047,77.04,82.9,40.577694,-3.539981,627.8,3,5,117.8,1.406
78.13,1,-0.021,-0.003,-0.001,-0.043,0.004,-0.005,-1.571,0.009,0.047,77.04,82.9,40.577694,-3.539981,627.8,3,5,117.8,1.406
78.22,1,-0.024,0.004,-0.011,-0.035,0.002,-0.007,-1.572,0.009,0.048,77.04,82.9,40.577694,-3.539981,627.8,3,5,117.8,1.406
78.32,1,-0.024,0.014,-0.005,-0.019,0.007,-0.006,-1.578,0.008,0.048,77.04,82.9,40.577694,-3.539981,627.8,3,5,117.8,1.406
78.42,1,0.014,0.012,-0.01,-0.015,0.009,-0.007,-1.581,0.008,0.048,77.04,82.9,40.577694,-3.539981,627.8,3,5,117.8,1.406
78.52,1,0.017,0.008,0.059,0.008,0.008,0.017,-1.586,0.006,0.049,77.04,82.9,40.577694,-3.539981,627.8,3,5,117.8,1.406
78.62,1,-0.013,-0.015,0.002,0.009,0.001,0.021,-1.589,0.004,0.049,77.04,82.9,40.577694,-3.539981,627.8,3,5,117.8,1.406
78.72,1,-0.03,-0.03,0.009,-0.023,-0.016,0.012,-1.591,0.003,0.05,78.06,83.3,40.577595,-3.539737,627.6,3,5,117.4,1.406
78.82,1,0.006,-0.076,0.021,-0.007,-0.042,0.018,-1.596,0.009,0.052,78.06,83.3,40.577595,-3.539737,627.6,3,5,117.4,1.406
78.93,1,-0.021,-0.078,0.031,-0.011,-0.062,0.022,-1.599,0.016,0.056,78.06,83.3,40.577595,-3.539737,627.6,3,5,117.4,1.406
79.02,1,-0.015,-0.107,-0.001,-0.015,-0.087,0.019,-1.601,0.029,0.061,78.06,83.3,40.577595,-3.539737,627.6,3,5,117.4,1.406
79.12,1,0.064,-0.12,0.054,0.02,-0.106,0.023,-1.606,0.04,0.066,78.06,83.3,40.577595,-3.539737,627.6,3,5,117.4,1.406
79.22,1,-0.017,-0.089,-0.014,0.015,-0.099,0.02,-1.605,0.048,0.071,78.06,83.3,40.577595,-3.539737,627.6,3,5,117.4,1.406
79.34,1,-0.014,-0.057,0.016,-0.005,-0.079,0.008,-1.608,0.056,0.075,78.06,83.3,40.577595,-3.539737,627.6,3,5,117.4,1.406
79.42,1,-0.011,-0.029,0.017,-0.01,-0.057,0.014,-1.612,0.056,0.079,78.06,83.3,40.577595,-3.539737,627.6,3,5,117.4,1.406
79.53,1,-0.036,-0.01,0.02,-0.019,-0.035,0.021,-1.613,0.055,0.082,78.06,83.3,40.577595,-3.539737,627.6,3,5,117.4,1.406
79.63,1,-0.044,0.068,0.004,-0.032,0.011,0.01,-1.615,0.051,0.082,78.06,83.3,40.577595,-3.539737,627.6,3,5,117.4,1.406
79.73,1,-0.04,0.062,-0.038,-0.045,0.05,-0.012,-1.615,0.05,0.082,79.04,83.3,40.577595,-3.539737,627.6,3,5,117.4,1.406
79.82,1,0.052,0.057,-0.044,-0.012,0.061,-0.035,-1.609,0.046,0.081,79.04,83.3,40.577595,-3.539737,627.6,3,5,117.4,1.406
79.92,1,-0.047,0.044,-0.024,0.001,0.048,-0.029,-1.605,0.044,0.08,79.04,83.3,40.577595,-3.539737,627.6,3,5,117.4,1.406
80.02,1,-0.015,0.048,-0.001,-0.025,0.045,-0.02,-1.605,0.042,0.079,79.04,83.3,40.577595,-3.539737,627.6,3,5,117.4,1.406
80.14,1,-0.033,0.053,0.0,-0.02,0.051,-0.006,-1.606,0.039,0.079,79.04,83.3,40.577595,-3.539737,627.6,3,5,117.4,1.406
80.23,1,-0.013,0.047,0.006,-0.019,0.046,0.002,-1.609,0.036,0.078,79.04,83.3,40.577595,-3.539737,627.6,3,5,117.4,1.406
80.33,1,-0.021,0.025,0.036,-0.015,0.042,0.012,-1.61,0.035,0.077,79.04,83.3,40.577595,-3.539737,627.6,3,5,117.4,1.406
80.43,1,-0.021,0.027,0.006,-0.023,0.037,0.019,-1.613,0.029,0.078,79.04,83.3,40.577595,-3.539737,627.6,3,5,117.4,1.406
80.54,1,-0.002,0.024,0.038,-0.012,0.027,0.026,-1.614,0.029,0.078,79.04,83.3,40.577595,-3.539737,627.6,3,5,117.4,1.406
80.63,1,0.005,0.015,0.03,-0.004,0.017,0.032,-1.615,0.03,0.078,79.04,83.3,40.577595,-3.539737,627.6,3,5,117.4,1.406
80.74,1,0.027,-0.027,0.04,0.009,0.006,0.032,-1.618,0.032,0.078,80.04,84.8,40.577415,-3.539263,628.5,3,5,114.6,1.406
80.84,1,0.017,0.007,0.039,0.02,-0.006,0.039,-1.617,0.029,0.078,80.04,84.8,40.577415,-3.539263,628.5,3,5,114.6,1.406
80.93,1,-0.018,0.03,0.047,0.0,0.01,0.037,-1.618,0.027,0.078,80.04,84.8,40.577415,-3.539263,628.5,3,5,114.6,1.406
81.03,1,-0.014,0.034,0.039,-0.008,0.025,0.044,-1.622,0.021,0.078,80.04,84.8,40.577415,-3.539263,628.5,3,5,114.6,1.406
81.13,1,-0.025,-0.018,0.049,-0.01,0.015,0.042,-1.627,0.021,0.078,80.04,84.8,40.577415,-3.539263,628.5,3,5,114.6,1.406
81.23,1,-0.021,0.018,0.044,-0.021,0.007,0.048,-1.632,0.019,0.077,80.04,84.8,40.577415,-3.539263,628.5,3,5,114.6,1.406
81.33,1,-0.021,0.042,0.045,-0.023,0.02,0.044,-1.633,0.017,0.075,80.04,84.8,40.577415,-3.539263,628.5,3,5,114.6,1.406
81.45,1,-0.008,0.042,0.025,-0.016,0.036,0.037,-1.633,0.017,0.074,80.04,84.8,40.577415,-3.539263,628.5,3,5,114.6,1.406
81.53,1,-0.037,0.031,0.03,-0.023,0.035,0.033,-1.633,0.017,0.073,80.04,84.8,40.577415,-3.539263,628.5,3,5,114.6,1.406
81.63,1,-0.014,0.013,0.053,-0.022,0.023,0.042,-1.64,0.017,0.072,80.04,84.8,40.577415,-3.539263,628.5,3,5,114.6,1.406
81.73,1,-0.014,0.028,0.058,-0.02,0.017,0.049,-1.646,0.013,0.07,81.05,86.7,40.577328,-3.539014,628.9,3,5,113.9,2.461
81.83,1,-0.024,0.026,0.003,-0.02,0.028,0.031,-1.651,0.013,0.069,81.05,86.7,40.577328,-3.539014,628.9,3,5,113.9,2.461
81.93,1,0.015,0.015,0.049,-0.01,0.023,0.035,-1.65,0.013,0.068,81.05,86.7,40.577328,-3.539014,628.9,3,5,113.9,2.461
82.03,1,0.045,0.027,0.039,0.024,0.02,0.039,-1.655,0.012,0.067,81.05,86.7,40.577328,-3.539014,628.9,3,5,113.9,2.461
82.13,1,0.004,0.028,0.037,0.024,0.026,0.039,-1.659,0.008,0.066,81.05,86.7,40.577328,-3.539014,628.9,3,5,113.9,2.461
82.23,1,-0.008,0.008,-0.005,0.005,0.022,0.021,-1.658,0.004,0.064,81.05,86.7,40.577328,-3.539014,628.9,3,5,113.9,2.461
82.33,1,-0.016,0.007,0.024,-0.008,0.011,0.016,-1.661,0.005,0.063,81.05,86.7,40.577328,-3.539014,628.9,3,5,113.9,2.461
82.44,1,0.003,0.022,0.019,-0.003,0.015,0.02,-1.663,0.005,0.061,81.05,86.7,40.577328,-3.539014,628.9,3,5,113.9,2.461
82.54,1,-0.06,0.027,0.002,-0.023,0.021,0.011,-1.668,0.006,0.06,81.05,86.7,40.577328,-3.539014,628.9,3,5,113.9,2.461
82.64,1,-0.025,0.04,0.005,-0.04,0.03,0.004,-1.672,0.007,0.058,81.05,86.7,40.577328,-3.539014,628.9,3,5,113.9,2.461
82.73,1,0.038,0.009,0.028,0.003,0.033,0.013,-1.676,0.004,0.057,82.05,88.2,40.577244,-3.538746,629.8,3,5,112.9,1.758
82.84,1,-0.023,0.003,-0.056,0.002,0.019,-0.005,-1.679,0.004,0.056,82.05,88.2,40.577244,-3.538746,629.8,3,5,112.9,1.758
82.93,1,-0.067,0.038,0.032,-0.035,0.014,-0.008,-1.681,0.005,0.056,82.05,88.2,40.577244,-3.538746,629.8,3,5,112.9,1.758
83.04,1,0.001,0.012,0.008,-0.032,0.017,0.006,-1.681,0.005,0.055,82.05,88.2,40.577244,-3.538746,629.8,3,5,112.9,1.758
83.13,1,0.017,0.025,0.016,-0.009,0.016,0.011,-1.684,0.006,0.054,82.05,88.2,40.577244,-3.538746,629.8,3,5,112.9,1.758
83.24,1,-0.015,0.015,-0.002,-0.0,0.018,0.013,-1.686,0.002,0.053,82.05,88.2,40.577244,-3.538746,629.8,3,5,112.9,1.758
83.33,1,0.002,0.017,-0.029,-0.005,0.019,-0.012,-1.688,0.004,0.051,82.05,88.2,40.577244,-3.538746,629.8,3,5,112.9,1.758
83.43,1,0.054,0.016,0.007,0.02,0.017,-0.009,-1.687,0.008,0.05,82.05,88.2,40.577244,-3.538746,629.8,3,5,112.9,1.758
83.53,1,-0.007,0.057,-0.03,0.019,0.034,-0.015,-1.684,0.005,0.048,82.05,88.2,40.577244,-3.538746,629.8,3,5,112.9,1.758
83.64,1,-0.027,0.041,-0.003,-0.007,0.039,-0.009,-1.683,-0.0,0.045,82.05,88.2,40.577244,-3.538746,629.8,3,5,112.9,1.758
83.74,1,-0.035,0.032,0.004,-0.021,0.037,-0.004,-1.687,-0.002,0.043,83.13,92.9,40.577152,-3.538475,629.9,3,5,113.9,1.055
83.84,1,-0.076,0.033,-0.054,-0.051,0.037,-0.027,-1.689,-0.001,0.042,83.13,92.9,40.577152,-3.538475,629.9,3,5,113.9,1.055
83.94,1,-0.027,0.006,-0.034,-0.045,0.022,-0.027,-1.688,-0.001,0.041,83.13,92.9,40.577152,-3.538475,629.9,3,5,113.9,1.055
84.03,1,-0.02,0.013,-0.022,-0.029,0.018,-0.033,-1.688,-0.001,0.04,83.13,92.9,40.577152,-3.538475,629.9,3,5,113.9,1.055
84.13,1,0.014,0.015,-0.067,-0.008,0.013,-0.044,-1.684,-0.001,0.038,83.13,92.9,40.577152,-3.538475,629.9,3,5,113.9,1.055
84.24,1,0.023,0.027,-0.052,0.008,0.016,-0.046,-1.682,-0.002,0.037,83.13,92.9,40.577152,-3.538475,629.9,3,5,113.9,1.055
84.34,1,-0.018,0.003,-0.061,-0.0,0.016,-0.06,-1.682,-0.0,0.037,83.13,92.9,40.577152,-3.538475,629.9,3,5,113.9,1.055
84.45,1,-0.011,-0.007,-0.075,-0.009,0.005,-0.067,-1.681,0.002,0.036,83.13,92.9,40.577152,-3.538475,629.9,3,5,113.9,1.055
84.54,1,-0.018,-0.007,-0.051,-0.013,-0.006,-0.058,-1.681,0.003,0.036,83.13,92.9,40.577152,-3.538475,629.9,3,5,113.9,1.055
84.64,1,-0.014,0.03,-0.101,-0.009,0.01,-0.067,-1.681,0.002,0.034,83.13,92.9,40.577152,-3.538475,629.9,3,5,113.9,1.055
84.74,1,-0.023,0.011,-0.075,-0.022,0.014,-0.083,-1.68,0.002,0.033,84.09,96.2,40.577053,-3.538199,631.2,3,5,113.9,1.055
84.84,1,-0.005,0.017,-0.089,-0.01,0.016,-0.09,-1.676,0.003,0.031,84.09,96.2,40.577053,-3.538199,631.2,3,5,113.9,1.055
84.94,1,-0.028,0.012,-0.092,-0.016,0.015,-0.08,-1.673,0.004,0.03,84.09,96.2,40.577053,-3.538199,631.2,3,5,113.9,1.055
85.04,1,-0.022,0.017,-0.132,-0.027,0.02,-0.118,-1.672,0.005,0.029,84.09,96.2,40.577053,-3.538199,631.2,3,5,113.9,1.055
85.15,1,-0.011,0.013,-0.142,-0.021,0.01,-0.121,-1.672,0.005,0.028,84.09,96.2,40.577053,-3.538199,631.2,3,5,113.9,1.055
85.24,1,0.011,0.013,-0.126,-0.006,0.014,-0.13,-1.672,0.005,0.027,84.09,96.2,40.577053,-3.538199,631.2,3,5,113.9,1.055
85.34,1,-0.003,0.016,-0.14,-0.0,0.018,-0.137,-1.652,0.005,0.026,84.09,96.2,40.577053,-3.538199,631.2,3,5,113.9,1.055
85.44,1,-0.001,0.033,-0.1,-0.0,0.018,-0.116,-1.637,0.004,0.024,84.09,96.2,40.577053,-3.538199,631.2,3,5,113.9,1.055
85.54,1,-0.006,0.024,-0.103,-0.005,0.028,-0.108,-1.634,0.004,0.023,84.09,96.2,40.577053,-3.538199,631.2,3,5,113.9,1.055
85.65,1,0.03,-0.005,-0.068,0.007,0.011,-0.095,-1.633,0.005,0.022,84.09,96.2,40.577053,-3.538199,631.2,3,5,113.9,1.055
85.75,1,0.014,0.017,-0.101,0.02,0.009,-0.086,-1.622,0.004,0.021,85.07,98.1,40.57695,-3.537918,631.2,3,5,114.3,0.352
85.84,1,-0.016,0.026,-0.08,0.004,0.019,-0.092,-1.611,-0.002,0.019,85.07,98.1,40.57695,-3.537918,631.2,3,5,114.3,0.352
85.94,1,-0.052,0.012,-0.09,-0.023,0.018,-0.087,-1.604,-0.009,0.017,85.07,98.1,40.57695,-3.537918,631.2,3,5,114.3,0.352
86.04,1,-0.031,0.019,-0.048,-0.03,0.015,-0.077,-1.594,-0.012,0.015,85.07,98.1,40.57695,-3.537918,631.2,3,5,114.3,0.352
86.14,1,-0.079,0.015,-0.077,-0.047,0.021,-0.066,-1.591,-0.015,0.014,85.07,98.1,40.57695,-3.537918,631.2,3,5,114.3,0.352
86.24,1,-0.01,0.004,-0.079,-0.051,0.009,-0.074,-1.592,-0.013,0.013,85.07,98.1,40.57695,-3.537918,631.2,3,5,114.3,0.352
86.34,1,0.02,0.011,-0.074,-0.009,0.008,-0.073,-1.589,-0.014,0.011,85.07,98.1,40.57695,-3.537918,631.2,3,5,114.3,0.352
86.44,1,-0.035,0.005,-0.051,-0.011,0.006,-0.066,-1.588,-0.016,0.009,85.07,98.1,40.57695,-3.537918,631.2,3,5,114.3,0.352
86.54,1,-0.041,0.026,-0.059,-0.024,0.018,-0.057,-1.589,-0.017,0.008,85.07,98.1,40.57695,-3.537918,631.2,3,5,114.3,0.352
86.64,1,-0.045,0.018,-0.074,-0.04,0.016,-0.066,-1.589,-0.017,0.006,85.07,98.1,40.57695,-3.537918,631.2,3,5,114.3,0.352
86.74,1,0.045,-0.017,-0.025,-0.006,0.005,-0.05,-1.589,-0.015,0.005,86.1,98.0,40.576847,-3.537622,632.7,3,5,114.6,0.352
86.85,1,0.016,-0.019,-0.034,0.014,-0.008,-0.038,-1.586,-0.008,0.004,86.1,98.0,40.576847,-3.537622,632.7,3,5,114.6,0.352
86.94,1,0.035,-0.005,-0.029,0.02,-0.007,-0.033,-1.583,-0.008,0.002,86.1,98.0,40.576847,-3.537622,632.7,3,5,114.6,0.352
87.05,1,0.028,0.009,-0.046,0.031,-0.005,-0.038,-1.575,-0.011,0.001,86.1,98.0,40.576847,-3.537622,632.7,3,5,114.6,0.352
87.14,1,-0.006,0.032,-0.009,0.022,0.018,-0.026,-1.568,-0.011,-0.001,86.1,98.0,40.576847,-3.537622,632.7,3,5,114.6,0.352
87.24,1,0.004,0.022,-0.066,0.004,0.024,-0.048,-1.565,-0.014,-0.002,86.1,98.0,40.576847,-3.537622,632.7,3,5,114.6,0.352
87.34,1,-0.034,0.01,-0.046,-0.011,0.019,-0.05,-1.562,-0.013,-0.004,86.1,98.0,40.576847,-3.537622,632.7,3,5,114.6,0.352
87.45,1,-0.01,0.026,-0.03,-0.012,0.019,-0.032,-1.56,-0.017,-0.007,86.1,98.0,40.576847,-3.537622,632.7,3,5,114.6,0.352
87.55,1,-0.022,0.077,-0.113,-0.024,0.043,-0.072,-1.558,-0.024,-0.01,86.1,98.0,40.576847,-3.537622,632.7,3,5,114.6,0.352
87.64,1,-0.032,0.066,-0.078,-0.024,0.057,-0.071,-1.558,-0.025,-0.014,86.1,98.0,40.576847,-3.537622,632.7,3,5,114.6,0.352
87.74,1,0.002,0.101,-0.059,-0.023,0.08,-0.077,-1.557,-0.026,-0.018,87.09,95.7,40.576756,-3.537338,629.9,3,5,114.6,0.703
87.84,1,-0.022,0.075,-0.04,-0.014,0.082,-0.051,-1.556,-0.032,-0.021,87.09,95.7,40.576756,-3.537338,629.9,3,5,114.6,0.703
87.94,1,-0.079,0.049,-0.058,-0.037,0.065,-0.058,-1.554,-0.031,-0.024,87.09,95.7,40.576756,-3.537338,629.9,3,5,114.6,0.703
88.05,1,-0.087,-0.019,-0.052,-0.072,0.033,-0.06,-1.554,-0.026,-0.027,87.09,95.7,40.576756,-3.537338,629.9,3,5,114.6,0.703
88.15,1,0.006,-0.044,-0.016,-0.048,-0.014,-0.036,-1.556,-0.026,-0.029,87.09,95.7,40.576756,-3.537338,629.9,3,5,114.6,0.703
88.26,1,0.044,-0.014,-0.017,0.007,-0.023,-0.023,-1.555,-0.026,-0.032,87.09,95.7,40.576756,-3.537338,629.9,3,5,114.6,0.703
88.35,1,0.011,0.016,-0.06,0.019,-0.002,-0.034,-1.555,-0.028,-0.034,87.09,95.7,40.576756,-3.537338,629.9,3,5,114.6,0.703
88.45,1,-0.021,-0.017,-0.043,0.001,-0.002,-0.046,-1.554,-0.026,-0.034,87.09,95.7,40.576756,-3.537338,629.9,3,5,114.6,0.703
88.55,1,-0.064,-0.033,-0.053,-0.03,-0.02,-0.049,-1.552,-0.022,-0.035,87.09,95.7,40.576756,-3.537338,629.9,3,5,114.6,0.703
88.65,1,-0.022,-0.043,-0.025,-0.039,-0.033,-0.038,-1.548,-0.014,-0.035,87.09,95.7,40.576756,-3.537338,629.9,3,5,114.6,0.703
88.75,1,-0.013,-0.044,-0.005,-0.023,-0.04,-0.024,-1.545,-0.007,-0.035,88.1,94.5,40.576656,-3.537052,629.3,3,5,115.7,0.352
88.86,1,-0.026,-0.02,-0.023,-0.018,-0.033,-0.018,-1.537,-0.003,-0.036,88.1,94.5,40.576656,-3.537052,629.3,3,5,115.7,0.352
88.95,1,-0.049,-0.024,-0.002,-0.034,-0.025,-0.016,-1.533,0.005,-0.036,88.1,94.5,40.576656,-3.537052,629.3,3,5,115.7,0.352
89.05,1,-0.037,-0.026,-0.039,-0.041,-0.029,-0.015,-1.528,0.008,-0.036,88.1,94.5,40.576656,-3.537052,629.3,3,5,115.7,0.352
89.15,1,0.034,-0.065,0.002,-0.007,-0.039,-0.014,-1.527,0.011,-0.037,88.1,94.5,40.576656,-3.537052,629.3,3,5,115.7,0.352
89.26,1,0.058,-0.043,0.004,0.028,-0.047,-0.006,-1.527,0.011,-0.037,88.1,94.5,40.576656,-3.537052,629.3,3,5,115.7,0.352
89.35,1,-0.016,-0.016,-0.024,0.021,-0.036,-0.009,-1.528,0.016,-0.037,88.1,94.5,40.576656,-3.537052,629.3,3,5,115.7,0.352
89.46,1,-0.044,-0.044,-0.007,-0.022,-0.032,-0.016,-1.527,0.015,-0.037,88.1,94.5,40.576656,-3.537052,629.3,3,5,115.7,0.352
89.55,1,0.029,-0.023,-0.001,-0.005,-0.032,-0.004,-1.526,0.016,-0.037,88.1,94.5,40.576656,-3.537052,629.3,3,5,115.7,0.352
89.65,1,-0.007,-0.01,-0.032,0.011,-0.023,-0.013,-1.527,0.02,-0.036,88.1,94.5,40.576656,-3.537052,629.3,3,5,115.7,0.352
89.75,1,-0.026,-0.027,-0.03,-0.017,-0.019,-0.03,-1.523,0.021,-0.036,89.05,92.4,40.57655,-3.536774,630.6,3,5,116.0,1.406
89.85,1,-0.025,-0.048,-0.022,-0.014,-0.034,-0.024,-1.52,0.021,-0.036,89.05,92.4,40.57655,-3.536774,630.6,3,5,116.0,1.406
89.96,1,-0.079,-0.004,0.004,-0.048,-0.023,-0.012,-1.519,0.02,-0.037,89.05,92.4,40.57655,-3.536774,630.6,3,5,116.0,1.406
90.06,1,-0.008,0.014,0.004,-0.042,-0.009,-0.001,-1.52,0.014,-0.037,89.05,92.4,40.57655,-3.536774,630.6,3,5,116.0,1.406
90.15,1,0.007,0.046,0.014,-0.011,0.018,0.002,-1.52,0.01,-0.039,89.05,92.4,40.57655,-3.536774,630.6,3,5,116.0,1.406
90.25,1,-0.014,0.012,-0.007,-0.007,0.025,0.007,-1.521,0.007,-0.04,89.05,92.4,40.57655,-3.536774,630.6,3,5,116.0,1.406
90.35,1,-0.004,0.01,-0.016,-0.021,0.015,-0.008,-1.52,0.008,-0.041,89.05,92.4,40.57655,-3.536774,630.6,3,5,116.0,1.406
90.45,1,0.043,0.012,-0.006,0.025,0.016,-0.008,-1.52,0.009,-0.042,89.05,92.4,40.57655,-3.536774,630.6,3,5,116.0,1.406
90.55,1,-0.012,0.022,-0.021,0.011,0.019,-0.013,-1.519,0.009,-0.044,89.05,92.4,40.57655,-3.536774,630.6,3,5,116.0,1.406
90.66,1,-0.005,0.018,-0.013,-0.004,0.017,-0.017,-1.517,0.008,-0.045,89.05,92.4,40.57655,-3.536774,630.6,3,5,116.0,1.406
90.75,1,-0.022,0.028,-0.001,-0.002,0.02,-0.009,-1.516,0.007,-0.046,90.03,90.3,40.576447,-3.536504,630.9,3,5,115.7,0.352
90.85,1,-0.087,-0.007,-0.01,-0.051,0.015,-0.007,-1.516,0.008,-0.047,90.03,90.3,40.576447,-3.536504,630.9,3,5,115.7,0.352
90.95,1,-0.003,0.007,-0.01,-0.038,0.009,-0.009,-1.514,0.008,-0.048,90.03,90.3,40.576447,-3.536504,630.9,3,5,115.7,0.352
91.06,1,0.006,-0.011,-0.029,-0.012,-0.003,-0.015,-1.514,0.01,-0.049,90.03,90.3,40.576447,-3.536504,630.9,3,5,115.7,0.352
91.16,1,0.021,-0.024,0.033,0.009,-0.018,0.001,-1.513,0.015,-0.049,90.03,90.3,40.576447,-3.536504,630.9,3,5,115.7,0.352
91.25,1,-0.048,-0.015,0.007,-0.016,-0.013,0.013,-1.515,0.016,-0.049,90.03,90.3,40.576447,-3.536504,630.9,3,5,115.7,0.352
91.36,1,-0.015,-0.026,-0.009,-0.023,-0.018,0.0,-1.513,0.018,-0.05,90.03,90.3,40.576447,-3.536504,630.9,3,5,115.7,0.352
91.46,1,-0.005,-0.026,0.006,-0.008,-0.026,-0.005,-1.512,0.021,-0.05,90.03,90.3,40.576447,-3.536504,630.9,3,5,115.7,0.352
91.55,1,0.014,-0.02,0.011,-0.005,-0.024,0.01,-1.514,0.022,-0.05,90.03,90.3,40.576447,-3.536504,630.9,3,5,115.7,0.352
91.65,1,0.027,-0.021,0.023,0.018,-0.02,0.013,-1.513,0.022,-0.05,90.03,90.3,40.576447,-3.536504,630.9,3,5,115.7,0.352
91.76,1,-0.032,0.006,-0.015,-0.004,-0.007,0.003,-1.513,0.024,-0.05,91.05,87.4,40.576363,-3.536252,631.9,3,5,116.0,0.352
91.87,1,-0.02,-0.002,0.011,-0.016,-0.005,-0.0,-1.515,0.024,-0.05,91.05,87.4,40.576363,-3.536252,631.9,3,5,116.0,0.352
91.96,1,0.016,-0.01,0.043,0.001,-0.006,0.024,-1.52,0.023,-0.051,91.05,87.4,40.576363,-3.536252,631.9,3,5,116.0,0.352
92.06,1,-0.084,0.013,-0.011,-0.035,-0.0,0.016,-1.524,0.024,-0.051,91.05,87.4,40.576363,-3.536252,631.9,3,5,116.0,0.352
92.16,1,-0.03,-0.001,0.011,-0.041,0.007,0.004,-1.523,0.022,-0.052,91.05,87.4,40.576363,-3.536252,631.9,3,5,116.0,0.352
92.26,1,0.034,0.017,-0.009,-0.011,0.006,0.005,-1.523,0.021,-0.053,91.05,87.4,40.576363,-3.536252,631.9,3,5,116.0,0.352
92.37,1,-0.042,0.026,-0.035,-0.012,0.018,-0.013,-1.526,0.024,-0.054,91.05,87.4,40.576363,-3.536252,631.9,3,5,116.0,0.352
92.46,1,-0.02,0.023,0.029,-0.024,0.016,-0.013,-1.528,0.026,-0.055,91.05,87.4,40.576363,-3.536252,631.9,3,5,116.0,0.352
92.57,1,-0.033,0.033,0.0,-0.022,0.025,0.015,-1.528,0.026,-0.057,91.05,87.4,40.576363,-3.536252,631.9,3,5,116.0,0.352
92.66,1,-0.046,0.027,-0.045,-0.04,0.032,-0.015,-1.529,0.025,-0.058,91.05,87.4,40.576363,-3.536252,631.9,3,5,116.0,0.352
92.76,1,0.04,0.013,-0.011,-0.006,0.021,-0.02,-1.531,0.025,-0.059,92.07,85.2,40.576263,-3.536019,631.8,4,5,115.7,0.352
92.86,1,-0.064,0.021,-0.024,-0.023,0.024,-0.022,-1.531,0.025,-0.06,92.07,85.2,40.576263,-3.536019,631.8,4,5,115.7,0.352
92.96,1,-0.048,0.013,-0.023,-0.045,0.014,-0.024,-1.531,0.025,-0.061,92.07,85.2,40.576263,-3.536019,631.8,4,5,115.7,0.352
93.06,1,0.011,0.045,-0.014,-0.028,0.026,-0.017,-1.531,0.023,-0.063,92.07,85.2,40.576263,-3.536019,631.8,4,5,115.7,0.352
93.17,1,-0.015,-0.004,0.005,-0.007,0.018,-0.009,-1.53,0.019,-0.064,92.07,85.2,40.576263,-3.536019,631.8,4,5,115.7,0.352
93.27,1,0.024,-0.003,0.004,0.006,0.006,-0.006,-1.529,0.017,-0.065,92.07,85.2,40.576263,-3.536019,631.8,4,5,115.7,0.352
93.37,1,-0.005,0.017,-0.011,0.011,0.006,-0.001,-1.526,0.018,-0.067,92.07,85.2,40.576263,-3.536019,631.8,4,5,115.7,0.352
93.46,1,-0.03,0.036,0.009,-0.011,0.02,0.005,-1.527,0.015,-0.068,92.07,85.2,40.576263,-3.536019,631.8,4,5,115.7,0.352
93.56,1,-0.067,0.011,-0.009,-0.042,0.021,-0.005,-1.529,0.012,-0.07,92.07,85.2,40.576263,-3.536019,631.8,4,5,115.7,0.352
93.67,1,0.001,0.016,0.024,-0.022,0.016,0.009,-1.533,0.013,-0.073,92.07,85.2,40.576263,-3.536019,631.8,4,5,115.7,0.352
93.76,1,-0.033,0.027,-0.003,-0.023,0.021,0.006,-1.535,0.011,-0.075,93.1,83.0,40.57618,-3.535767,631.4,4,5,116.0,0.352
93.86,1,0.004,0.025,-0.019,-0.017,0.023,-0.008,-1.535,0.008,-0.077,93.1,83.0,40.57618,-3.535767,631.4,4,5,116.0,0.352
93.96,1,-0.015,0.015,0.016,-0.008,0.019,0.003,-1.534,0.004,-0.08,93.1,83.0,40.57618,-3.535767,631.4,4,5,116.0,0.352
94.06,1,-0.027,0.017,-0.001,-0.022,0.015,0.005,-1.535,0.001,-0.082,93.1,83.0,40.57618,-3.535767,631.4,4,5,116.0,0.352
94.16,1,-0.0,0.003,-0.013,-0.014,0.014,-0.008,-1.536,-0.004,-0.085,93.1,83.0,40.57618,-3.535767,631.4,4,5,116.0,0.352
94.27,1,-0.031,0.018,-0.011,-0.018,0.015,-0.005,-1.537,-0.006,-0.087,93.1,83.0,40.57618,-3.535767,631.4,4,5,116.0,0.352
94.36,1,-0.042,0.0,0.007,-0.03,0.011,-0.006,-1.538,-0.01,-0.089,93.1,83.0,40.57618,-3.535767,631.4,4,5,116.0,0.352
94.46,1,0.002,0.007,0.009,-0.02,0.006,0.006,-1.535,-0.01,-0.091,93.1,83.0,40.57618,-3.535767,631.4,4,5,116.0,0.352
94.57,1,0.033,0.031,-0.014,0.011,0.014,0.001,-1.536,-0.012,-0.094,93.1,83.0,40.57618,-3.535767,631.4,4,5,116.0,0.352
94.66,1,0.01,0.018,0.011,0.012,0.018,0.002,-1.536,-0.011,-0.096,93.1,83.0,40.57618,-3.535767,631.4,4,5,116.0,0.352
94.76,1,0.005,-0.011,-0.018,0.013,0.01,-0.007,-1.533,-0.009,-0.098,94.05,81.3,40.576084,-3.535524,631.6,3,5,116.7,0.352
94.86,1,-0.019,0.008,-0.004,-0.005,0.003,-0.014,-1.532,-0.011,-0.1,94.05,81.3,40.576084,-3.535524,631.6,3,5,116.7,0.352
94.96,1,-0.036,-0.004,0.014,-0.021,0.001,0.003,-1.534,-0.014,-0.102,94.05,81.3,40.576084,-3.535524,631.6,3,5,116.7,0.352
95.06,1,-0.019,0.003,-0.008,-0.028,0.002,0.0,-1.535,-0.014,-0.104,94.05,81.3,40.576084,-3.535524,631.6,3,5,116.7,0.352
95.16,1,0.026,-0.026,-0.01,0.003,-0.009,-0.002,-1.533,-0.012,-0.106,94.05,81.3,40.576084,-3.535524,631.6,3,5,116.7,0.352
95.26,1,-0.038,0.004,0.017,-0.01,-0.01,0.002,-1.531,-0.01,-0.108,94.05,81.3,40.576084,-3.535524,631.6,3,5,116.7,0.352
95.36,1,-0.009,-0.002,-0.044,-0.024,0.004,-0.02,-1.53,-0.007,-0.11,94.05,81.3,40.576084,-3.535524,631.6,3,5,116.7,0.352
95.46,1,0.044,0.0,-0.001,0.013,-0.004,-0.011,-1.528,-0.006,-0.112,94.05,81.3,40.576084,-3.535524,631.6,3,5,116.7,0.352
95.56,1,-0.022,-0.005,-0.021,0.006,-0.007,-0.011,-1.526,-0.006,-0.114,94.05,81.3,40.576084,-3.535524,631.6,3,5,116.7,0.352
95.67,1,-0.043,-0.004,-0.003,-0.021,-0.007,-0.012,-1.527,-0.008,-0.116,94.05,81.3,40.576084,-3.535524,631.6,3,5,116.7,0.352
95.78,1,0.013,-0.004,-0.01,-0.016,-0.002,-0.005,-1.528,-0.012,-0.118,95.04,79.6,40.575996,-3.535288,632.4,3,5,117.8,1.055
95.87,1,0.009,-0.008,-0.029,0.005,-0.001,-0.018,-1.531,-0.014,-0.12,95.04,79.6,40.575996,-3.535288,632.4,3,5,117.8,1.055
95.97,1,0.008,-0.028,0.032,-0.001,-0.011,0.003,-1.529,-0.015,-0.121,95.04,79.6,40.575996,-3.535288,632.4,3,5,117.8,1.055
96.07,1,-0.07,-0.018,-0.007,-0.021,-0.021,0.001,-1.529,-0.013,-0.123,95.04,79.6,40.575996,-3.535288,632.4,3,5,117.8,1.055
96.17,1,-0.036,-0.01,-0.005,-0.046,-0.015,-0.007,-1.529,-0.007,-0.124,95.04,79.6,40.575996,-3.535288,632.4,3,5,117.8,1.055
96.27,1,0.041,0.002,0.008,0.001,-0.011,0.005,-1.531,-0.006,-0.126,95.04,79.6,40.575996,-3.535288,632.4,3,5,117.8,1.055
96.38,1,0.001,0.002,-0.014,0.007,-0.003,-0.001,-1.532,-0.007,-0.128,95.04,79.6,40.575996,-3.535288,632.4,3,5,117.8,1.055
96.47,1,0.003,0.007,0.023,0.008,0.004,0.009,-1.534,-0.01,-0.13,95.04,79.6,40.575996,-3.535288,632.4,3,5,117.8,1.055
96.57,1,-0.005,0.02,-0.023,0.0,0.009,-0.005,-1.534,-0.01,-0.132,95.04,79.6,40.575996,-3.535288,632.4,3,5,117.8,1.055
96.67,1,-0.003,0.008,-0.016,-0.004,0.01,-0.018,-1.537,-0.014,-0.134,95.04,79.6,40.575996,-3.535288,632.4,3,5,117.8,1.055
96.77,1,-0.036,-0.01,-0.009,-0.031,0.009,-0.015,-1.539,-0.017,-0.136,96.08,77.4,40.575901,-3.535065,632.6,3,5,118.8,2.109
96.87,1,-0.0,0.013,0.004,-0.008,0.001,-0.003,-1.538,-0.015,-0.137,96.08,77.4,40.575901,-3.535065,632.6,3,5,118.8,2.109
96.98,1,0.04,-0.017,0.005,0.02,-0.006,0.002,-1.532,-0.011,-0.139,96.08,77.4,40.575901,-3.535065,632.6,3,5,118.8,2.109
97.07,1,-0.017,0.003,-0.003,0.013,-0.003,0.003,-1.533,-0.012,-0.14,96.08,77.4,40.575901,-3.535065,632.6,3,5,118.8,2.109
97.17,1,-0.026,-0.011,0.005,-0.024,-0.002,0.003,-1.534,-0.013,-0.142,96.08,77.4,40.575901,-3.535065,632.6,3,5,118.8,2.109
97.27,1,0.004,-0.026,0.01,-0.005,-0.009,0.007,-1.536,-0.015,-0.144,96.08,77.4,40.575901,-3.535065,632.6,3,5,118.8,2.109
97.38,1,-0.056,-0.005,-0.055,-0.026,-0.012,-0.016,-1.535,-0.018,-0.144,96.08,77.4,40.575901,-3.535065,632.6,3,5,118.8,2.109
97.47,1,0.026,0.008,-0.031,-0.017,-0.004,-0.033,-1.534,-0.02,-0.145,96.08,77.4,40.575901,-3.535065,632.6,3,5,118.8,2.109
97.58,1,-0.015,0.006,0.004,0.003,-0.001,-0.022,-1.527,-0.02,-0.146,96.08,77.4,40.575901,-3.535065,632.6,3,5,118.8,2.109
97.68,1,-0.035,-0.017,0.056,-0.029,-0.01,0.02,-1.526,-0.018,-0.147,96.08,77.4,40.575901,-3.535065,632.6,3,5,118.8,2.109
97.77,1,0.07,-0.051,0.104,0.014,-0.026,0.062,-1.529,-0.017,-0.148,97.05,77.4,40.575901,-3.535065,632.6,3,5,118.8,2.109
97.87,1,-0.016,-0.023,0.062,0.02,-0.031,0.073,-1.536,-0.015,-0.149,97.05,77.4,40.575901,-3.535065,632.6,3,5,118.8,2.109
97.98,1,-0.037,-0.026,0.054,-0.012,-0.023,0.061,-1.541,-0.013,-0.149,97.05,77.4,40.575901,-3.535065,632.6,3,5,118.8,2.109
98.07,1,-0.006,-0.042,0.045,-0.019,-0.029,0.048,-1.542,-0.013,-0.149,97.05,77.4,40.575901,-3.535065,632.6,3,5,118.8,2.109
98.18,1,0.018,-0.039,0.067,0.003,-0.04,0.062,-1.55,-0.011,-0.149,97.05,77.4,40.575901,-3.535065,632.6,3,5,118.8,2.109
98.27,1,-0.048,0.002,0.042,-0.015,-0.024,0.049,-1.555,-0.009,-0.15,97.05,77.4,40.575901,-3.535065,632.6,3,5,118.8,2.109
98.37,1,-0.023,-0.001,0.031,-0.024,-0.008,0.044,-1.562,-0.007,-0.149,97.05,77.4,40.575901,-3.535065,632.6,3,5,118.8,2.109
98.48,1,0.012,-0.035,0.064,-0.007,-0.017,0.051,-1.567,-0.006,-0.149,97.05,77.4,40.575901,-3.535065,632.6,3,5,118.8,2.109
98.57,1,-0.02,-0.027,0.027,-0.01,-0.025,0.041,-1.572,-0.003,-0.149,97.05,77.4,40.575901,-3.535065,632.6,3,5,118.8,2.109
98.67,1,-0.02,-0.019,0.051,-0.019,-0.023,0.038,-1.575,-0.002,-0.149,97.05,77.4,40.575901,-3.535065,632.6,3,5,118.8,2.109
98.78,1,-0.002,0.007,0.035,-0.013,-0.011,0.042,-1.576,-0.0,-0.15,98.05,73.5,40.57571,-3.534625,633.2,3,5,120.2,1.406
98.88,1,-0.054,-0.001,0.034,-0.022,0.001,0.038,-1.578,0.001,-0.15,98.05,73.5,40.57571,-3.534625,633.2,3,5,120.2,1.406
98.97,1,-0.023,0.006,0.031,-0.031,-0.002,0.032,-1.58,0.003,-0.15,98.05,73.5,40.57571,-3.534625,633.2,3,5,120.2,1.406
99.08,1,0.019,0.009,0.04,-0.012,0.001,0.04,-1.582,0.004,-0.151,98.05,73.5,40.57571,-3.534625,633.2,3,5,120.2,1.406
99.18,1,0.006,0.037,0.033,0.002,0.02,0.039,-1.582,0.002,-0.153,98.05,73.5,40.57571,-3.534625,633.2,3,5,120.2,1.406
99.27,1,0.013,0.044,0.025,0.006,0.033,0.031,-1.587,-0.003,-0.155,98.05,73.5,40.57571,-3.534625,633.2,3,5,120.2,1.406
99.38,1,-0.011,0.021,0.031,0.007,0.035,0.027,-1.588,-0.007,-0.157,98.05,73.5,40.57571,-3.534625,633.2,3,5,120.2,1.406
99.48,1,-0.005,0.03,0.037,-0.006,0.025,0.038,-1.592,-0.01,-0.159,98.05,73.5,40.57571,-3.534625,633.2,3,5,120.2,1.406
99.58,1,-0.042,0.02,0.026,-0.016,0.027,0.031,-1.593,-0.01,-0.161,98.05,73.5,40.57571,-3.534625,633.2,3,5,120.2,1.406
99.68,1,-0.035,-0.019,0.029,-0.03,0.012,0.027,-1.596,-0.009,-0.162,98.05,73.5,40.57571,-3.534625,633.2,3,5,120.2,1.406
99.78,1,-0.03,-0.026,0.034,-0.034,-0.012,0.031,-1.599,-0.006,-0.162,99.04,73.9,40.575615,-3.534414,633.5,3,5,120.2,1.055
99.88,1,-0.041,-0.02,0.024,-0.038,-0.021,0.027,-1.603,-0.003,-0.162,99.04,73.9,40.575615,-3.534414,633.5,3,5,120.2,1.055
99.98,1,-0.001,-0.0,0.017,-0.021,-0.015,0.024,-1.606,-0.005,-0.162,99.04,73.9,40.575615,-3.534414,633.5,3,5,120.2,1.055
100.08,1,0.002,0.001,-0.006,-0.007,-0.007,0.01,-1.606,-0.007,-0.163,99.04,73.9,40.575615,-3.534414,633.5,3,5,120.2,1.055
100.18,1,0.016,0.011,-0.018,-0.0,0.007,-0.005,-1.604,-0.008,-0.163,99.04,73.9,40.575615,-3.534414,633.5,3,5,120.2,1.055
100.28,1,0.014,0.017,-0.01,0.014,0.015,-0.008,-1.602,-0.008,-0.164,99.04,73.9,40.575615,-3.534414,633.5,3,5,120.2,1.055
100.38,1,-0.038,0.009,-0.011,-0.009,0.012,-0.013,-1.597,-0.007,-0.165,99.04,73.9,40.575615,-3.534414,633.5,3,5,120.2,1.055
100.49,1,-0.052,0.002,-0.01,-0.033,0.007,-0.01,-1.597,-0.009,-0.166,99.04,73.9,40.575615,-3.534414,633.5,3,5,120.2,1.055
100.58,1,-0.03,0.011,-0.019,-0.037,0.002,-0.016,-1.598,-0.011,-0.167,99.04,73.9,40.575615,-3.534414,633.5,3,5,120.2,1.055
100.69,1,0.035,0.013,-0.018,-0.006,0.01,-0.013,-1.597,-0.013,-0.169,99.04,73.9,40.575615,-3.534414,633.5,3,5,120.2,1.055
100.78,1,0.063,0.005,-0.038,0.029,0.012,-0.028,-1.594,-0.014,-0.17,100.05,75.1,40.575504,-3.53419,634.4,3,5,121.3,1.055
100.88,1,0.063,0.005,-0.017,0.056,0.009,-0.025,-1.589,-0.016,-0.171,100.05,75.1,40.575504,-3.53419,634.4,3,5,121.3,1.055
100.98,1,-0.168,-0.024,-0.096,-0.014,-0.003,-0.046,-1.584,-0.017,-0.172,100.05,75.1,40.575504,-3.53419,634.4,3,5,121.3,1.055
101.08,1,-0.068,0.029,-0.05,-0.087,0.002,-0.068,-1.594,-0.018,-0.173,100.05,75.1,40.575504,-3.53419,634.4,3,5,121.3,1.055
101.18,1,-0.018,0.002,0.037,-0.071,0.006,-0.009,-1.599,-0.02,-0.173,100.05,75.1,40.575504,-3.53419,634.4,3,5,121.3,1.055
101.29,1,0.093,-0.033,-0.006,0.008,-0.007,-0.005,-1.598,-0.02,-0.173,100.05,75.1,40.575504,-3.53419,634.4,3,5,121.3,1.055
101.38,1,0.117,-0.03,-0.011,0.092,-0.022,-0.009,-1.594,-0.019,-0.173,100.05,75.1,40.575504,-3.53419,634.4,3,5,121.3,1.055
101.48,1,0.014,-0.031,-0.041,0.063,-0.03,-0.024,-1.588,-0.018,-0.172,100.05,75.1,40.575504,-3.53419,634.4,3,5,121.3,1.055
101.58,1,-0.04,-0.025,-0.047,0.006,-0.028,-0.04,-1.583,-0.017,-0.172,100.05,75.1,40.575504,-3.53419,634.4,3,5,121.3,1.055
101.68,1,-0.071,-0.016,-0.005,-0.044,-0.023,-0.027,-1.582,-0.013,-0.172,100.05,75.1,40.575504,-3.53419,634.4,3,5,121.3,1.055
101.78,1,-0.079,-0.015,-0.036,-0.052,-0.024,-0.021,-1.585,-0.01,-0.171,101.1,74.9,40.575413,-3.533975,635.7,3,5,122.0,1.758
101.89,1,-0.038,-0.009,-0.015,-0.064,-0.01,-0.022,-1.584,-0.007,-0.171,101.1,74.9,40.575413,-3.533975,635.7,3,5,122.0,1.758
101.99,1,0.008,0.002,-0.033,-0.029,-0.003,-0.023,-1.58,-0.006,-0.17,101.1,74.9,40.575413,-3.533975,635.7,3,5,122.0,1.758
102.18,1,0.022,-0.03,-0.01,0.048,-0.022,-0.013,-1.574,-0.0,-0.17,101.1,74.9,40.575413,-3.533975,635.7,3,5,122.0,1.758
102.28,1,-0.033,0.0,-0.029,0.016,-0.013,-0.022,-1.572,-0.001,-0.17,101.1,74.9,40.575413,-3.533975,635.7,3,5,122.0,1.758
102.39,1,-0.038,-0.017,-0.007,-0.024,-0.015,-0.012,-1.572,-0.001,-0.169,101.1,74.9,40.575413,-3.533975,635.7,3,5,122.0,1.758
102.48,1,-0.021,-0.001,-0.022,-0.023,-0.008,-0.017,-1.571,-0.001,-0.169,101.1,74.9,40.575413,-3.533975,635.7,3,5,122.0,1.758
102.58,1,-0.004,0.005,0.004,-0.02,-0.003,-0.011,-1.569,0.002,-0.169,101.1,74.9,40.575413,-3.533975,635.7,3,5,122.0,1.758
102.68,1,0.024,-0.005,-0.012,0.002,-0.001,-0.008,-1.568,0.003,-0.168,101.1,74.9,40.575413,-3.533975,635.7,3,5,122.0,1.758
102.78,1,-0.016,0.006,-0.033,0.002,-0.001,-0.024,-1.569,0.001,-0.168,101.1,74.9,40.575413,-3.533975,635.7,3,5,122.0,1.758
102.88,1,-0.065,-0.009,-0.013,-0.028,-0.004,-0.017,-1.569,0.001,-0.167,102.05,74.2,40.575314,-3.533761,636.6,3,5,122.3,1.055
102.99,1,-0.005,-0.027,-0.004,-0.029,-0.012,-0.008,-1.57,0.002,-0.167,102.05,74.2,40.575314,-3.533761,636.6,3,5,122.3,1.055
103.08,1,-0.031,0.001,0.024,-0.016,-0.011,-0.0,-1.571,-0.0,-0.167,102.05,74.2,40.575314,-3.533761,636.6,3,5,122.3,1.055
103.19,1,-0.01,0.008,0.004,-0.027,0.0,0.009,-1.571,-0.003,-0.167,102.05,74.2,40.575314,-3.533761,636.6,3,5,122.3,1.055
103.28,1,0.054,0.002,0.011,0.01,0.004,0.01,-1.571,-0.005,-0.166,102.05,74.2,40.575314,-3.533761,636.6,3,5,122.3,1.055
103.38,1,-0.001,-0.004,-0.001,0.019,0.003,0.004,-1.57,-0.004,-0.166,102.05,74.2,40.575314,-3.533761,636.6,3,5,122.3,1.055
103.48,1,-0.014,-0.008,0.022,-0.001,-0.004,0.011,-1.57,-0.002,-0.166,102.05,74.2,40.575314,-3.533761,636.6,3,5,122.3,1.055
103.59,1,-0.026,0.003,-0.007,-0.013,-0.003,0.009,-1.568,-0.004,-0.166,102.05,74.2,40.575314,-3.533761,636.6,3,5,122.3,1.055
103.69,1,-0.006,0.001,0.022,-0.015,0.002,0.011,-1.569,-0.004,-0.166,102.05,74.2,40.575314,-3.533761,636.6,3,5,122.3,1.055
103.8,1,-0.022,0.004,0.024,-0.014,0.0,0.019,-1.572,-0.005,-0.167,102.05,74.2,40.575314,-3.533761,636.6,3,5,122.3,1.055
103.9,1,-0.014,0.013,-0.005,-0.018,0.008,0.01,-1.574,-0.005,-0.167,103.05,72.6,40.575214,-3.533552,636.2,3,5,122.3,1.055
103.99,1,-0.003,0.009,0.006,-0.008,0.007,0.005,-1.574,-0.008,-0.167,103.05,72.6,40.575214,-3.533552,636.2,3,5,122.3,1.055
104.09,1,-0.017,0.02,0.005,-0.013,0.014,0.007,-1.576,-0.01,-0.167,103.05,72.6,40.575214,-3.533552,636.2,3,5,122.3,1.055
104.19,1,0.029,0.007,-0.008,-0.002,0.011,-0.002,-1.578,-0.009,-0.167,103.05,72.6,40.575214,-3.533552,636.2,3,5,122.3,1.055
104.29,1,-0.009,0.001,0.01,0.009,0.009,0.001,-1.579,-0.01,-0.168,103.05,72.6,40.575214,-3.533552,636.2,3,5,122.3,1.055
104.39,1,-0.007,0.014,0.008,-0.001,0.005,0.007,-1.581,-0.011,-0.168,103.05,72.6,40.575214,-3.533552,636.2,3,5,122.3,1.055
104.49,1,-0.014,0.005,-0.007,-0.009,0.004,-0.001,-1.582,-0.012,-0.168,103.05,72.6,40.575214,-3.533552,636.2,3,5,122.3,1.055
104.59,1,-0.061,0.019,-0.001,-0.026,0.011,-0.001,-1.585,-0.013,-0.169,103.05,72.6,40.575214,-3.533552,636.2,3,5,122.3,1.055
104.69,1,-0.015,0.022,-0.001,-0.039,0.021,-0.001,-1.587,-0.014,-0.169,103.05,72.6,40.575214,-3.533552,636.2,3,5,122.3,1.055
104.79,1,0.016,0.012,0.001,-0.005,0.018,0.003,-1.585,-0.014,-0.17,103.05,72.6,40.575214,-3.533552,636.2,3,5,122.3,1.055
104.89,1,0.012,0.008,0.007,0.003,0.012,0.002,-1.582,-0.014,-0.17,104.07,72.5,40.575119,-3.533346,636.2,3,5,122.7,0.352
104.99,1,-0.009,0.013,0.007,0.002,0.012,0.004,-1.582,-0.015,-0.171,104.07,72.5,40.575119,-3.533346,636.2,3,5,122.7,0.352
105.09,1,0.005,0.027,0.027,-0.001,0.021,0.016,-1.583,-0.014,-0.171,104.07,72.5,40.575119,-3.533346,636.2,3,5,122.7,0.352
105.19,1,0.05,-0.008,0.038,0.02,0.012,0.027,-1.585,-0.014,-0.171,104.07,72.5,40.575119,-3.533346,636.2,3,5,122.7,0.352
105.29,1,0.034,-0.022,0.004,0.035,-0.006,0.016,-1.585,-0.014,-0.171,104.07,72.5,40.575119,-3.533346,636.2,3,5,122.7,0.352
105.39,1,-0.009,-0.02,0.012,0.012,-0.019,0.016,-1.582,-0.014,-0.171,104.07,72.5,40.575119,-3.533346,636.2,3,5,122.7,0.352
105.49,1,0.054,-0.013,0.028,0.031,-0.015,0.021,-1.578,-0.015,-0.171,104.07,72.5,40.575119,-3.533346,636.2,3,5,122.7,0.352
105.59,1,-0.004,0.009,-0.01,0.019,-0.007,0.012,-1.58,-0.016,-0.171,104.07,72.5,40.575119,-3.533346,636.2,3,5,122.7,0.352
105.69,1,-0.061,-0.002,-0.016,-0.012,-0.006,-0.01,-1.583,-0.014,-0.17,104.07,72.5,40.575119,-3.533346,636.2,3,5,122.7,0.352
105.79,1,-0.068,-0.038,0.023,-0.057,-0.01,0.003,-1.586,-0.01,-0.169,104.07,72.5,40.575119,-3.533346,636.2,3,5,122.7,0.352
105.89,1,-0.022,-0.022,-0.029,-0.039,-0.024,-0.008,-1.586,-0.009,-0.168,105.05,72.5,40.575119,-3.533346,636.2,3,5,122.7,0.352
105.99,1,0.027,-0.037,-0.006,-0.007,-0.028,-0.014,-1.587,-0.008,-0.167,105.05,72.5,40.575119,-3.533346,636.2,3,5,122.7,0.352
106.1,1,-0.004,0.009,-0.017,0.005,-0.018,-0.007,-1.584,-0.006,-0.165,105.05,72.5,40.575119,-3.533346,636.2,3,5,122.7,0.352
106.19,1,0.001,0.0,-0.008,-0.007,-0.004,-0.014,-1.578,-0.005,-0.164,105.05,72.5,40.575119,-3.533346,636.2,3,5,122.7,0.352
106.31,1,0.006,-0.013,0.007,0.0,-0.007,-0.003,-1.576,-0.004,-0.163,105.05,72.5,40.575119,-3.533346,636.2,3,5,122.7,0.352
106.39,1,-0.001,-0.003,0.009,0.006,-0.007,0.009,-1.576,-0.003,-0.162,105.05,72.5,40.575119,-3.533346,636.2,3,5,122.7,0.352
106.49,1,-0.015,-0.033,0.003,-0.005,-0.013,0.003,-1.576,0.0,-0.16,105.05,72.5,40.575119,-3.533346,636.2,3,5,122.7,0.352
106.59,1,-0.055,-0.004,0.003,-0.029,-0.018,0.005,-1.575,0.001,-0.159,105.05,72.5,40.575119,-3.533346,636.2,3,5,122.7,0.352
106.69,1,-0.014,-0.022,0.013,-0.031,-0.015,0.007,-1.577,0.004,-0.158,105.05,72.5,40.575119,-3.533346,636.2,3,5,122.7,0.352
106.79,1,0.016,0.005,0.006,-0.004,-0.009,0.006,-1.577,0.007,-0.157,105.05,72.5,40.575119,-3.533346,636.2,3,5,122.7,0.352
106.89,1,0.004,-0.012,-0.002,-0.0,-0.005,0.005,-1.577,0.005,-0.156,106.05,72.3,40.574924,-3.532965,637.5,3,5,123.8,1.055
107.0,1,0.025,-0.005,0.027,0.016,-0.008,0.01,-1.577,0.002,-0.156,106.05,72.3,40.574924,-3.532965,637.5,3,5,123.8,1.055
107.1,1,0.015,0.005,0.015,0.013,-0.004,0.016,-1.58,0.002,-0.155,106.05,72.3,40.574924,-3.532965,637.5,3,5,123.8,1.055
107.19,1,-0.054,0.004,-0.022,-0.015,0.004,0.002,-1.58,0.001,-0.154,106.05,72.3,40.574924,-3.532965,637.5,3,5,123.8,1.055
107.31,1,-0.048,0.018,0.017,-0.031,0.01,-0.001,-1.579,0.001,-0.153,106.05,72.3,40.574924,-3.532965,637.5,3,5,123.8,1.055
107.4,1,-0.025,0.02,-0.007,-0.034,0.015,0.006,-1.58,-0.001,-0.152,106.05,72.3,40.574924,-3.532965,637.5,3,5,123.8,1.055
107.5,1,0.05,0.007,0.015,0.003,0.012,0.004,-1.582,-0.002,-0.152,106.05,72.3,40.574924,-3.532965,637.5,3,5,123.8,1.055
107.6,1,-0.007,-0.008,0.028,0.01,0.003,0.023,-1.584,-0.004,-0.152,106.05,72.3,40.574924,-3.532965,637.5,3,5,123.8,1.055
107.7,1,-0.019,0.013,-0.001,-0.011,0.007,0.006,-1.584,-0.003,-0.152,106.05,72.3,40.574924,-3.532965,637.5,3,5,123.8,1.055
107.8,1,0.038,-0.017,0.028,0.01,-0.007,0.014,-1.583,-0.002,-0.152,106.05,72.3,40.574924,-3.532965,637.5,3,5,123.8,1.055
107.9,1,-0.05,-0.0,0.007,-0.01,-0.003,0.016,-1.584,-0.001,-0.151,107.07,71.0,40.574818,-3.532768,638.2,3,5,124.1,1.055
108.0,1,-0.021,-0.01,0.01,-0.023,-0.005,0.013,-1.589,0.002,-0.151,107.07,71.0,40.574818,-3.532768,638.2,3,5,124.1,1.055
108.11,1,-0.022,0.008,0.031,-0.019,0.0,0.014,-1.592,0.001,-0.15,107.07,71.0,40.574818,-3.532768,638.2,3,5,124.1,1.055
108.2,1,-0.022,0.034,0.047,-0.02,0.015,0.037,-1.598,-0.001,-0.15,107.07,71.0,40.574818,-3.532768,638.2,3,5,124.1,1.055
108.3,1,0.007,0.007,0.033,-0.016,0.017,0.033,-1.6,-0.001,-0.15,107.07,71.0,40.574818,-3.532768,638.2,3,5,124.1,1.055
108.4,1,0.019,0.014,0.028,0.011,0.012,0.033,-1.601,-0.002,-0.15,107.07,71.0,40.574818,-3.532768,638.2,3,5,124.1,1.055
108.5,1,0.018,0.02,0.018,0.012,0.02,0.026,-1.601,-0.004,-0.15,107.07,71.0,40.574818,-3.532768,638.2,3,5,124.1,1.055
108.6,1,0.034,0.004,0.034,0.025,0.011,0.027,-1.602,-0.005,-0.15,107.07,71.0,40.574818,-3.532768,638.2,3,5,124.1,1.055
108.71,1,-0.029,0.005,0.015,0.005,0.008,0.024,-1.604,-0.007,-0.149,107.07,71.0,40.574818,-3.532768,638.2,3,5,124.1,1.055
108.8,1,-0.004,0.004,0.004,-0.007,0.007,0.016,-1.607,-0.007,-0.149,107.07,71.0,40.574818,-3.532768,638.2,3,5,124.1,1.055
108.9,1,-0.02,0.008,-0.012,-0.014,0.005,0.003,-1.604,-0.008,-0.148,108.07,71.0,40.574818,-3.532768,638.2,3,5,124.1,0.703
109.0,1,-0.011,0.007,-0.01,-0.014,0.004,-0.007,-1.604,-0.009,-0.148,108.07,71.0,40.574818,-3.532768,638.2,3,5,124.1,0.703
109.1,1,-0.015,0.008,-0.014,-0.01,0.007,-0.009,-1.605,-0.01,-0.147,108.07,71.0,40.574818,-3.532768,638.2,3,5,124.1,0.703
109.2,1,-0.013,0.009,-0.033,-0.018,0.015,-0.024,-1.602,-0.011,-0.146,108.07,71.0,40.574818,-3.532768,638.2,3,5,124.1,0.703
109.3,1,0.024,-0.039,0.026,0.001,-0.01,-0.004,-1.602,-0.008,-0.145,108.07,71.0,40.574818,-3.532768,638.2,3,5,124.1,0.703
109.41,1,-0.001,-0.008,0.012,0.01,-0.019,0.011,-1.605,-0.006,-0.143,108.07,71.0,40.574818,-3.532768,638.2,3,5,124.1,0.703
109.5,1,-0.05,-0.037,0.023,-0.021,-0.024,0.015,-1.608,-0.002,-0.141,108.07,71.0,40.574818,-3.532768,638.2,3,5,124.1,0.703
109.6,1,-0.008,-0.04,0.009,-0.022,-0.032,0.013,-1.609,0.001,-0.14,108.07,71.0,40.574818,-3.532768,638.2,3,5,124.1,0.703
109.7,1,-0.017,-0.018,0.018,-0.012,-0.033,0.009,-1.612,0.003,-0.138,108.07,71.0,40.574818,-3.532768,638.2,3,5,124.1,0.703
109.8,1,-0.0,-0.015,0.023,-0.01,-0.02,0.018,-1.617,0.004,-0.136,108.07,71.0,40.574818,-3.532768,638.2,3,5,124.1,0.703
109.9,1,-0.035,-0.02,-0.024,-0.018,-0.016,0.005,-1.619,0.005,-0.134,109.06,71.6,40.574615,-3.532379,638.6,3,5,123.8,0.352
110.0,1,-0.008,-0.028,0.015,-0.018,-0.024,0.002,-1.62,0.009,-0.131,109.06,71.6,40.574615,-3.532379,638.6,3,5,123.8,0.352
110.1,1,-0.016,-0.027,0.022,-0.014,-0.026,0.017,-1.625,0.01,-0.128,109.06,71.6,40.574615,-3.532379,638.6,3,5,123.8,0.352
110.2,1,-0.036,-0.007,-0.004,-0.028,-0.014,0.009,-1.626,0.009,-0.126,109.06,71.6,40.574615,-3.532379,638.6,3,5,123.8,0.352
110.3,1,-0.002,-0.024,0.008,-0.018,-0.02,0.006,-1.626,0.009,-0.124,109.06,71.6,40.574615,-3.532379,638.6,3,5,123.8,0.352
110.41,1,0.018,-0.014,0.007,0.002,-0.019,0.008,-1.625,0.011,-0.121,109.06,71.6,40.574615,-3.532379,638.6,3,5,123.8,0.352
110.5,1,-0.062,-0.012,0.01,-0.014,-0.011,0.005,-1.625,0.013,-0.119,109.06,71.6,40.574615,-3.532379,638.6,3,5,123.8,0.352
110.61,1,-0.015,0.012,0.015,-0.034,-0.003,0.01,-1.629,0.015,-0.117,109.06,71.6,40.574615,-3.532379,638.6,3,5,123.8,0.352
110.7,1,0.035,-0.018,0.005,0.001,-0.008,0.011,-1.629,0.017,-0.115,109.06,71.6,40.574615,-3.532379,638.6,3,5,123.8,0.352
110.8,1,-0.006,-0.001,-0.025,0.007,-0.007,-0.006,-1.629,0.02,-0.112,109.06,71.6,40.574615,-3.532379,638.6,3,5,123.8,0.352
110.9,1,-0.03,-0.017,-0.008,-0.008,-0.008,-0.018,-1.631,0.021,-0.11,110.08,72.8,40.574512,-3.53217,639.3,3,5,123.0,0.703
111.01,1,-0.005,0.007,-0.019,-0.015,-0.005,-0.013,-1.631,0.021,-0.108,110.08,72.8,40.574512,-3.53217,639.3,3,5,123.0,0.703
111.12,1,-0.032,0.007,-0.006,-0.017,-0.001,-0.008,-1.63,0.02,-0.106,110.08,72.8,40.574512,-3.53217,639.3,3,5,123.0,0.703
111.21,1,0.012,-0.001,-0.031,-0.012,0.002,-0.016,-1.629,0.019,-0.104,110.08,72.8,40.574512,-3.53217,639.3,3,5,123.0,0.703
111.31,1,-0.033,-0.01,-0.006,-0.014,-0.007,-0.018,-1.63,0.019,-0.102,110.08,72.8,40.574512,-3.53217,639.3,3,5,123.0,0.703
111.41,1,-0.059,-0.009,-0.059,-0.034,-0.006,-0.024,-1.63,0.019,-0.1,110.08,72.8,40.574512,-3.53217,639.3,3,5,123.0,0.703
111.51,1,0.068,-0.05,0.012,-0.006,-0.021,-0.021,-1.626,0.02,-0.098,110.08,72.8,40.574512,-3.53217,639.3,3,5,123.0,0.703
111.61,1,-0.004,-0.003,0.013,0.021,-0.025,-0.0,-1.625,0.019,-0.097,110.08,72.8,40.574512,-3.53217,639.3,3,5,123.0,0.703
111.71,1,-0.017,0.024,-0.04,-0.008,0.003,-0.017,-1.623,0.017,-0.095,110.08,72.8,40.574512,-3.53217,639.3,3,5,123.0,0.703
111.82,1,0.016,-0.006,-0.001,0.005,0.005,-0.014,-1.617,0.017,-0.093,110.08,72.8,40.574512,-3.53217,639.3,3,5,123.0,0.703
111.91,1,-0.046,-0.001,-0.043,-0.008,0.003,-0.023,-1.614,0.018,-0.091,111.06,73.9,40.574413,-3.531963,639.1,3,5,122.0,1.758
112.01,1,-0.003,-0.004,-0.018,-0.027,-0.003,-0.029,-1.612,0.019,-0.09,111.06,73.9,40.574413,-3.531963,639.1,3,5,122.0,1.758
112.21,1,-0.048,0.017,-0.039,-0.025,0.006,-0.015,-1.616,0.02,-0.087,111.06,73.9,40.574413,-3.531963,639.1,3,5,122.0,1.758
112.31,1,-0.033,0.015,-0.006,-0.03,0.008,-0.026,-1.614,0.02,-0.085,111.06,73.9,40.574413,-3.531963,639.1,3,5,122.0,1.758
112.41,1,-0.004,0.006,-0.03,-0.026,0.014,-0.02,-1.614,0.019,-0.084,111.06,73.9,40.574413,-3.531963,639.1,3,5,122.0,1.758
112.51,1,0.037,0.006,-0.015,0.005,0.009,-0.02,-1.613,0.019,-0.082,111.06,73.9,40.574413,-3.531963,639.1,3,5,122.0,1.758
112.62,1,0.039,0.015,-0.016,0.034,0.011,-0.019,-1.611,0.017,-0.081,111.06,73.9,40.574413,-3.531963,639.1,3,5,122.0,1.758
112.71,1,-0.013,0.014,-0.034,0.016,0.013,-0.027,-1.61,0.015,-0.08,111.06,73.9,40.574413,-3.531963,639.1,3,5,122.0,1.758
112.81,1,-0.033,0.004,-0.003,-0.01,0.008,-0.015,-1.61,0.016,-0.078,111.06,73.9,40.574413,-3.531963,639.1,3,5,122.0,1.758
112.92,1,-0.014,-0.004,-0.003,-0.021,0.005,-0.01,-1.612,0.014,-0.077,111.06,73.9,40.574413,-3.531963,639.1,3,5,122.0,1.758
113.01,1,0.012,0.005,0.021,-0.009,0.004,0.004,-1.611,0.012,-0.075,112.05,74.8,40.574318,-3.531754,639.1,3,5,121.3,1.758
113.11,1,0.002,-0.007,0.026,0.003,-0.007,0.019,-1.609,0.012,-0.074,112.05,74.8,40.574318,-3.531754,639.1,3,5,121.3,1.758
113.21,1,-0.031,0.012,0.001,-0.012,0.005,0.011,-1.609,0.014,-0.073,112.05,74.8,40.574318,-3.531754,639.1,3,5,121.3,1.758
113.31,1,0.018,-0.012,0.012,-0.003,0.003,0.014,-1.609,0.013,-0.072,112.05,74.8,40.574318,-3.531754,639.1,3,5,121.3,1.758
113.41,1,-0.055,0.014,-0.043,-0.016,0.007,-0.015,-1.606,0.013,-0.071,112.05,74.8,40.574318,-3.531754,639.1,3,5,121.3,1.758
113.51,1,-0.031,0.019,-0.02,-0.045,0.013,-0.025,-1.603,0.011,-0.07,112.05,74.8,40.574318,-3.531754,639.1,3,5,121.3,1.758
113.61,1,0.028,-0.011,-0.001,-0.003,0.002,-0.013,-1.601,0.01,-0.069,112.05,74.8,40.574318,-3.531754,639.1,3,5,121.3,1.758
113.72,1,-0.028,0.016,-0.051,-0.001,0.003,-0.026,-1.599,0.008,-0.067,112.05,74.8,40.574318,-3.531754,639.1,3,5,121.3,1.758
113.82,1,0.024,0.009,-0.033,-0.004,0.003,-0.031,-1.597,0.008,-0.066,112.05,74.8,40.574318,-3.531754,639.1,3,5,121.3,1.758
113.91,1,-0.024,-0.001,-0.027,-0.0,0.007,-0.026,-1.596,0.007,-0.066,112.05,74.8,40.574318,-3.531754,639.1,3,5,121.3,1.758
114.01,1,-0.041,0.024,-0.044,-0.022,0.012,-0.04,-1.593,0.007,-0.065,113.08,74.7,40.574223,-3.531537,639.7,3,5,120.6,1.406
