Timestamp_Accel,SystemActivated,accelerometerXAxis,accelerometerYAxis,accelerometerZAxis,AccelX_KF,AccelY_KF,AccelZ_KF,gyroscopeXAxis,gyroscopeYAxis,gyroscopeZAxis,Timestamp_GPS,Speed,latitude,longitude,Altitude,VerticalAccuracy,HorizontalAccuracy,Course,Difcourse
25.69,1,-0.074,-0.025,0.016,-0.02,-0.002,0.026,-1.546,-0.037,-0.398,25.73,66.0,40.584137,-3.552038,616.2,3,5,104.8,1.406
25.8,1,-0.022,-0.08,0.015,-0.041,-0.043,0.017,-1.545,-0.037,-0.4,25.73,66.0,40.584137,-3.552038,616.2,3,5,104.8,1.406
25.89,1,0.0,-0.034,0.021,-0.012,-0.055,0.017,-1.545,-0.037,-0.403,25.73,66.0,40.584137,-3.552038,616.2,3,5,104.8,1.406
26.0,1,-0.001,0.025,0.018,-0.013,-0.008,0.017,-1.546,-0.036,-0.404,25.73,66.0,40.584137,-3.552038,616.2,3,5,104.8,1.406
26.1,1,0.032,-0.013,0.048,0.017,-0.007,0.033,-1.546,-0.036,-0.406,25.73,66.0,40.584137,-3.552038,616.2,3,5,104.8,1.406
26.2,1,0.016,-0.005,-0.004,0.016,-0.009,0.022,-1.55,-0.03,-0.407,25.73,66.0,40.584137,-3.552038,616.2,3,5,104.8,1.406
26.3,1,-0.015,-0.002,0.022,0.004,-0.004,0.012,-1.558,-0.027,-0.409,25.73,66.0,40.584137,-3.552038,616.2,3,5,104.8,1.406
26.4,1,0.021,-0.038,-0.008,0.012,-0.018,0.011,-1.565,-0.028,-0.41,25.73,66.0,40.584137,-3.552038,616.2,3,5,104.8,1.406
26.51,1,-0.002,0.001,0.026,0.009,-0.015,0.011,-1.563,-0.028,-0.412,25.73,66.0,40.584137,-3.552038,616.2,3,5,104.8,1.406
26.6,1,-0.003,-0.016,0.002,0.008,-0.013,0.015,-1.563,-0.026,-0.413,25.73,66.0,40.584137,-3.552038,616.2,3,5,104.8,1.406
26.7,1,0.057,-0.048,0.026,-0.0,-0.014,0.007,-1.564,-0.026,-0.415,26.72,65.3,40.584099,-3.551829,616.6,3,5,106.2,2.812
26.8,1,-0.005,-0.024,0.013,0.022,-0.03,0.016,-1.563,-0.028,-0.417,26.72,65.3,40.584099,-3.551829,616.6,3,5,106.2,2.812
26.9,1,-0.084,-0.012,-0.025,-0.027,-0.025,-0.002,-1.561,-0.029,-0.418,26.72,65.3,40.584099,-3.551829,616.6,3,5,106.2,2.812
27.0,1,0.06,-0.017,0.015,-0.017,-0.027,0.003,-1.565,-0.034,-0.42,26.72,65.3,40.584099,-3.551829,616.6,3,5,106.2,2.812
27.11,1,-0.013,0.028,-0.002,0.02,0.003,0.004,-1.565,-0.035,-0.421,26.72,65.3,40.584099,-3.551829,616.6,3,5,106.2,2.812
27.21,1,-0.015,0.042,-0.005,-0.006,0.025,-0.002,-1.565,-0.036,-0.423,26.72,65.3,40.584099,-3.551829,616.6,3,5,106.2,2.812
27.3,1,0.059,0.01,0.026,0.005,0.028,0.006,-1.567,-0.037,-0.425,26.72,65.3,40.584099,-3.551829,616.6,3,5,106.2,2.812
27.4,1,-0.054,0.01,-0.007,0.02,0.013,0.011,-1.567,-0.037,-0.427,26.72,65.3,40.584099,-3.551829,616.6,3,5,106.2,2.812
27.5,1,-0.046,-0.059,-0.006,-0.053,-0.007,-0.005,-1.565,-0.04,-0.429,26.72,65.3,40.584099,-3.551829,616.6,3,5,106.2,2.812
27.6,1,-0.032,0.007,0.015,0.003,-0.033,0.015,-1.565,-0.04,-0.432,26.72,65.3,40.584099,-3.551829,616.6,3,5,106.2,2.812
27.71,1,0.048,-0.004,0.003,-0.026,0.004,-0.007,-1.565,-0.041,-0.433,27.73,66.8,40.584053,-3.55162,616.7,3,5,107.2,2.461
27.8,1,-0.047,0.041,0.006,-0.013,0.018,0.008,-1.566,-0.043,-0.436,27.73,66.8,40.584053,-3.55162,616.7,3,5,107.2,2.461
27.9,1,0.092,-0.006,0.027,0.023,0.008,0.012,-1.566,-0.043,-0.438,27.73,66.8,40.584053,-3.55162,616.7,3,5,107.2,2.461
28.0,1,-0.01,0.082,0.008,0.034,0.043,0.019,-1.566,-0.044,-0.44,27.73,66.8,40.584053,-3.55162,616.7,3,5,107.2,2.461
28.11,1,0.01,0.032,0.016,0.004,0.042,0.009,-1.566,-0.044,-0.442,27.73,66.8,40.584053,-3.55162,616.7,3,5,107.2,2.461
28.21,1,-0.06,-0.007,0.003,-0.006,0.012,0.015,-1.566,-0.044,-0.444,27.73,66.8,40.584053,-3.55162,616.7,3,5,107.2,2.461
28.31,1,-0.029,-0.037,-0.0,-0.034,-0.006,0.002,-1.565,-0.04,-0.445,27.73,66.8,40.584053,-3.55162,616.7,3,5,107.2,2.461
28.41,1,-0.003,0.02,-0.013,-0.019,-0.015,-0.004,-1.563,-0.034,-0.447,27.73,66.8,40.584053,-3.55162,616.7,3,5,107.2,2.461
28.51,1,-0.071,0.068,-0.026,-0.049,0.042,-0.017,-1.564,-0.034,-0.449,27.73,66.8,40.584053,-3.55162,616.7,3,5,107.2,2.461
28.61,1,0.048,0.036,0.053,-0.006,0.042,0.011,-1.566,-0.034,-0.45,27.73,66.8,40.584053,-3.55162,616.7,3,5,107.2,2.461
28.71,1,-0.057,0.02,-0.004,-0.007,0.037,0.02,-1.565,-0.035,-0.452,28.74,67.8,40.584,-3.551411,616.9,3,5,108.3,2.109
28.81,1,0.003,-0.004,0.021,-0.02,0.007,0.007,-1.564,-0.036,-0.454,28.74,67.8,40.584,-3.551411,616.9,3,5,108.3,2.109
28.92,1,0.055,0.012,0.029,0.02,0.01,0.023,-1.565,-0.039,-0.456,28.74,67.8,40.584,-3.551411,616.9,3,5,108.3,2.109
29.01,1,-0.07,-0.029,-0.004,-0.015,-0.006,0.012,-1.564,-0.035,-0.457,28.74,67.8,40.584,-3.551411,616.9,3,5,108.3,2.109
29.11,1,0.032,-0.053,0.016,0.004,-0.036,0.01,-1.564,-0.03,-0.458,28.74,67.8,40.584,-3.551411,616.9,3,5,108.3,2.109
29.21,1,0.011,-0.026,-0.003,0.005,-0.027,0.006,-1.566,-0.028,-0.46,28.74,67.8,40.584,-3.551411,616.9,3,5,108.3,2.109
29.31,1,-0.01,0.03,0.01,-0.005,-0.007,0.005,-1.571,-0.021,-0.46,28.74,67.8,40.584,-3.551411,616.9,3,5,108.3,2.109
29.41,1,0.016,0.045,-0.008,0.014,0.025,0.004,-1.573,-0.019,-0.461,28.74,67.8,40.584,-3.551411,616.9,3,5,108.3,2.109
29.51,1,0.023,0.035,0.004,0.022,0.028,0.002,-1.571,-0.021,-0.462,28.74,67.8,40.584,-3.551411,616.9,3,5,108.3,2.109
29.61,1,0.012,-0.003,-0.003,-0.001,0.026,-0.003,-1.566,-0.022,-0.463,28.74,67.8,40.584,-3.551411,616.9,3,5,108.3,2.109
29.71,1,-0.002,0.002,-0.029,0.012,0.003,-0.013,-1.564,-0.024,-0.464,29.71,68.0,40.583942,-3.55119,617.0,3,5,109.7,2.461
29.81,1,0.025,0.041,-0.013,0.018,0.009,-0.014,-1.57,-0.03,-0.465,29.71,68.0,40.583942,-3.55119,617.0,3,5,109.7,2.461
29.91,1,-0.034,0.0,-0.004,0.007,0.033,-0.008,-1.57,-0.031,-0.466,29.71,68.0,40.583942,-3.55119,617.0,3,5,109.7,2.461
30.02,1,-0.081,0.002,-0.032,-0.05,0.003,-0.02,-1.57,-0.032,-0.467,29.71,68.0,40.583942,-3.55119,617.0,3,5,109.7,2.461
30.12,1,-0.048,-0.025,-0.006,-0.066,-0.002,-0.017,-1.572,-0.032,-0.468,29.71,68.0,40.583942,-3.55119,617.0,3,5,109.7,2.461
30.21,1,-0.026,-0.025,-0.029,-0.032,-0.03,-0.016,-1.572,-0.032,-0.469,29.71,68.0,40.583942,-3.55119,617.0,3,5,109.7,2.461
30.32,1,0.048,0.006,0.011,-0.009,-0.003,-0.013,-1.572,-0.032,-0.47,29.71,68.0,40.583942,-3.55119,617.0,3,5,109.7,2.461
30.42,1,0.033,0.02,0.016,0.014,0.007,-0.0,-1.569,-0.031,-0.471,29.71,68.0,40.583942,-3.55119,617.0,3,5,109.7,2.461
30.51,1,-0.004,0.026,-0.029,0.032,0.009,0.001,-1.564,-0.032,-0.472,29.71,68.0,40.583942,-3.55119,617.0,3,5,109.7,2.461
30.61,1,-0.018,-0.008,0.007,-0.011,0.013,-0.011,-1.563,-0.031,-0.472,29.71,68.0,40.583942,-3.55119,617.0,3,5,109.7,2.461
30.71,1,0.01,-0.05,0.041,-0.011,-0.015,0.019,-1.563,-0.028,-0.473,30.75,69.5,40.58387,-3.550976,617.3,3,5,111.8,3.516
30.81,1,-0.063,-0.021,-0.026,-0.011,-0.029,0.007,-1.561,-0.028,-0.474,30.75,69.5,40.58387,-3.550976,617.3,3,5,111.8,3.516
30.92,1,0.021,-0.001,-0.006,-0.006,-0.018,-0.003,-1.56,-0.027,-0.474,30.75,69.5,40.58387,-3.550976,617.3,3,5,111.8,3.516
31.02,1,0.01,-0.034,0.004,0.007,-0.025,-0.002,-1.564,-0.016,-0.475,30.75,69.5,40.58387,-3.550976,617.3,3,5,111.8,3.516
31.12,1,-0.037,-0.013,0.007,-0.033,-0.006,-0.0,-1.564,-0.014,-0.476,30.75,69.5,40.58387,-3.550976,617.3,3,5,111.8,3.516
31.22,1,-0.005,0.055,-0.005,0.004,0.002,0.004,-1.563,-0.026,-0.477,30.75,69.5,40.58387,-3.550976,617.3,3,5,111.8,3.516
31.32,1,-0.025,0.03,-0.013,-0.039,0.035,-0.01,-1.563,-0.026,-0.478,30.75,69.5,40.58387,-3.550976,617.3,3,5,111.8,3.516
31.42,1,0.008,0.047,0.003,0.002,0.032,-0.002,-1.564,-0.027,-0.48,30.75,69.5,40.58387,-3.550976,617.3,3,5,111.8,3.516
31.52,1,-0.019,0.052,0.005,-0.004,0.047,0.001,-1.565,-0.035,-0.482,30.75,69.5,40.58387,-3.550976,617.3,3,5,111.8,3.516
31.62,1,0.004,0.011,-0.016,-0.017,0.034,-0.008,-1.564,-0.034,-0.484,30.75,69.5,40.58387,-3.550976,617.3,3,5,111.8,3.516
31.72,1,-0.021,0.005,0.0,-0.005,0.015,-0.007,-1.565,-0.032,-0.487,31.75,68.8,40.583805,-3.550771,617.3,3,5,111.8,2.109
31.82,1,-0.01,0.034,0.021,-0.009,0.021,0.012,-1.567,-0.031,-0.489,31.75,68.8,40.583805,-3.550771,617.3,3,5,111.8,2.109
31.92,1,0.013,0.028,-0.025,0.003,0.025,-0.002,-1.566,-0.031,-0.491,31.75,68.8,40.583805,-3.550771,617.3,3,5,111.8,2.109
32.02,1,-0.076,0.024,-0.012,-0.038,0.029,-0.017,-1.567,-0.036,-0.493,31.75,68.8,40.583805,-3.550771,617.3,3,5,111.8,2.109
32.12,1,0.001,-0.0,-0.006,-0.017,0.009,-0.004,-1.565,-0.037,-0.495,31.75,68.8,40.583805,-3.550771,617.3,3,5,111.8,2.109
32.22,1,-0.024,0.015,-0.013,-0.027,0.014,-0.015,-1.565,-0.042,-0.498,31.75,68.8,40.583805,-3.550771,617.3,3,5,111.8,2.109
32.32,1,0.064,0.023,0.021,0.004,0.018,-0.0,-1.569,-0.043,-0.5,31.75,68.8,40.583805,-3.550771,617.3,3,5,111.8,2.109
32.43,1,-0.043,0.039,0.007,0.005,0.026,0.008,-1.564,-0.044,-0.502,31.75,68.8,40.583805,-3.550771,617.3,3,5,111.8,2.109
32.52,1,-0.067,0.005,-0.016,-0.024,0.023,-0.0,-1.565,-0.042,-0.504,31.75,68.8,40.583805,-3.550771,617.3,3,5,111.8,2.109
32.62,1,-0.065,-0.076,-0.014,-0.065,-0.022,-0.012,-1.562,-0.041,-0.505,31.75,68.8,40.583805,-3.550771,617.3,3,5,111.8,2.109
32.72,1,-0.014,-0.064,0.004,-0.037,-0.058,0.0,-1.564,-0.041,-0.507,32.75,69.2,40.583733,-3.550564,617.6,3,5,113.2,1.406
32.82,1,0.008,0.05,0.009,-0.007,-0.017,0.003,-1.564,-0.04,-0.508,32.75,69.2,40.583733,-3.550564,617.6,3,5,113.2,1.406
32.93,1,0.032,0.036,0.007,0.004,0.024,0.003,-1.564,-0.04,-0.509,32.75,69.2,40.583733,-3.550564,617.6,3,5,113.2,1.406
33.03,1,-0.01,0.025,-0.006,0.019,0.028,0.006,-1.564,-0.04,-0.51,32.75,69.2,40.583733,-3.550564,617.6,3,5,113.2,1.406
33.12,1,0.028,0.004,0.016,-0.005,0.025,0.0,-1.564,-0.04,-0.511,32.75,69.2,40.583733,-3.550564,617.6,3,5,113.2,1.406
33.23,1,-0.017,-0.026,0.004,0.014,-0.004,0.013,-1.563,-0.04,-0.513,32.75,69.2,40.583733,-3.550564,617.6,3,5,113.2,1.406
33.33,1,0.077,-0.067,-0.001,0.03,-0.033,0.002,-1.563,-0.04,-0.514,32.75,69.2,40.583733,-3.550564,617.6,3,5,113.2,1.406
33.43,1,-0.033,0.051,-0.009,0.002,-0.016,-0.009,-1.564,-0.041,-0.515,32.75,69.2,40.583733,-3.550564,617.6,3,5,113.2,1.406
33.53,1,-0.009,-0.022,0.024,-0.002,0.003,0.014,-1.564,-0.041,-0.516,32.75,69.2,40.583733,-3.550564,617.6,3,5,113.2,1.406
33.63,1,-0.001,-0.02,-0.009,0.003,-0.016,0.006,-1.563,-0.04,-0.517,32.75,69.2,40.583733,-3.550564,617.6,3,5,113.2,1.406
33.73,1,-0.079,-0.001,-0.023,-0.037,-0.005,-0.011,-1.562,-0.04,-0.517,33.75,68.3,40.58366,-3.550354,617.6,3,5,114.6,2.812
33.83,1,0.056,0.0,0.01,-0.004,-0.016,-0.01,-1.564,-0.043,-0.519,33.75,68.3,40.58366,-3.550354,617.6,3,5,114.6,2.812
33.94,1,-0.042,0.035,-0.018,0.002,0.013,-0.002,-1.563,-0.043,-0.52,33.75,68.3,40.58366,-3.550354,617.6,3,5,114.6,2.812
34.03,1,0.039,-0.041,-0.004,-0.011,0.008,-0.01,-1.563,-0.042,-0.521,33.75,68.3,40.58366,-3.550354,617.6,3,5,114.6,2.812
34.14,1,-0.079,0.016,-0.014,-0.038,0.002,-0.01,-1.563,-0.041,-0.521,33.75,68.3,40.58366,-3.550354,617.6,3,5,114.6,2.812
34.23,1,0.082,-0.101,0.011,0.022,-0.04,0.004,-1.564,-0.041,-0.522,33.75,68.3,40.58366,-3.550354,617.6,3,5,114.6,2.812
34.33,1,-0.039,0.037,-0.013,0.0,-0.03,-0.011,-1.564,-0.04,-0.523,33.75,68.3,40.58366,-3.550354,617.6,3,5,114.6,2.812
34.43,1,0.004,-0.017,0.035,0.003,-0.003,0.012,-1.566,-0.039,-0.523,33.75,68.3,40.58366,-3.550354,617.6,3,5,114.6,2.812
34.54,1,-0.045,-0.043,-0.01,-0.019,-0.023,0.007,-1.565,-0.038,-0.521,33.75,68.3,40.58366,-3.550354,617.6,3,5,114.6,2.812
34.63,1,-0.002,-0.119,-0.013,-0.026,-0.065,-0.006,-1.565,-0.038,-0.52,33.75,68.3,40.58366,-3.550354,617.6,3,5,114.6,2.812
34.73,1,0.007,-0.023,-0.015,-0.006,-0.068,-0.012,-1.564,-0.037,-0.519,34.71,69.1,40.583591,-3.550147,618.1,3,5,116.0,2.812
34.83,1,0.017,-0.033,-0.005,0.011,-0.039,-0.007,-1.564,-0.038,-0.518,34.71,69.1,40.583591,-3.550147,618.1,3,5,116.0,2.812
34.93,1,-0.018,-0.027,-0.006,0.003,-0.032,-0.009,-1.565,-0.036,-0.517,34.71,69.1,40.583591,-3.550147,618.1,3,5,116.0,2.812
35.03,1,0.033,0.013,0.014,0.011,-0.016,0.003,-1.566,-0.023,-0.516,34.71,69.1,40.583591,-3.550147,618.1,3,5,116.0,2.812
35.14,1,-0.019,-0.01,-0.013,0.004,-0.009,-0.003,-1.565,-0.023,-0.516,34.71,69.1,40.583591,-3.550147,618.1,3,5,116.0,2.812
35.24,1,-0.002,-0.018,0.002,-0.003,-0.006,-0.003,-1.565,-0.023,-0.515,34.71,69.1,40.583591,-3.550147,618.1,3,5,116.0,2.812
35.33,1,-0.062,-0.03,-0.013,-0.028,-0.019,-0.007,-1.566,-0.016,-0.515,34.71,69.1,40.583591,-3.550147,618.1,3,5,116.0,2.812
35.43,1,0.002,-0.04,0.004,-0.026,-0.032,-0.003,-1.568,-0.01,-0.515,34.71,69.1,40.583591,-3.550147,618.1,3,5,116.0,2.812
35.53,1,-0.095,0.005,-0.019,-0.043,-0.013,-0.007,-1.566,-0.013,-0.515,34.71,69.1,40.583591,-3.550147,618.1,3,5,116.0,2.812
35.63,1,0.06,-0.013,0.002,-0.015,-0.017,-0.007,-1.564,-0.012,-0.515,34.71,69.1,40.583591,-3.550147,618.1,3,5,116.0,2.812
35.74,1,-0.008,0.043,0.001,0.004,0.005,-0.002,-1.564,-0.015,-0.516,35.74,69.9,40.583508,-3.549937,618.3,3,5,116.7,2.109
35.85,1,-0.08,-0.014,-0.024,-0.037,0.012,-0.013,-1.566,-0.025,-0.517,35.74,69.9,40.583508,-3.549937,618.3,3,5,116.7,2.109
35.94,1,0.003,-0.012,0.012,-0.037,-0.014,-0.007,-1.568,-0.027,-0.518,35.74,69.9,40.583508,-3.549937,618.3,3,5,116.7,2.109
36.04,1,0.099,-0.013,-0.0,0.035,-0.002,0.006,-1.568,-0.029,-0.52,35.74,69.9,40.583508,-3.549937,618.3,3,5,116.7,2.109
36.14,1,-0.074,0.084,-0.027,0.005,0.029,-0.011,-1.566,-0.03,-0.522,35.74,69.9,40.583508,-3.549937,618.3,3,5,116.7,2.109
36.24,1,0.005,0.043,-0.006,-0.007,0.04,-0.007,-1.566,-0.031,-0.524,35.74,69.9,40.583508,-3.549937,618.3,3,5,116.7,2.109
36.35,1,-0.007,0.027,-0.005,-0.009,0.04,-0.01,-1.565,-0.031,-0.526,35.74,69.9,40.583508,-3.549937,618.3,3,5,116.7,2.109
36.45,1,-0.001,0.029,0.018,-0.002,0.029,0.003,-1.565,-0.035,-0.527,35.74,69.9,40.583508,-3.549937,618.3,3,5,116.7,2.109
36.55,1,-0.018,0.041,0.008,-0.006,0.04,0.014,-1.564,-0.037,-0.529,35.74,69.9,40.583508,-3.549937,618.3,3,5,116.7,2.109
36.64,1,0.037,0.023,-0.009,0.008,0.026,-0.001,-1.563,-0.039,-0.531,35.74,69.9,40.583508,-3.549937,618.3,3,5,116.7,2.109
36.74,1,-0.051,0.009,0.002,-0.02,0.027,0.0,-1.565,-0.041,-0.532,36.78,70.0,40.583427,-3.549731,618.6,3,5,117.1,1.055
36.84,1,0.043,-0.029,0.018,0.015,-0.008,0.009,-1.568,-0.042,-0.535,36.78,70.0,40.583427,-3.549731,618.6,3,5,117.1,1.055
36.94,1,-0.006,0.015,-0.006,-0.01,0.005,-0.002,-1.567,-0.041,-0.536,36.78,70.0,40.583427,-3.549731,618.6,3,5,117.1,1.055
37.05,1,0.046,0.005,0.016,0.029,0.001,0.012,-1.567,-0.042,-0.537,36.78,70.0,40.583427,-3.549731,618.6,3,5,117.1,1.055
37.14,1,-0.057,-0.0,-0.019,0.0,0.005,-0.002,-1.565,-0.041,-0.538,36.78,70.0,40.583427,-3.549731,618.6,3,5,117.1,1.055
37.24,1,0.044,-0.074,0.017,0.005,-0.03,0.002,-1.565,-0.041,-0.54,36.78,70.0,40.583427,-3.549731,618.6,3,5,117.1,1.055
37.34,1,-0.025,0.012,0.008,-0.014,-0.015,0.006,-1.565,-0.041,-0.54,36.78,70.0,40.583427,-3.549731,618.6,3,5,117.1,1.055
37.45,1,-0.025,-0.012,0.009,-0.004,-0.016,0.012,-1.566,-0.041,-0.54,36.78,70.0,40.583427,-3.549731,618.6,3,5,117.1,1.055
37.55,1,-0.04,-0.024,-0.021,-0.04,-0.009,-0.007,-1.567,-0.035,-0.54,36.78,70.0,40.583427,-3.549731,618.6,3,5,117.1,1.055
37.65,1,-0.024,-0.116,-0.014,-0.025,-0.06,-0.01,-1.569,-0.04,-0.541,36.78,70.0,40.583427,-3.549731,618.6,3,5,117.1,1.055
37.74,1,-0.027,-0.04,-0.002,-0.023,-0.07,-0.009,-1.569,-0.04,-0.541,37.72,70.6,40.583351,-3.549537,619.0,3,5,119.5,2.812
37.84,1,0.041,-0.024,0.008,0.008,-0.045,0.001,-1.568,-0.041,-0.541,37.72,70.6,40.583351,-3.549537,619.0,3,5,119.5,2.812
37.95,1,-0.017,0.01,-0.009,-0.006,-0.008,-0.001,-1.565,-0.047,-0.541,37.72,70.6,40.583351,-3.549537,619.0,3,5,119.5,2.812
38.05,1,-0.039,-0.043,-0.018,-0.013,-0.023,-0.017,-1.564,-0.051,-0.541,37.72,70.6,40.583351,-3.549537,619.0,3,5,119.5,2.812
38.15,1,0.007,-0.039,-0.003,-0.031,-0.033,-0.007,-1.565,-0.051,-0.541,37.72,70.6,40.583351,-3.549537,619.0,3,5,119.5,2.812
38.26,1,-0.052,-0.0,-0.002,-0.005,-0.033,0.003,-1.565,-0.047,-0.541,37.72,70.6,40.583351,-3.549537,619.0,3,5,119.5,2.812
38.35,1,0.075,-0.024,0.013,0.003,-0.012,0.002,-1.57,-0.042,-0.541,37.72,70.6,40.583351,-3.549537,619.0,3,5,119.5,2.812
38.45,1,-0.039,0.003,-0.008,0.01,-0.017,0.001,-1.568,-0.044,-0.541,37.72,70.6,40.583351,-3.549537,619.0,3,5,119.5,2.812
38.55,1,-0.001,-0.074,-0.011,-0.01,-0.026,-0.007,-1.563,-0.042,-0.541,37.72,70.6,40.583351,-3.549537,619.0,3,5,119.5,2.812
38.65,1,-0.005,-0.04,0.004,-0.007,-0.048,-0.006,-1.559,-0.036,-0.541,37.72,70.6,40.583351,-3.549537,619.0,3,5,119.5,2.812
38.75,1,-0.016,-0.028,-0.006,-0.008,-0.035,-0.002,-1.559,-0.037,-0.541,38.74,71.0,40.583263,-3.549337,619.0,3,5,120.6,3.516
38.85,1,0.053,-0.005,0.023,0.008,-0.03,0.006,-1.56,-0.042,-0.542,38.74,71.0,40.583263,-3.549337,619.0,3,5,120.6,3.516
38.95,1,-0.008,0.076,0.006,0.023,0.019,0.012,-1.562,-0.045,-0.542,38.74,71.0,40.583263,-3.549337,619.0,3,5,120.6,3.516
39.05,1,0.009,0.044,0.005,-0.002,0.062,0.003,-1.561,-0.046,-0.542,38.74,71.0,40.583263,-3.549337,619.0,3,5,120.6,3.516
39.16,1,0.005,-0.049,0.001,0.015,-0.006,0.009,-1.561,-0.046,-0.542,38.74,71.0,40.583263,-3.549337,619.0,3,5,120.6,3.516
39.25,1,-0.008,-0.041,-0.007,-0.005,-0.023,-0.005,-1.561,-0.046,-0.542,38.74,71.0,40.583263,-3.549337,619.0,3,5,120.6,3.516
39.36,1,-0.002,0.004,0.016,-0.0,-0.02,0.006,-1.563,-0.047,-0.543,38.74,71.0,40.583263,-3.549337,619.0,3,5,120.6,3.516
39.45,1,0.013,-0.011,-0.003,-0.002,-0.008,0.006,-1.563,-0.049,-0.545,38.74,71.0,40.583263,-3.549337,619.0,3,5,120.6,3.516
39.55,1,-0.015,0.017,-0.007,0.006,-0.006,-0.005,-1.562,-0.045,-0.546,38.74,71.0,40.583263,-3.549337,619.0,3,5,120.6,3.516
39.65,1,0.05,-0.02,0.01,0.004,0.007,-0.0,-1.563,-0.048,-0.547,38.74,71.0,40.583263,-3.549337,619.0,3,5,120.6,3.516
39.75,1,0.009,0.037,0.014,0.028,-0.002,0.012,-1.563,-0.048,-0.548,39.71,70.4,40.583176,-3.549138,619.1,3,5,121.3,1.758
39.85,1,-0.015,0.01,-0.01,-0.005,0.025,-0.001,-1.56,-0.055,-0.55,39.71,70.4,40.583176,-3.549138,619.1,3,5,121.3,1.758
39.95,1,-0.011,0.012,0.02,0.008,0.005,0.011,-1.56,-0.057,-0.552,39.71,70.4,40.583176,-3.549138,619.1,3,5,121.3,1.758
40.05,1,-0.074,0.004,-0.023,-0.036,0.019,-0.001,-1.559,-0.058,-0.553,39.71,70.4,40.583176,-3.549138,619.1,3,5,121.3,1.758
40.15,1,-0.024,-0.046,0.002,-0.039,-0.016,-0.007,-1.561,-0.058,-0.555,39.71,70.4,40.583176,-3.549138,619.1,3,5,121.3,1.758
40.25,1,0.038,-0.049,0.012,-0.002,-0.045,0.004,-1.561,-0.058,-0.557,39.71,70.4,40.583176,-3.549138,619.1,3,5,121.3,1.758
40.36,1,0.027,0.002,0.011,0.011,-0.021,0.009,-1.561,-0.059,-0.557,39.71,70.4,40.583176,-3.549138,619.1,3,5,121.3,1.758
40.46,1,-0.036,-0.001,-0.024,-0.003,-0.003,-0.006,-1.56,-0.059,-0.558,39.71,70.4,40.583176,-3.549138,619.1,3,5,121.3,1.758
40.56,1,0.024,-0.009,-0.003,0.001,-0.004,-0.011,-1.561,-0.058,-0.559,39.71,70.4,40.583176,-3.549138,619.1,3,5,121.3,1.758
40.67,1,0.005,-0.018,0.01,0.006,-0.012,-0.0,-1.561,-0.052,-0.56,39.71,70.4,40.583176,-3.549138,619.1,3,5,121.3,1.758
40.76,1,0.005,-0.051,0.007,0.01,-0.034,0.009,-1.561,-0.046,-0.56,40.71,70.8,40.58308,-3.548943,619.5,3,5,123.0,2.461
40.86,1,-0.044,-0.019,-0.021,-0.018,-0.03,-0.008,-1.56,-0.046,-0.561,40.71,70.8,40.58308,-3.548943,619.5,3,5,123.0,2.461
40.96,1,0.013,-0.023,-0.002,-0.006,-0.037,-0.006,-1.562,-0.039,-0.562,40.71,70.8,40.58308,-3.548943,619.5,3,5,123.0,2.461
41.07,1,-0.022,0.006,0.008,-0.013,-0.008,0.001,-1.564,-0.035,-0.563,40.71,70.8,40.58308,-3.548943,619.5,3,5,123.0,2.461
41.16,1,-0.033,0.014,-0.004,-0.023,0.006,-0.002,-1.565,-0.037,-0.564,40.71,70.8,40.58308,-3.548943,619.5,3,5,123.0,2.461
41.26,1,-0.06,0.054,0.001,-0.03,0.024,0.002,-1.565,-0.042,-0.565,40.71,70.8,40.58308,-3.548943,619.5,3,5,123.0,2.461
41.36,1,-0.052,-0.077,-0.012,-0.05,0.001,-0.005,-1.565,-0.043,-0.566,40.71,70.8,40.58308,-3.548943,619.5,3,5,123.0,2.461
41.46,1,0.037,0.012,-0.013,-0.013,-0.014,-0.008,-1.565,-0.043,-0.567,40.71,70.8,40.58308,-3.548943,619.5,3,5,123.0,2.461
41.56,1,0.037,0.054,0.009,0.005,0.012,-0.009,-1.566,-0.044,-0.568,40.71,70.8,40.58308,-3.548943,619.5,3,5,123.0,2.461
41.67,1,0.033,0.047,0.001,0.035,0.044,0.005,-1.566,-0.045,-0.568,40.71,70.8,40.58308,-3.548943,619.5,3,5,123.0,2.461
41.77,1,-0.036,0.03,-0.018,0.003,0.025,-0.007,-1.567,-0.046,-0.569,41.73,71.0,40.582985,-3.548746,619.7,3,5,124.5,3.164
41.86,1,0.033,0.05,0.039,0.0,0.04,0.006,-1.567,-0.046,-0.57,41.73,71.0,40.582985,-3.548746,619.7,3,5,124.5,3.164
41.96,1,0.022,-0.02,-0.01,0.023,0.019,0.011,-1.565,-0.045,-0.571,41.73,71.0,40.582985,-3.548746,619.7,3,5,124.5,3.164
42.07,1,-0.012,-0.027,-0.027,0.009,-0.009,-0.01,-1.564,-0.045,-0.572,41.73,71.0,40.582985,-3.548746,619.7,3,5,124.5,3.164
42.16,1,0.047,-0.027,0.009,0.004,-0.012,-0.009,-1.564,-0.045,-0.573,41.73,71.0,40.582985,-3.548746,619.7,3,5,124.5,3.164
42.27,1,-0.015,0.091,0.019,0.031,0.022,0.015,-1.564,-0.046,-0.573,41.73,71.0,40.582985,-3.548746,619.7,3,5,124.5,3.164
42.36,1,-0.056,0.03,-0.015,-0.023,0.048,0.002,-1.563,-0.047,-0.574,41.73,71.0,40.582985,-3.548746,619.7,3,5,124.5,3.164
42.46,1,-0.043,-0.075,-0.007,-0.048,-0.014,-0.01,-1.563,-0.047,-0.574,41.73,71.0,40.582985,-3.548746,619.7,3,5,124.5,3.164
42.56,1,-0.063,-0.012,0.001,-0.04,-0.033,-0.003,-1.564,-0.048,-0.575,41.73,71.0,40.582985,-3.548746,619.7,3,5,124.5,3.164
42.67,1,0.053,-0.058,0.025,-0.015,-0.03,0.008,-1.564,-0.049,-0.576,41.73,71.0,40.582985,-3.548746,619.7,3,5,124.5,3.164
42.77,1,-0.016,0.003,0.007,0.006,-0.029,0.012,-1.561,-0.049,-0.576,42.71,71.3,40.582886,-3.548549,619.9,3,5,126.2,3.164
42.87,1,0.004,0.009,-0.005,-0.003,-0.001,0.004,-1.56,-0.048,-0.577,42.71,71.3,40.582886,-3.548549,619.9,3,5,126.2,3.164
42.97,1,-0.034,-0.015,-0.02,-0.024,0.001,-0.009,-1.558,-0.051,-0.577,42.71,71.3,40.582886,-3.548549,619.9,3,5,126.2,3.164
43.07,1,-0.024,-0.012,-0.01,-0.007,-0.02,-0.005,-1.558,-0.059,-0.578,42.71,71.3,40.582886,-3.548549,619.9,3,5,126.2,3.164
43.17,1,0.039,0.018,0.024,-0.009,0.004,-0.001,-1.561,-0.06,-0.579,42.71,71.3,40.582886,-3.548549,619.9,3,5,126.2,3.164
43.27,1,-0.055,0.068,0.011,-0.004,0.023,0.016,-1.561,-0.06,-0.579,42.71,71.3,40.582886,-3.548549,619.9,3,5,126.2,3.164
43.37,1,-0.01,0.051,0.001,-0.026,0.051,0.001,-1.559,-0.06,-0.58,42.71,71.3,40.582886,-3.548549,619.9,3,5,126.2,3.164
43.48,1,-0.003,-0.029,0.013,-0.009,0.024,0.009,-1.559,-0.061,-0.58,42.71,71.3,40.582886,-3.548549,619.9,3,5,126.2,3.164
43.57,1,-0.047,-0.053,-0.023,-0.022,-0.022,-0.003,-1.558,-0.061,-0.581,42.71,71.3,40.582886,-3.548549,619.9,3,5,126.2,3.164
43.67,1,-0.042,-0.059,-0.007,-0.039,-0.044,-0.01,-1.559,-0.06,-0.582,42.71,71.3,40.582886,-3.548549,619.9,3,5,126.2,3.164
43.77,1,-0.02,0.013,0.002,-0.03,-0.022,-0.008,-1.564,-0.05,-0.582,43.71,71.0,40.582779,-3.548353,620.1,3,5,127.3,2.812
43.87,1,-0.001,-0.018,0.003,-0.017,-0.018,0.003,-1.561,-0.045,-0.582,43.71,71.0,40.582779,-3.548353,620.1,3,5,127.3,2.812
43.97,1,-0.03,-0.015,0.024,-0.009,-0.016,0.012,-1.557,-0.038,-0.582,43.71,71.0,40.582779,-3.548353,620.1,3,5,127.3,2.812
44.07,1,0.005,-0.034,0.007,-0.025,-0.022,0.007,-1.556,-0.037,-0.581,43.71,71.0,40.582779,-3.548353,620.1,3,5,127.3,2.812
44.17,1,0.007,-0.029,0.029,0.007,-0.028,0.018,-1.557,-0.038,-0.581,43.71,71.0,40.582779,-3.548353,620.1,3,5,127.3,2.812
44.27,1,0.056,-0.026,-0.002,0.018,-0.03,0.011,-1.557,-0.036,-0.581,43.71,71.0,40.582779,-3.548353,620.1,3,5,127.3,2.812
44.37,1,0.03,0.005,0.012,0.035,-0.014,0.01,-1.558,-0.036,-0.581,43.71,71.0,40.582779,-3.548353,620.1,3,5,127.3,2.812
44.47,1,0.012,0.048,0.007,0.031,0.016,0.009,-1.557,-0.038,-0.58,43.71,71.0,40.582779,-3.548353,620.1,3,5,127.3,2.812
44.57,1,-0.052,-0.036,0.007,-0.02,0.004,0.009,-1.557,-0.04,-0.58,43.71,71.0,40.582779,-3.548353,620.1,3,5,127.3,2.812
44.67,1,-0.042,-0.048,0.01,-0.026,-0.016,0.013,-1.557,-0.04,-0.58,43.71,71.0,40.582779,-3.548353,620.1,3,5,127.3,2.812
44.87,1,-0.026,0.018,0.007,-0.009,-0.015,0.012,-1.557,-0.04,-0.581,44.71,71.3,40.582668,-3.548169,620.2,3,5,128.3,2.109
44.97,1,0.058,0.003,0.01,0.01,-0.004,0.009,-1.556,-0.041,-0.582,44.71,71.3,40.582668,-3.548169,620.2,3,5,128.3,2.109
45.07,1,-0.023,-0.018,0.006,0.001,-0.001,0.004,-1.557,-0.042,-0.582,44.71,71.3,40.582668,-3.548169,620.2,3,5,128.3,2.109
45.18,1,-0.056,0.001,-0.023,-0.015,-0.014,-0.002,-1.557,-0.043,-0.584,44.71,71.3,40.582668,-3.548169,620.2,3,5,128.3,2.109
45.27,1,0.011,0.021,0.016,-0.018,0.002,-0.003,-1.558,-0.043,-0.585,44.71,71.3,40.582668,-3.548169,620.2,3,5,128.3,2.109
45.37,1,-0.048,0.048,0.02,-0.02,0.028,0.014,-1.559,-0.044,-0.585,44.71,71.3,40.582668,-3.548169,620.2,3,5,128.3,2.109
45.48,1,-0.03,0.024,0.002,-0.027,0.03,0.011,-1.558,-0.044,-0.586,44.71,71.3,40.582668,-3.548169,620.2,3,5,128.3,2.109
45.58,1,-0.064,0.018,0.004,-0.068,0.029,-0.0,-1.558,-0.044,-0.587,44.71,71.3,40.582668,-3.548169,620.2,3,5,128.3,2.109
45.68,1,-0.065,0.053,-0.015,-0.043,0.021,0.001,-1.558,-0.044,-0.588,44.71,71.3,40.582668,-3.548169,620.2,3,5,128.3,2.109
45.79,1,-0.011,0.025,-0.003,-0.032,0.039,-0.002,-1.557,-0.045,-0.588,44.71,71.3,40.582668,-3.548169,620.2,3,5,128.3,2.109
45.88,1,-0.018,-0.018,-0.01,-0.026,0.012,-0.009,-1.557,-0.045,-0.589,45.78,71.5,40.58255,-3.547986,620.6,3,5,129.4,2.109
45.98,1,0.027,0.007,-0.0,-0.012,0.004,-0.004,-1.557,-0.045,-0.59,45.78,71.5,40.58255,-3.547986,620.6,3,5,129.4,2.109
46.08,1,-0.038,0.086,-0.001,-0.012,0.039,-0.002,-1.552,-0.043,-0.591,45.78,71.5,40.58255,-3.547986,620.6,3,5,129.4,2.109
46.18,1,0.082,0.07,0.02,0.025,0.054,0.001,-1.553,-0.034,-0.592,45.78,71.5,40.58255,-3.547986,620.6,3,5,129.4,2.109
46.28,1,-0.034,0.014,-0.001,0.014,0.058,0.012,-1.553,-0.034,-0.592,45.78,71.5,40.58255,-3.547986,620.6,3,5,129.4,2.109
46.38,1,-0.08,0.007,-0.012,-0.023,0.015,-0.006,-1.552,-0.034,-0.592,45.78,71.5,40.58255,-3.547986,620.6,3,5,129.4,2.109
46.49,1,0.03,-0.086,0.012,-0.031,-0.019,0.003,-1.553,-0.034,-0.593,45.78,71.5,40.58255,-3.547986,620.6,3,5,129.4,2.109
46.59,1,0.019,0.016,0.008,0.016,-0.032,0.01,-1.553,-0.034,-0.593,45.78,71.5,40.58255,-3.547986,620.6,3,5,129.4,2.109
46.68,1,0.013,0.055,0.01,0.01,0.027,0.009,-1.552,-0.035,-0.594,45.78,71.5,40.58255,-3.547986,620.6,3,5,129.4,2.109
46.79,1,-0.017,0.033,0.025,-0.008,0.035,0.014,-1.552,-0.035,-0.594,45.78,71.5,40.58255,-3.547986,620.6,3,5,129.4,2.109
46.88,1,-0.038,-0.012,-0.014,-0.012,0.01,0.002,-1.553,-0.035,-0.594,46.72,71.7,40.582436,-3.547816,620.8,3,5,130.8,2.461
46.98,1,0.007,-0.008,0.0,-0.001,-0.007,0.004,-1.557,-0.033,-0.595,46.72,71.7,40.582436,-3.547816,620.8,3,5,130.8,2.461
47.08,1,-0.006,-0.003,0.011,-0.011,-0.001,0.0,-1.557,-0.036,-0.595,46.72,71.7,40.582436,-3.547816,620.8,3,5,130.8,2.461
47.18,1,-0.031,-0.008,0.006,-0.018,0.0,0.008,-1.557,-0.041,-0.595,46.72,71.7,40.582436,-3.547816,620.8,3,5,130.8,2.461
47.28,1,0.067,-0.016,0.024,0.007,-0.014,0.012,-1.559,-0.044,-0.595,46.72,71.7,40.582436,-3.547816,620.8,3,5,130.8,2.461
47.38,1,-0.064,-0.003,-0.007,-0.01,-0.002,0.004,-1.559,-0.046,-0.595,46.72,71.7,40.582436,-3.547816,620.8,3,5,130.8,2.461
47.49,1,-0.02,-0.018,0.011,-0.022,-0.016,0.007,-1.554,-0.037,-0.594,46.72,71.7,40.582436,-3.547816,620.8,3,5,130.8,2.461
47.59,1,0.022,-0.035,0.008,-0.005,-0.019,0.012,-1.554,-0.035,-0.593,46.72,71.7,40.582436,-3.547816,620.8,3,5,130.8,2.461
47.68,1,0.03,-0.024,0.046,0.019,-0.035,0.022,-1.554,-0.036,-0.592,46.72,71.7,40.582436,-3.547816,620.8,3,5,130.8,2.461
47.79,1,-0.089,-0.013,-0.05,-0.033,-0.013,-0.003,-1.553,-0.033,-0.591,46.72,71.7,40.582436,-3.547816,620.8,3,5,130.8,2.461
47.89,1,0.016,-0.063,0.02,-0.028,-0.045,-0.008,-1.558,-0.032,-0.59,47.75,72.3,40.582314,-3.547645,621.6,3,5,131.8,2.461
47.99,1,0.073,-0.008,0.018,0.047,-0.036,0.016,-1.559,-0.034,-0.589,47.75,72.3,40.582314,-3.547645,621.6,3,5,131.8,2.461
48.09,1,-0.03,0.026,-0.02,0.007,0.002,0.003,-1.557,-0.034,-0.588,47.75,72.3,40.582314,-3.547645,621.6,3,5,131.8,2.461
48.19,1,0.001,-0.009,-0.003,-0.003,0.008,-0.009,-1.557,-0.034,-0.587,47.75,72.3,40.582314,-3.547645,621.6,3,5,131.8,2.461
48.29,1,0.048,0.001,-0.008,0.016,-0.001,-0.003,-1.556,-0.034,-0.586,47.75,72.3,40.582314,-3.547645,621.6,3,5,131.8,2.461
48.39,1,-0.031,0.054,0.005,0.012,0.03,-0.001,-1.556,-0.029,-0.585,47.75,72.3,40.582314,-3.547645,621.6,3,5,131.8,2.461
48.49,1,0.009,-0.001,-0.001,-0.015,0.024,-0.004,-1.556,-0.03,-0.584,47.75,72.3,40.582314,-3.547645,621.6,3,5,131.8,2.461
48.59,1,0.05,-0.019,-0.005,0.011,-0.005,-0.006,-1.555,-0.03,-0.584,47.75,72.3,40.582314,-3.547645,621.6,3,5,131.8,2.461
48.7,1,-0.001,0.021,-0.005,0.044,-0.006,0.0,-1.555,-0.031,-0.583,47.75,72.3,40.582314,-3.547645,621.6,3,5,131.8,2.461
48.79,1,0.055,-0.017,0.016,0.019,0.005,0.001,-1.558,-0.034,-0.582,47.75,72.3,40.582314,-3.547645,621.6,3,5,131.8,2.461
48.89,1,-0.053,0.036,-0.007,0.006,0.006,0.007,-1.558,-0.037,-0.581,48.71,72.3,40.582191,-3.547471,621.2,3,5,132.9,2.109
48.99,1,-0.006,-0.007,0.034,-0.017,0.006,0.008,-1.561,-0.034,-0.581,48.71,72.3,40.582191,-3.547471,621.2,3,5,132.9,2.109
49.1,1,-0.021,-0.062,-0.005,-0.026,-0.017,0.01,-1.56,-0.035,-0.58,48.71,72.3,40.582191,-3.547471,621.2,3,5,132.9,2.109
49.2,1,0.004,-0.035,-0.023,0.007,-0.043,-0.004,-1.558,-0.036,-0.579,48.71,72.3,40.582191,-3.547471,621.2,3,5,132.9,2.109
49.29,1,0.014,0.015,0.003,0.006,-0.015,-0.008,-1.558,-0.036,-0.578,48.71,72.3,40.582191,-3.547471,621.2,3,5,132.9,2.109
49.39,1,-0.023,0.002,-0.0,-0.018,0.01,-0.0,-1.557,-0.036,-0.577,48.71,72.3,40.582191,-3.547471,621.2,3,5,132.9,2.109
49.49,1,-0.06,-0.021,-0.024,-0.019,-0.016,-0.011,-1.558,-0.036,-0.577,48.71,72.3,40.582191,-3.547471,621.2,3,5,132.9,2.109
49.59,1,-0.007,0.0,0.024,-0.021,-0.008,-0.0,-1.559,-0.036,-0.576,48.71,72.3,40.582191,-3.547471,621.2,3,5,132.9,2.109
49.69,1,-0.001,-0.006,0.006,-0.02,-0.003,0.006,-1.561,-0.034,-0.575,48.71,72.3,40.582191,-3.547471,621.2,3,5,132.9,2.109
49.79,1,-0.011,0.003,-0.014,-0.004,-0.003,0.004,-1.557,-0.032,-0.575,48.71,72.3,40.582191,-3.547471,621.2,3,5,132.9,2.109
49.9,1,-0.009,0.025,0.021,-0.012,0.011,0.002,-1.551,-0.036,-0.574,49.74,72.3,40.582066,-3.547307,621.2,3,5,133.6,1.758
49.99,1,-0.034,-0.003,-0.004,-0.02,0.004,0.01,-1.552,-0.035,-0.573,49.74,72.3,40.582066,-3.547307,621.2,3,5,133.6,1.758
50.09,1,0.014,-0.009,-0.003,-0.004,-0.0,0.004,-1.553,-0.034,-0.572,49.74,72.3,40.582066,-3.547307,621.2,3,5,133.6,1.758
50.19,1,0.004,0.039,-0.004,-0.007,0.016,-0.008,-1.552,-0.031,-0.57,49.74,72.3,40.582066,-3.547307,621.2,3,5,133.6,1.758
50.3,1,-0.037,-0.006,0.009,-0.015,0.011,-0.002,-1.552,-0.03,-0.568,49.74,72.3,40.582066,-3.547307,621.2,3,5,133.6,1.758
50.4,1,0.006,0.01,0.002,-0.009,0.008,0.004,-1.552,-0.03,-0.566,49.74,72.3,40.582066,-3.547307,621.2,3,5,133.6,1.758
50.5,1,-0.052,-0.029,-0.003,-0.023,-0.004,0.001,-1.552,-0.03,-0.564,49.74,72.3,40.582066,-3.547307,621.2,3,5,133.6,1.758
50.6,1,-0.013,-0.083,0.006,-0.019,-0.051,0.005,-1.553,-0.023,-0.561,49.74,72.3,40.582066,-3.547307,621.2,3,5,133.6,1.758
50.7,1,0.026,-0.022,-0.002,-0.005,-0.036,-0.001,-1.553,-0.022,-0.559,49.74,72.3,40.582066,-3.547307,621.2,3,5,133.6,1.758
50.8,1,-0.01,0.04,0.001,0.003,-0.003,0.001,-1.551,-0.021,-0.556,49.74,72.3,40.582066,-3.547307,621.2,3,5,133.6,1.758
50.91,1,0.005,-0.021,-0.01,-0.005,-0.003,-0.007,-1.551,-0.021,-0.553,50.72,72.5,40.581944,-3.547127,621.9,3,5,134.3,1.406
51.0,1,-0.028,-0.044,0.013,-0.01,-0.02,0.003,-1.551,-0.021,-0.55,50.72,72.5,40.581944,-3.547127,621.9,3,5,134.3,1.406
51.11,1,-0.048,-0.043,-0.007,-0.018,-0.041,0.005,-1.55,-0.021,-0.548,50.72,72.5,40.581944,-3.547127,621.9,3,5,134.3,1.406
51.2,1,0.094,-0.062,0.048,-0.002,-0.043,0.015,-1.548,-0.017,-0.545,50.72,72.5,40.581944,-3.547127,621.9,3,5,134.3,1.406
51.3,1,-0.009,-0.002,0.002,0.027,-0.027,0.022,-1.548,-0.014,-0.543,50.72,72.5,40.581944,-3.547127,621.9,3,5,134.3,1.406
51.4,1,0.005,0.017,0.005,0.014,-0.016,0.007,-1.547,-0.014,-0.539,50.72,72.5,40.581944,-3.547127,621.9,3,5,134.3,1.406
51.5,1,0.03,-0.03,0.004,0.022,-0.022,0.002,-1.547,-0.014,-0.537,50.72,72.5,40.581944,-3.547127,621.9,3,5,134.3,1.406
51.61,1,-0.064,0.029,0.015,-0.015,0.007,0.017,-1.547,-0.008,-0.534,50.72,72.5,40.581944,-3.547127,621.9,3,5,134.3,1.406
51.7,1,-0.054,0.008,-0.008,-0.035,0.009,-0.002,-1.545,-0.004,-0.532,50.72,72.5,40.581944,-3.547127,621.9,3,5,134.3,1.406
51.81,1,-0.053,-0.022,0.011,-0.059,0.004,0.006,-1.546,0.001,-0.529,50.72,72.5,40.581944,-3.547127,621.9,3,5,134.3,1.406
51.9,1,-0.02,-0.014,0.02,-0.033,-0.017,0.016,-1.555,0.011,-0.527,51.71,72.3,40.581814,-3.54695,622.5,3,5,134.3,0.703
52.0,1,-0.026,0.022,0.012,-0.045,0.003,0.011,-1.555,0.01,-0.525,51.71,72.3,40.581814,-3.54695,622.5,3,5,134.3,0.703
52.11,1,-0.076,0.009,-0.022,-0.037,0.01,0.002,-1.557,0.01,-0.524,51.71,72.3,40.581814,-3.54695,622.5,3,5,134.3,0.703
52.21,1,0.036,0.027,-0.003,-0.019,0.008,-0.012,-1.558,0.003,-0.523,51.71,72.3,40.581814,-3.54695,622.5,3,5,134.3,0.703
52.31,1,-0.041,0.095,-0.004,-0.016,0.06,-0.003,-1.558,-0.004,-0.522,51.71,72.3,40.581814,-3.54695,622.5,3,5,134.3,0.703
52.4,1,-0.052,0.044,0.004,-0.035,0.055,-0.002,-1.558,-0.004,-0.521,51.71,72.3,40.581814,-3.54695,622.5,3,5,134.3,0.703
52.51,1,0.058,-0.011,0.016,-0.003,0.026,0.011,-1.558,-0.005,-0.52,51.71,72.3,40.581814,-3.54695,622.5,3,5,134.3,0.703
52.6,1,-0.083,0.05,-0.002,-0.018,0.03,0.003,-1.554,-0.008,-0.519,51.71,72.3,40.581814,-3.54695,622.5,3,5,134.3,0.703
52.7,1,0.009,0.002,-0.005,-0.027,0.023,-0.005,-1.548,-0.017,-0.518,51.71,72.3,40.581814,-3.54695,622.5,3,5,134.3,0.703
52.81,1,-0.002,0.043,0.032,-0.006,0.023,0.014,-1.548,-0.02,-0.517,51.71,72.3,40.581814,-3.54695,622.5,3,5,134.3,0.703
52.91,1,-0.024,0.012,0.005,-0.002,0.022,0.02,-1.551,-0.022,-0.517,52.72,72.7,40.581684,-3.546783,622.7,3,5,133.9,0.352
53.01,1,-0.041,0.034,-0.017,-0.043,0.031,-0.009,-1.553,-0.024,-0.517,52.72,72.7,40.581684,-3.546783,622.7,3,5,133.9,0.352
53.11,1,-0.058,0.036,-0.009,-0.046,0.036,-0.005,-1.551,-0.029,-0.516,52.72,72.7,40.581684,-3.546783,622.7,3,5,133.9,0.352
53.21,1,0.014,0.035,0.023,-0.025,0.027,0.003,-1.551,-0.032,-0.516,52.72,72.7,40.581684,-3.546783,622.7,3,5,133.9,0.352
53.31,1,0.023,0.038,0.025,0.021,0.024,0.021,-1.55,-0.036,-0.517,52.72,72.7,40.581684,-3.546783,622.7,3,5,133.9,0.352
53.41,1,-0.04,0.017,-0.024,-0.017,0.036,0.001,-1.548,-0.036,-0.516,52.72,72.7,40.581684,-3.546783,622.7,3,5,133.9,0.352
53.51,1,0.05,-0.012,0.031,0.011,0.004,0.004,-1.548,-0.035,-0.516,52.72,72.7,40.581684,-3.546783,622.7,3,5,133.9,0.352
53.61,1,-0.018,0.03,-0.001,0.007,0.008,0.009,-1.549,-0.036,-0.517,52.72,72.7,40.581684,-3.546783,622.7,3,5,133.9,0.352
53.71,1,-0.054,0.013,0.014,-0.027,0.025,0.012,-1.549,-0.036,-0.516,52.72,72.7,40.581684,-3.546783,622.7,3,5,133.9,0.352
53.81,1,-0.074,0.047,0.013,-0.046,0.025,0.01,-1.55,-0.036,-0.516,52.72,72.7,40.581684,-3.546783,622.7,3,5,133.9,0.352
53.91,1,0.042,0.013,0.015,-0.018,0.022,0.012,-1.548,-0.035,-0.515,53.75,72.6,40.581562,-3.546613,622.8,3,5,134.3,0.352
54.01,1,0.04,0.029,0.003,0.02,0.029,0.01,-1.547,-0.034,-0.514,53.75,72.6,40.581562,-3.546613,622.8,3,5,134.3,0.352
54.11,1,0.007,0.078,0.027,0.018,0.051,0.014,-1.547,-0.034,-0.513,53.75,72.6,40.581562,-3.546613,622.8,3,5,134.3,0.352
54.21,1,-0.034,0.083,0.008,-0.004,0.073,0.019,-1.546,-0.034,-0.512,53.75,72.6,40.581562,-3.546613,622.8,3,5,134.3,0.352
54.31,1,-0.037,-0.036,0.007,-0.019,0.025,0.008,-1.545,-0.033,-0.512,53.75,72.6,40.581562,-3.546613,622.8,3,5,134.3,0.352
54.41,1,0.023,0.009,0.006,-0.004,-0.001,0.009,-1.546,-0.033,-0.511,53.75,72.6,40.581562,-3.546613,622.8,3,5,134.3,0.352
54.51,1,-0.023,0.097,0.005,-0.012,0.045,0.004,-1.546,-0.033,-0.51,53.75,72.6,40.581562,-3.546613,622.8,3,5,134.3,0.352
54.62,1,-0.025,-0.008,0.02,-0.03,0.048,0.01,-1.546,-0.033,-0.51,53.75,72.6,40.581562,-3.546613,622.8,3,5,134.3,0.352
54.71,1,-0.009,0.007,0.012,-0.011,0.013,0.022,-1.546,-0.033,-0.51,53.75,72.6,40.581562,-3.546613,622.8,3,5,134.3,0.352
54.81,1,0.053,-0.024,0.006,0.02,-0.011,0.007,-1.545,-0.032,-0.51,53.75,72.6,40.581562,-3.546613,622.8,3,5,134.3,0.352
54.91,1,-0.014,0.013,-0.001,0.004,0.006,0.003,-1.544,-0.033,-0.51,54.72,72.6,40.581432,-3.546439,623.3,3,5,135.4,1.406
55.01,1,-0.009,0.034,0.028,0.002,0.014,0.012,-1.548,-0.047,-0.51,54.72,72.6,40.581432,-3.546439,623.3,3,5,135.4,1.406
55.11,1,-0.032,-0.007,-0.016,-0.024,0.017,0.005,-1.553,-0.055,-0.51,54.72,72.6,40.581432,-3.546439,623.3,3,5,135.4,1.406
55.21,1,0.002,0.013,0.008,-0.012,0.006,-0.001,-1.553,-0.056,-0.51,54.72,72.6,40.581432,-3.546439,623.3,3,5,135.4,1.406
55.31,1,0.021,-0.005,0.02,0.007,-0.002,0.011,-1.553,-0.055,-0.51,54.72,72.6,40.581432,-3.546439,623.3,3,5,135.4,1.406
55.41,1,-0.024,0.028,0.01,0.002,0.019,0.013,-1.558,-0.054,-0.51,54.72,72.6,40.581432,-3.546439,623.3,3,5,135.4,1.406
55.52,1,-0.01,-0.016,-0.008,-0.016,0.003,0.003,-1.557,-0.054,-0.51,54.72,72.6,40.581432,-3.546439,623.3,3,5,135.4,1.406
55.62,1,-0.002,-0.049,-0.0,-0.013,-0.027,-0.006,-1.557,-0.054,-0.51,54.72,72.6,40.581432,-3.546439,623.3,3,5,135.4,1.406
55.72,1,0.007,0.013,-0.009,0.011,-0.018,-0.0,-1.558,-0.054,-0.51,54.72,72.6,40.581432,-3.546439,623.3,3,5,135.4,1.406
55.82,1,-0.013,0.011,-0.006,-0.003,0.009,-0.004,-1.557,-0.054,-0.508,54.72,72.6,40.581432,-3.546439,623.3,3,5,135.4,1.406
55.92,1,0.055,-0.084,0.001,0.006,-0.025,-0.008,-1.556,-0.053,-0.507,55.72,72.3,40.581303,-3.546271,623.5,3,5,135.7,1.406
56.02,1,-0.039,0.014,-0.025,0.006,-0.028,-0.012,-1.557,-0.051,-0.506,55.72,72.3,40.581303,-3.546271,623.5,3,5,135.7,1.406
56.12,1,-0.019,-0.013,0.01,-0.006,-0.013,-0.003,-1.558,-0.05,-0.504,55.72,72.3,40.581303,-3.546271,623.5,3,5,135.7,1.406
56.22,1,-0.017,-0.071,0.019,-0.012,-0.039,0.01,-1.558,-0.05,-0.502,55.72,72.3,40.581303,-3.546271,623.5,3,5,135.7,1.406
56.33,1,-0.047,-0.066,-0.027,-0.034,-0.053,-0.006,-1.558,-0.049,-0.5,55.72,72.3,40.581303,-3.546271,623.5,3,5,135.7,1.406
56.43,1,-0.043,-0.118,-0.013,-0.047,-0.076,-0.012,-1.559,-0.047,-0.498,55.72,72.3,40.581303,-3.546271,623.5,3,5,135.7,1.406
56.52,1,0.004,-0.087,-0.008,-0.025,-0.095,-0.013,-1.56,-0.046,-0.495,55.72,72.3,40.581303,-3.546271,623.5,3,5,135.7,1.406
56.62,1,0.046,-0.018,0.04,0.012,-0.067,0.01,-1.561,-0.047,-0.492,55.72,72.3,40.581303,-3.546271,623.5,3,5,135.7,1.406
56.72,1,-0.006,-0.06,-0.027,0.01,-0.045,0.006,-1.558,-0.046,-0.49,55.72,72.3,40.581303,-3.546271,623.5,3,5,135.7,1.406
56.82,1,0.036,-0.122,-0.021,0.029,-0.09,-0.013,-1.557,-0.044,-0.486,55.72,72.3,40.581303,-3.546271,623.5,3,5,135.7,1.406
56.92,1,0.02,-0.078,-0.011,0.014,-0.088,-0.019,-1.557,-0.042,-0.482,56.72,72.4,40.581177,-3.546108,623.7,3,5,136.4,1.055
57.03,1,0.03,-0.082,0.006,0.034,-0.086,-0.001,-1.56,-0.04,-0.478,56.72,72.4,40.581177,-3.546108,623.7,3,5,136.4,1.055
57.12,1,-0.063,0.007,-0.018,-0.013,-0.044,-0.011,-1.564,-0.039,-0.473,56.72,72.4,40.581177,-3.546108,623.7,3,5,136.4,1.055
57.22,1,0.007,-0.13,0.007,-0.007,-0.071,-0.0,-1.565,-0.039,-0.47,56.72,72.4,40.581177,-3.546108,623.7,3,5,136.4,1.055
57.33,1,-0.029,-0.048,-0.018,-0.021,-0.07,-0.009,-1.564,-0.04,-0.466,56.72,72.4,40.581177,-3.546108,623.7,3,5,136.4,1.055
57.42,1,-0.072,-0.078,-0.015,-0.045,-0.063,-0.012,-1.563,-0.044,-0.462,56.72,72.4,40.581177,-3.546108,623.7,3,5,136.4,1.055
57.52,1,0.02,-0.156,-0.03,-0.032,-0.115,-0.023,-1.562,-0.049,-0.46,56.72,72.4,40.581177,-3.546108,623.7,3,5,136.4,1.055
57.63,1,0.029,-0.055,-0.017,0.003,-0.102,-0.023,-1.562,-0.049,-0.455,56.72,72.4,40.581177,-3.546108,623.7,3,5,136.4,1.055
57.73,1,-0.058,-0.037,-0.014,-0.004,-0.057,-0.016,-1.563,-0.049,-0.452,56.72,72.4,40.581177,-3.546108,623.7,3,5,136.4,1.055
57.83,1,-0.006,-0.1,-0.015,-0.023,-0.063,-0.012,-1.563,-0.05,-0.449,56.72,72.4,40.581177,-3.546108,623.7,3,5,136.4,1.055
57.93,1,-0.02,-0.052,-0.006,-0.023,-0.076,-0.013,-1.563,-0.05,-0.446,57.72,72.1,40.581047,-3.545941,623.7,3,5,135.4,1.055
58.03,1,-0.005,-0.047,-0.016,-0.004,-0.062,-0.014,-1.563,-0.051,-0.444,57.72,72.1,40.581047,-3.545941,623.7,3,5,135.4,1.055
58.13,1,-0.005,-0.024,0.008,-0.01,-0.039,-0.006,-1.565,-0.045,-0.441,57.72,72.1,40.581047,-3.545941,623.7,3,5,135.4,1.055
58.23,1,-0.008,-0.059,-0.013,0.0,-0.05,0.001,-1.567,-0.044,-0.439,57.72,72.1,40.581047,-3.545941,623.7,3,5,135.4,1.055
58.33,1,-0.001,-0.02,-0.024,-0.008,-0.034,-0.019,-1.566,-0.042,-0.438,57.72,72.1,40.581047,-3.545941,623.7,3,5,135.4,1.055
58.43,1,-0.023,0.015,-0.017,-0.021,-0.007,-0.021,-1.562,-0.037,-0.437,57.72,72.1,40.581047,-3.545941,623.7,3,5,135.4,1.055
58.53,1,-0.01,0.002,0.006,-0.005,0.002,-0.004,-1.565,-0.03,-0.436,57.72,72.1,40.581047,-3.545941,623.7,3,5,135.4,1.055
58.63,1,-0.033,-0.011,-0.026,-0.025,-0.011,-0.012,-1.566,-0.03,-0.436,57.72,72.1,40.581047,-3.545941,623.7,3,5,135.4,1.055
58.74,1,-0.005,-0.027,-0.01,-0.011,-0.014,-0.013,-1.566,-0.033,-0.435,57.72,72.1,40.581047,-3.545941,623.7,3,5,135.4,1.055
58.83,1,-0.062,0.019,-0.026,-0.028,-0.013,-0.018,-1.565,-0.038,-0.434,57.72,72.1,40.581047,-3.545941,623.7,3,5,135.4,1.055
58.93,1,-0.023,-0.063,-0.006,-0.043,-0.023,-0.017,-1.565,-0.05,-0.434,58.73,72.0,40.580925,-3.545775,623.8,3,5,133.9,2.461
59.03,1,0.008,-0.013,-0.007,-0.019,-0.02,-0.011,-1.564,-0.059,-0.433,58.73,72.0,40.580925,-3.545775,623.8,3,5,133.9,2.461
59.13,1,-0.017,-0.017,-0.013,-0.005,-0.025,-0.008,-1.563,-0.059,-0.432,58.73,72.0,40.580925,-3.545775,623.8,3,5,133.9,2.461
59.23,1,-0.043,0.002,-0.026,-0.026,-0.006,-0.021,-1.564,-0.059,-0.431,58.73,72.0,40.580925,-3.545775,623.8,3,5,133.9,2.461
59.33,1,0.038,-0.008,0.024,-0.007,-0.011,0.0,-1.564,-0.059,-0.431,58.73,72.0,40.580925,-3.545775,623.8,3,5,133.9,2.461
59.43,1,-0.077,-0.015,-0.02,-0.021,-0.0,-0.005,-1.563,-0.062,-0.43,58.73,72.0,40.580925,-3.545775,623.8,3,5,133.9,2.461
59.53,1,0.03,-0.108,-0.013,-0.01,-0.054,-0.013,-1.563,-0.064,-0.429,58.73,72.0,40.580925,-3.545775,623.8,3,5,133.9,2.461
59.63,1,-0.017,-0.024,-0.008,-0.009,-0.058,-0.007,-1.563,-0.064,-0.428,58.73,72.0,40.580925,-3.545775,623.8,3,5,133.9,2.461
59.74,1,-0.001,0.049,-0.013,-0.002,-0.002,-0.014,-1.563,-0.064,-0.426,58.73,72.0,40.580925,-3.545775,623.8,3,5,133.9,2.461
59.84,1,-0.001,-0.054,-0.003,-0.006,-0.011,-0.005,-1.563,-0.063,-0.424,58.73,72.0,40.580925,-3.545775,623.8,3,5,133.9,2.461
59.94,1,-0.004,-0.052,-0.016,-0.001,-0.034,-0.007,-1.562,-0.063,-0.423,59.72,71.3,40.580795,-3.54561,624.1,3,5,133.9,1.406
60.03,1,-0.02,-0.086,-0.035,-0.012,-0.066,-0.026,-1.564,-0.062,-0.421,59.72,71.3,40.580795,-3.54561,624.1,3,5,133.9,1.406
60.13,1,-0.055,-0.072,-0.006,-0.035,-0.066,-0.018,-1.566,-0.059,-0.419,59.72,71.3,40.580795,-3.54561,624.1,3,5,133.9,1.406
60.24,1,0.038,-0.083,0.004,-0.006,-0.081,-0.003,-1.565,-0.058,-0.417,59.72,71.3,40.580795,-3.54561,624.1,3,5,133.9,1.406
60.33,1,-0.022,-0.046,-0.008,0.001,-0.064,-0.007,-1.56,-0.048,-0.414,59.72,71.3,40.580795,-3.54561,624.1,3,5,133.9,1.406
60.44,1,-0.01,-0.071,-0.024,-0.015,-0.067,-0.013,-1.557,-0.038,-0.411,59.72,71.3,40.580795,-3.54561,624.1,3,5,133.9,1.406
60.53,1,0.007,-0.087,-0.008,0.005,-0.077,-0.008,-1.558,-0.029,-0.409,59.72,71.3,40.580795,-3.54561,624.1,3,5,133.9,1.406
60.64,1,0.016,0.006,0.004,-0.003,-0.048,-0.008,-1.558,-0.028,-0.407,59.72,71.3,40.580795,-3.54561,624.1,3,5,133.9,1.406
60.74,1,-0.021,0.002,0.01,-0.01,-0.014,0.002,-1.559,-0.029,-0.404,59.72,71.3,40.580795,-3.54561,624.1,3,5,133.9,1.406
60.84,1,-0.016,0.029,0.028,-0.013,0.015,0.013,-1.559,-0.03,-0.401,59.72,71.3,40.580795,-3.54561,624.1,3,5,133.9,1.406
60.95,1,-0.021,-0.028,-0.002,-0.008,-0.0,0.007,-1.559,-0.031,-0.399,60.72,71.2,40.580677,-3.545441,624.4,3,5,133.9,0.0
61.04,1,-0.033,-0.068,0.015,-0.023,-0.037,0.016,-1.558,-0.031,-0.398,60.72,71.2,40.580677,-3.545441,624.4,3,5,133.9,0.0
61.15,1,-0.018,-0.069,-0.03,-0.026,-0.074,-0.008,-1.557,-0.032,-0.396,60.72,71.2,40.580677,-3.545441,624.4,3,5,133.9,0.0
61.24,1,0.013,-0.045,0.004,-0.009,-0.054,-0.002,-1.558,-0.032,-0.393,60.72,71.2,40.580677,-3.545441,624.4,3,5,133.9,0.0
61.34,1,0.014,-0.017,0.003,0.011,-0.031,-0.003,-1.557,-0.032,-0.391,60.72,71.2,40.580677,-3.545441,624.4,3,5,133.9,0.0
61.44,1,-0.006,-0.023,-0.017,0.001,-0.029,-0.005,-1.556,-0.033,-0.39,60.72,71.2,40.580677,-3.545441,624.4,3,5,133.9,0.0
61.54,1,0.065,-0.037,0.003,0.03,-0.028,-0.008,-1.556,-0.033,-0.388,60.72,71.2,40.580677,-3.545441,624.4,3,5,133.9,0.0
61.64,1,0.009,0.028,-0.002,0.025,-0.006,-0.002,-1.556,-0.034,-0.386,60.72,71.2,40.580677,-3.545441,624.4,3,5,133.9,0.0
61.74,1,-0.056,-0.019,0.002,-0.017,-0.005,-0.003,-1.556,-0.034,-0.385,60.72,71.2,40.580677,-3.545441,624.4,3,5,133.9,0.0
61.84,1,-0.017,-0.03,0.005,-0.018,-0.011,0.004,-1.556,-0.035,-0.384,60.72,71.2,40.580677,-3.545441,624.4,3,5,133.9,0.0
61.94,1,-0.012,-0.034,0.008,-0.017,-0.032,0.005,-1.556,-0.035,-0.383,61.72,71.3,40.580559,-3.54527,624.8,3,5,132.9,1.055
62.05,1,0.01,0.0,0.014,0.0,-0.012,0.014,-1.555,-0.036,-0.382,61.72,71.3,40.580559,-3.54527,624.8,3,5,132.9,1.055
62.14,1,-0.002,0.019,-0.017,0.001,-0.007,-0.003,-1.554,-0.035,-0.381,61.72,71.3,40.580559,-3.54527,624.8,3,5,132.9,1.055
62.25,1,-0.006,-0.013,-0.009,-0.005,0.004,-0.009,-1.556,-0.036,-0.381,61.72,71.3,40.580559,-3.54527,624.8,3,5,132.9,1.055
62.35,1,0.025,0.011,0.019,0.002,0.0,0.003,-1.555,-0.037,-0.38,61.72,71.3,40.580559,-3.54527,624.8,3,5,132.9,1.055
62.44,1,-0.021,-0.005,0.006,0.004,0.005,0.008,-1.555,-0.036,-0.379,61.72,71.3,40.580559,-3.54527,624.8,3,5,132.9,1.055
62.55,1,-0.081,-0.031,-0.02,-0.04,-0.015,-0.005,-1.551,-0.039,-0.378,61.72,71.3,40.580559,-3.54527,624.8,3,5,132.9,1.055
62.65,1,0.027,-0.084,0.01,-0.018,-0.051,-0.001,-1.551,-0.041,-0.379,61.72,71.3,40.580559,-3.54527,624.8,3,5,132.9,1.055
62.75,1,0.003,0.053,0.009,-0.003,-0.018,0.004,-1.551,-0.042,-0.378,61.72,71.3,40.580559,-3.54527,624.8,3,5,132.9,1.055
62.86,1,-0.011,0.013,0.013,-0.01,0.022,0.006,-1.551,-0.043,-0.378,61.72,71.3,40.580559,-3.54527,624.8,3,5,132.9,1.055
62.95,1,0.042,0.001,0.029,0.026,0.008,0.026,-1.55,-0.044,-0.378,62.74,71.1,40.580441,-3.545099,625.1,3,5,132.5,1.406
63.05,1,-0.025,0.005,-0.004,-0.009,0.005,0.006,-1.55,-0.044,-0.378,62.74,71.1,40.580441,-3.545099,625.1,3,5,132.5,1.406
63.15,1,-0.015,0.016,0.02,-0.005,0.004,0.013,-1.549,-0.043,-0.378,62.74,71.1,40.580441,-3.545099,625.1,3,5,132.5,1.406
63.25,1,0.013,-0.033,0.013,0.001,-0.008,0.014,-1.547,-0.037,-0.378,62.74,71.1,40.580441,-3.545099,625.1,3,5,132.5,1.406
63.36,1,-0.001,0.004,-0.006,0.006,0.0,0.009,-1.545,-0.036,-0.378,62.74,71.1,40.580441,-3.545099,625.1,3,5,132.5,1.406
63.45,1,0.028,-0.054,-0.0,0.013,-0.03,-0.003,-1.546,-0.036,-0.379,62.74,71.1,40.580441,-3.545099,625.1,3,5,132.5,1.406
63.55,1,0.041,0.01,0.036,0.024,-0.014,0.013,-1.547,-0.036,-0.379,62.74,71.1,40.580441,-3.545099,625.1,3,5,132.5,1.406
63.65,1,0.031,0.026,0.003,0.034,0.002,0.021,-1.546,-0.036,-0.379,62.74,71.1,40.580441,-3.545099,625.1,3,5,132.5,1.406
63.75,1,-0.004,0.055,0.004,0.023,0.025,0.005,-1.546,-0.036,-0.379,62.74,71.1,40.580441,-3.545099,625.1,3,5,132.5,1.406
63.85,1,0.009,0.011,0.032,0.004,0.043,0.017,-1.546,-0.035,-0.378,62.74,71.1,40.580441,-3.545099,625.1,3,5,132.5,1.406
63.96,1,-0.057,-0.056,0.001,-0.026,-0.005,0.015,-1.545,-0.035,-0.377,63.73,70.1,40.580322,-3.544928,625.4,3,5,132.2,0.703
64.06,1,0.037,-0.085,-0.001,-0.002,-0.054,0.006,-1.545,-0.034,-0.376,63.73,70.1,40.580322,-3.544928,625.4,3,5,132.2,0.703
64.15,1,-0.0,0.071,0.023,0.008,-0.02,0.01,-1.545,-0.034,-0.375,63.73,70.1,40.580322,-3.544928,625.4,3,5,132.2,0.703
64.25,1,-0.031,0.022,0.032,-0.017,0.022,0.018,-1.545,-0.034,-0.373,63.73,70.1,40.580322,-3.544928,625.4,3,5,132.2,0.703
64.35,1,-0.024,-0.069,-0.012,-0.034,-0.018,0.009,-1.544,-0.033,-0.372,63.73,70.1,40.580322,-3.544928,625.4,3,5,132.2,0.703
64.45,1,0.028,-0.081,0.002,0.01,-0.064,0.008,-1.544,-0.033,-0.371,63.73,70.1,40.580322,-3.544928,625.4,3,5,132.2,0.703
64.55,1,0.016,-0.005,0.046,0.015,-0.029,0.014,-1.544,-0.034,-0.37,63.73,70.1,40.580322,-3.544928,625.4,3,5,132.2,0.703
64.65,1,-0.003,-0.03,0.036,0.012,-0.011,0.039,-1.544,-0.033,-0.368,63.73,70.1,40.580322,-3.544928,625.4,3,5,132.2,0.703
64.75,1,0.025,-0.115,0.018,0.005,-0.071,0.024,-1.543,-0.033,-0.366,63.73,70.1,40.580322,-3.544928,625.4,3,5,132.2,0.703
64.95,1,0.051,-0.01,0.017,0.022,-0.03,0.024,-1.542,-0.033,-0.363,63.73,70.1,40.580322,-3.544928,625.4,3,5,132.2,0.703
65.06,1,-0.027,-0.028,0.023,0.002,-0.021,0.02,-1.542,-0.027,-0.36,64.78,71.0,40.5802,-3.544758,625.7,3,5,131.8,0.703
65.16,1,0.008,0.003,0.029,0.005,-0.015,0.028,-1.544,-0.022,-0.358,64.78,71.0,40.5802,-3.544758,625.7,3,5,131.8,0.703
65.25,1,-0.045,-0.057,-0.007,-0.025,-0.025,0.01,-1.547,-0.021,-0.356,64.78,71.0,40.5802,-3.544758,625.7,3,5,131.8,0.703
65.35,1,-0.017,-0.027,0.033,-0.017,-0.041,0.018,-1.548,-0.021,-0.354,64.78,71.0,40.5802,-3.544758,625.7,3,5,131.8,0.703
65.45,1,-0.075,-0.022,0.02,-0.046,-0.025,0.02,-1.548,-0.021,-0.352,64.78,71.0,40.5802,-3.544758,625.7,3,5,131.8,0.703
65.55,1,0.015,-0.05,0.023,-0.026,-0.038,0.026,-1.545,-0.021,-0.349,64.78,71.0,40.5802,-3.544758,625.7,3,5,131.8,0.703
65.66,1,-0.006,-0.01,0.017,-0.009,-0.026,0.018,-1.543,-0.014,-0.347,64.78,71.0,40.5802,-3.544758,625.7,3,5,131.8,0.703
65.76,1,0.054,-0.012,0.043,0.01,-0.023,0.026,-1.543,-0.013,-0.345,64.78,71.0,40.5802,-3.544758,625.7,3,5,131.8,0.703
65.86,1,-0.069,0.011,0.006,0.0,0.004,0.029,-1.542,-0.013,-0.342,64.78,71.0,40.5802,-3.544758,625.7,3,5,131.8,0.703
65.96,1,-0.067,-0.063,0.019,-0.045,-0.026,0.016,-1.542,-0.013,-0.34,64.78,71.0,40.5802,-3.544758,625.7,3,5,131.8,0.703
66.06,1,0.019,-0.091,0.031,-0.028,-0.069,0.022,-1.543,-0.013,-0.338,65.72,70.3,40.580082,-3.54458,626.0,3,5,131.5,0.703
66.16,1,-0.033,0.012,0.031,-0.015,-0.042,0.028,-1.543,-0.013,-0.336,65.72,70.3,40.580082,-3.54458,626.0,3,5,131.5,0.703
66.26,1,0.012,-0.001,0.016,-0.016,-0.003,0.022,-1.542,-0.013,-0.333,65.72,70.3,40.580082,-3.54458,626.0,3,5,131.5,0.703
66.37,1,0.021,-0.036,-0.012,0.015,-0.024,0.013,-1.541,-0.011,-0.331,65.72,70.3,40.580082,-3.54458,626.0,3,5,131.5,0.703
66.46,1,-0.056,0.026,0.001,-0.023,-0.0,-0.004,-1.542,-0.006,-0.328,65.72,70.3,40.580082,-3.54458,626.0,3,5,131.5,0.703
66.56,1,0.007,-0.037,0.046,-0.007,-0.007,0.022,-1.545,-0.002,-0.326,65.72,70.3,40.580082,-3.54458,626.0,3,5,131.5,0.703
66.66,1,0.019,-0.048,0.008,-0.001,-0.032,0.02,-1.547,0.006,-0.324,65.72,70.3,40.580082,-3.54458,626.0,3,5,131.5,0.703
66.76,1,-0.011,0.018,0.018,-0.006,-0.015,0.012,-1.548,0.01,-0.322,65.72,70.3,40.580082,-3.54458,626.0,3,5,131.5,0.703
66.86,1,0.03,0.008,0.023,0.012,-0.001,0.022,-1.552,0.009,-0.32,65.72,70.3,40.580082,-3.54458,626.0,3,5,131.5,0.703
66.96,1,-0.049,-0.0,-0.001,-0.008,0.006,0.012,-1.553,0.002,-0.318,65.72,70.3,40.580082,-3.54458,626.0,3,5,131.5,0.703
67.06,1,-0.004,0.017,0.012,-0.011,0.002,0.013,-1.553,-0.001,-0.317,66.73,70.7,40.579964,-3.544404,626.2,3,5,130.1,1.758
67.16,1,0.001,0.011,0.015,-0.012,0.014,0.009,-1.552,-0.001,-0.316,66.73,70.7,40.579964,-3.544404,626.2,3,5,130.1,1.758
67.26,1,-0.029,0.058,-0.008,-0.007,0.027,0.009,-1.554,-0.007,-0.316,66.73,70.7,40.579964,-3.544404,626.2,3,5,130.1,1.758
67.37,1,-0.095,0.081,-0.009,-0.057,0.057,-0.01,-1.556,-0.003,-0.315,66.73,70.7,40.579964,-3.544404,626.2,3,5,130.1,1.758
67.47,1,0.037,0.014,0.051,-0.023,0.049,0.024,-1.557,-0.003,-0.316,66.73,70.7,40.579964,-3.544404,626.2,3,5,130.1,1.758
67.58,1,0.008,0.032,-0.014,-0.014,0.027,0.007,-1.554,-0.006,-0.316,66.73,70.7,40.579964,-3.544404,626.2,3,5,130.1,1.758
67.66,1,0.007,0.088,-0.004,0.02,0.052,0.002,-1.553,-0.008,-0.315,66.73,70.7,40.579964,-3.544404,626.2,3,5,130.1,1.758
67.76,1,0.017,0.028,0.012,0.003,0.059,0.001,-1.553,-0.012,-0.315,66.73,70.7,40.579964,-3.544404,626.2,3,5,130.1,1.758
67.87,1,-0.046,-0.016,-0.022,0.009,0.015,0.001,-1.553,-0.013,-0.315,66.73,70.7,40.579964,-3.544404,626.2,3,5,130.1,1.758
67.96,1,0.002,0.035,0.016,-0.025,0.016,-0.005,-1.553,-0.015,-0.315,66.73,70.7,40.579964,-3.544404,626.2,3,5,130.1,1.758
68.08,1,-0.009,0.027,-0.007,-0.007,0.025,0.004,-1.557,-0.019,-0.316,67.72,70.6,40.579845,-3.544229,626.2,3,5,129.0,2.461
68.17,1,0.002,0.049,0.034,-0.012,0.041,0.01,-1.559,-0.024,-0.316,67.72,70.6,40.579845,-3.544229,626.2,3,5,129.0,2.461
68.27,1,0.055,-0.01,-0.002,0.03,0.021,0.016,-1.558,-0.026,-0.316,67.72,70.6,40.579845,-3.544229,626.2,3,5,129.0,2.461
68.37,1,0.01,0.041,-0.011,0.029,0.032,0.0,-1.554,-0.03,-0.316,67.72,70.6,40.579845,-3.544229,626.2,3,5,129.0,2.461
68.47,1,-0.066,0.094,-0.016,-0.033,0.063,-0.016,-1.553,-0.031,-0.316,67.72,70.6,40.579845,-3.544229,626.2,3,5,129.0,2.461
68.57,1,0.043,-0.027,0.019,0.005,0.023,0.006,-1.554,-0.03,-0.316,67.72,70.6,40.579845,-3.544229,626.2,3,5,129.0,2.461
68.68,1,-0.005,0.041,0.022,0.009,0.013,0.013,-1.553,-0.03,-0.317,67.72,70.6,40.579845,-3.544229,626.2,3,5,129.0,2.461
68.78,1,-0.003,0.083,0.004,-0.002,0.047,0.01,-1.552,-0.029,-0.318,67.72,70.6,40.579845,-3.544229,626.2,3,5,129.0,2.461
68.87,1,0.031,-0.01,0.009,0.01,0.042,0.01,-1.551,-0.029,-0.319,67.72,70.6,40.579845,-3.544229,626.2,3,5,129.0,2.461
68.97,1,0.024,0.053,0.006,0.032,0.022,0.006,-1.551,-0.029,-0.32,67.72,70.6,40.579845,-3.544229,626.2,3,5,129.0,2.461
69.07,1,0.008,0.076,0.014,0.003,0.052,0.006,-1.552,-0.029,-0.321,68.72,71.6,40.579727,-3.544044,626.8,3,5,129.0,1.055
69.17,1,-0.049,-0.021,-0.009,-0.01,0.039,0.004,-1.552,-0.03,-0.322,68.72,71.6,40.579727,-3.544044,626.8,3,5,129.0,1.055
69.27,1,-0.026,-0.03,-0.008,-0.035,-0.024,-0.006,-1.552,-0.031,-0.323,68.72,71.6,40.579727,-3.544044,626.8,3,5,129.0,1.055
69.37,1,0.024,0.044,0.023,0.011,0.003,0.012,-1.552,-0.032,-0.325,68.72,71.6,40.579727,-3.544044,626.8,3,5,129.0,1.055
69.47,1,0.037,0.094,0.012,0.021,0.066,0.013,-1.551,-0.032,-0.327,68.72,71.6,40.579727,-3.544044,626.8,3,5,129.0,1.055
69.57,1,-0.012,0.076,-0.017,0.009,0.071,-0.0,-1.55,-0.031,-0.328,68.72,71.6,40.579727,-3.544044,626.8,3,5,129.0,1.055
69.68,1,0.043,0.028,0.023,0.013,0.059,0.004,-1.55,-0.03,-0.33,68.72,71.6,40.579727,-3.544044,626.8,3,5,129.0,1.055
69.77,1,0.019,0.1,0.006,0.023,0.062,0.009,-1.549,-0.03,-0.331,68.72,71.6,40.579727,-3.544044,626.8,3,5,129.0,1.055
69.88,1,-0.036,0.076,0.017,-0.002,0.086,0.012,-1.549,-0.03,-0.332,68.72,71.6,40.579727,-3.544044,626.8,3,5,129.0,1.055
69.97,1,-0.063,-0.028,0.003,-0.023,0.033,0.016,-1.549,-0.031,-0.334,68.72,71.6,40.579727,-3.544044,626.8,3,5,129.0,1.055
70.07,1,-0.034,-0.057,0.005,-0.056,-0.013,-0.003,-1.549,-0.031,-0.335,69.73,70.6,40.579613,-3.543859,627.0,3,5,129.0,0.0
70.17,1,-0.063,-0.055,0.035,-0.039,-0.041,0.02,-1.551,-0.029,-0.335,69.73,70.6,40.579613,-3.543859,627.0,3,5,129.0,0.0
70.27,1,-0.07,-0.035,0.006,-0.054,-0.038,0.018,-1.55,-0.027,-0.335,69.73,70.6,40.579613,-3.543859,627.0,3,5,129.0,0.0
70.37,1,-0.026,-0.026,0.02,-0.053,-0.041,0.015,-1.549,-0.025,-0.335,69.73,70.6,40.579613,-3.543859,627.0,3,5,129.0,0.0
70.48,1,-0.005,-0.033,0.005,-0.027,-0.032,0.014,-1.549,-0.023,-0.334,69.73,70.6,40.579613,-3.543859,627.0,3,5,129.0,0.0
70.57,1,0.01,0.021,0.001,-0.004,-0.015,0.004,-1.548,-0.022,-0.334,69.73,70.6,40.579613,-3.543859,627.0,3,5,129.0,0.0
70.67,1,-0.007,0.011,0.016,-0.009,0.01,0.009,-1.548,-0.02,-0.333,69.73,70.6,40.579613,-3.543859,627.0,3,5,129.0,0.0
70.78,1,-0.048,-0.027,-0.004,-0.023,-0.006,0.004,-1.548,-0.019,-0.332,69.73,70.6,40.579613,-3.543859,627.0,3,5,129.0,0.0
70.88,1,0.034,-0.011,0.011,-0.014,-0.021,0.005,-1.548,-0.021,-0.331,69.73,70.6,40.579613,-3.543859,627.0,3,5,129.0,0.0
70.98,1,-0.024,-0.022,-0.003,0.009,-0.015,0.0,-1.55,-0.04,-0.33,69.73,70.6,40.579613,-3.543859,627.0,3,5,129.0,0.0
71.08,1,0.026,0.103,-0.001,0.014,0.034,0.005,-1.55,-0.043,-0.329,70.73,70.8,40.579498,-3.543677,627.3,3,5,129.7,0.703
71.19,1,0.005,-0.02,-0.006,0.008,0.017,-0.007,-1.549,-0.041,-0.328,70.73,70.8,40.579498,-3.543677,627.3,3,5,129.7,0.703
71.28,1,-0.04,-0.11,-0.02,-0.022,-0.036,-0.012,-1.549,-0.039,-0.326,70.73,70.8,40.579498,-3.543677,627.3,3,5,129.7,0.703
71.38,1,0.008,-0.035,0.033,-0.009,-0.056,0.01,-1.551,-0.038,-0.325,70.73,70.8,40.579498,-3.543677,627.3,3,5,129.7,0.703
71.48,1,-0.073,0.002,0.005,-0.024,-0.021,0.013,-1.551,-0.038,-0.323,70.73,70.8,40.579498,-3.543677,627.3,3,5,129.7,0.703
71.58,1,-0.018,-0.064,0.024,-0.049,-0.028,0.013,-1.551,-0.038,-0.321,70.73,70.8,40.579498,-3.543677,627.3,3,5,129.7,0.703
71.68,1,-0.021,-0.025,-0.014,-0.025,-0.045,0.006,-1.549,-0.037,-0.32,70.73,70.8,40.579498,-3.543677,627.3,3,5,129.7,0.703
71.78,1,-0.025,-0.091,0.009,-0.022,-0.054,0.0,-1.549,-0.036,-0.319,70.73,70.8,40.579498,-3.543677,627.3,3,5,129.7,0.703
71.88,1,-0.005,0.004,0.001,-0.007,-0.045,0.003,-1.55,-0.037,-0.317,70.73,70.8,40.579498,-3.543677,627.3,3,5,129.7,0.703
71.98,1,-0.004,-0.018,0.029,-0.019,-0.018,0.012,-1.551,-0.036,-0.316,70.73,70.8,40.579498,-3.543677,627.3,3,5,129.7,0.703
72.09,1,-0.021,-0.056,0.025,-0.012,-0.034,0.023,-1.553,-0.034,-0.315,71.73,70.5,40.579388,-3.543498,627.6,3,5,129.0,0.703
72.18,1,-0.027,-0.029,-0.005,-0.014,-0.044,0.016,-1.552,-0.03,-0.313,71.73,70.5,40.579388,-3.543498,627.6,3,5,129.0,0.703
72.29,1,0.003,-0.049,-0.006,-0.015,-0.042,-0.0,-1.551,-0.022,-0.312,71.73,70.5,40.579388,-3.543498,627.6,3,5,129.0,0.703
72.38,1,0.068,-0.053,0.024,0.027,-0.044,0.008,-1.551,-0.028,-0.311,71.73,70.5,40.579388,-3.543498,627.6,3,5,129.0,0.703
72.48,1,-0.06,-0.055,-0.007,-0.001,-0.059,0.004,-1.551,-0.027,-0.309,71.73,70.5,40.579388,-3.543498,627.6,3,5,129.0,0.703
72.58,1,-0.035,-0.005,0.005,-0.027,-0.018,0.003,-1.553,-0.027,-0.308,71.73,70.5,40.579388,-3.543498,627.6,3,5,129.0,0.703
72.68,1,-0.042,-0.089,-0.007,-0.04,-0.044,-0.003,-1.554,-0.028,-0.307,71.73,70.5,40.579388,-3.543498,627.6,3,5,129.0,0.703
72.79,1,-0.0,0.004,0.015,-0.016,-0.049,0.007,-1.555,-0.029,-0.306,71.73,70.5,40.579388,-3.543498,627.6,3,5,129.0,0.703
72.88,1,-0.042,0.008,-0.005,-0.034,-0.004,0.0,-1.553,-0.03,-0.304,71.73,70.5,40.579388,-3.543498,627.6,3,5,129.0,0.703
72.98,1,0.033,-0.005,-0.008,0.004,-0.01,-0.001,-1.551,-0.032,-0.303,71.73,70.5,40.579388,-3.543498,627.6,3,5,129.0,0.703
73.08,1,0.012,-0.022,0.007,0.011,-0.007,0.003,-1.555,-0.033,-0.301,72.76,70.4,40.579281,-3.543314,627.7,3,5,128.0,1.758
73.19,1,0.011,-0.04,0.003,0.011,-0.022,-0.003,-1.557,-0.024,-0.299,72.76,70.4,40.579281,-3.543314,627.7,3,5,128.0,1.758
73.29,1,0.024,-0.035,0.0,0.008,-0.032,0.002,-1.558,-0.019,-0.297,72.76,70.4,40.579281,-3.543314,627.7,3,5,128.0,1.758
73.39,1,-0.006,0.01,0.009,0.016,-0.025,0.008,-1.557,-0.013,-0.296,72.76,70.4,40.579281,-3.543314,627.7,3,5,128.0,1.758
73.49,1,0.017,-0.026,0.015,0.009,-0.015,0.007,-1.555,-0.009,-0.294,72.76,70.4,40.579281,-3.543314,627.7,3,5,128.0,1.758
73.59,1,-0.046,-0.008,-0.009,-0.013,-0.01,0.007,-1.555,-0.004,-0.292,72.76,70.4,40.579281,-3.543314,627.7,3,5,128.0,1.758
73.69,1,-0.004,-0.029,-0.002,-0.012,-0.024,-0.005,-1.549,0.001,-0.29,72.76,70.4,40.579281,-3.543314,627.7,3,5,128.0,1.758
73.8,1,-0.015,-0.032,0.002,-0.031,-0.019,0.0,-1.55,-0.001,-0.288,72.76,70.4,40.579281,-3.543314,627.7,3,5,128.0,1.758
73.89,1,0.018,0.035,0.037,0.012,-0.018,0.016,-1.55,-0.003,-0.286,72.76,70.4,40.579281,-3.543314,627.7,3,5,128.0,1.758
73.99,1,-0.071,-0.03,-0.007,-0.033,-0.001,0.011,-1.552,-0.008,-0.284,72.76,70.4,40.579281,-3.543314,627.7,3,5,128.0,1.758
74.09,1,0.027,-0.015,0.011,-0.013,-0.019,0.004,-1.552,-0.008,-0.283,73.8,70.8,40.579178,-3.543135,627.8,3,5,127.3,1.758
74.19,1,-0.049,0.032,-0.003,-0.013,0.017,0.008,-1.552,-0.008,-0.281,73.8,70.8,40.579178,-3.543135,627.8,3,5,127.3,1.758
74.29,1,0.025,-0.05,0.019,-0.005,-0.013,0.004,-1.552,-0.007,-0.279,73.8,70.8,40.579178,-3.543135,627.8,3,5,127.3,1.758
74.39,1,-0.044,-0.008,0.016,-0.023,-0.014,0.014,-1.553,-0.007,-0.277,73.8,70.8,40.579178,-3.543135,627.8,3,5,127.3,1.758
74.49,1,-0.048,-0.006,-0.02,-0.036,-0.016,0.006,-1.554,-0.007,-0.276,73.8,70.8,40.579178,-3.543135,627.8,3,5,127.3,1.758
74.59,1,-0.006,-0.021,0.006,-0.019,-0.011,0.0,-1.558,-0.01,-0.274,73.8,70.8,40.579178,-3.543135,627.8,3,5,127.3,1.758
74.69,1,0.044,-0.068,-0.005,-0.008,-0.043,-0.006,-1.56,-0.015,-0.273,73.8,70.8,40.579178,-3.543135,627.8,3,5,127.3,1.758
74.79,1,0.019,-0.047,0.022,0.032,-0.055,0.012,-1.557,-0.025,-0.272,73.8,70.8,40.579178,-3.543135,627.8,3,5,127.3,1.758
74.89,1,-0.042,0.029,-0.003,-0.006,-0.002,0.0,-1.557,-0.025,-0.27,73.8,70.8,40.579178,-3.543135,627.8,3,5,127.3,1.758
74.99,1,0.011,-0.032,0.02,-0.014,-0.008,0.012,-1.557,-0.025,-0.27,73.8,70.8,40.579178,-3.543135,627.8,3,5,127.3,1.758
75.09,1,-0.05,-0.033,-0.025,-0.013,-0.035,-0.002,-1.557,-0.026,-0.27,74.77,71.2,40.579075,-3.542952,627.8,3,5,125.9,2.109
75.2,1,-0.005,0.05,0.033,-0.01,0.002,0.01,-1.557,-0.026,-0.27,74.77,71.2,40.579075,-3.542952,627.8,3,5,125.9,2.109
75.29,1,-0.03,0.041,0.002,-0.023,0.036,0.011,-1.558,-0.027,-0.27,74.77,71.2,40.579075,-3.542952,627.8,3,5,125.9,2.109
75.39,1,-0.034,-0.016,0.005,-0.038,0.012,0.004,-1.558,-0.027,-0.27,74.77,71.2,40.579075,-3.542952,627.8,3,5,125.9,2.109
75.49,1,-0.02,-0.01,-0.007,-0.027,-0.007,0.0,-1.558,-0.026,-0.271,74.77,71.2,40.579075,-3.542952,627.8,3,5,125.9,2.109
75.6,1,0.012,0.027,0.026,-0.006,0.003,0.008,-1.557,-0.026,-0.27,74.77,71.2,40.579075,-3.542952,627.8,3,5,125.9,2.109
75.69,1,-0.038,0.005,-0.004,-0.009,0.022,0.008,-1.558,-0.026,-0.27,74.77,71.2,40.579075,-3.542952,627.8,3,5,125.9,2.109
75.8,1,-0.036,-0.037,-0.011,-0.03,-0.014,0.001,-1.558,-0.026,-0.269,74.77,71.2,40.579075,-3.542952,627.8,3,5,125.9,2.109
75.9,1,-0.035,-0.022,-0.02,-0.035,-0.023,-0.013,-1.558,-0.027,-0.269,74.77,71.2,40.579075,-3.542952,627.8,3,5,125.9,2.109
76.0,1,0.046,0.013,0.017,-0.011,-0.001,-0.003,-1.559,-0.027,-0.268,74.77,71.2,40.579075,-3.542952,627.8,3,5,125.9,2.109
76.1,1,-0.04,0.046,0.004,0.004,0.015,0.01,-1.559,-0.026,-0.267,75.73,70.9,40.578957,-3.542757,628.4,3,5,124.8,2.461
76.21,1,0.004,0.001,-0.004,-0.018,0.012,-0.005,-1.558,-0.026,-0.266,75.73,70.9,40.578957,-3.542757,628.4,3,5,124.8,2.461
76.3,1,0.003,0.02,-0.008,0.002,0.016,-0.001,-1.557,-0.03,-0.265,75.73,70.9,40.578957,-3.542757,628.4,3,5,124.8,2.461
76.41,1,-0.016,-0.028,0.004,-0.006,0.004,-0.002,-1.558,-0.03,-0.265,75.73,70.9,40.578957,-3.542757,628.4,3,5,124.8,2.461
76.5,1,-0.032,-0.032,-0.018,-0.02,-0.022,-0.009,-1.557,-0.031,-0.264,75.73,70.9,40.578957,-3.542757,628.4,3,5,124.8,2.461
76.6,1,0.015,-0.008,-0.009,-0.001,-0.026,-0.008,-1.556,-0.024,-0.263,75.73,70.9,40.578957,-3.542757,628.4,3,5,124.8,2.461
76.7,1,0.014,0.039,-0.007,-0.004,0.015,-0.012,-1.555,-0.021,-0.262,75.73,70.9,40.578957,-3.542757,628.4,3,5,124.8,2.461
76.8,1,0.005,0.049,0.006,0.007,0.031,-0.002,-1.555,-0.018,-0.262,75.73,70.9,40.578957,-3.542757,628.4,3,5,124.8,2.461
76.91,1,-0.008,0.047,-0.01,-0.001,0.044,-0.001,-1.557,-0.012,-0.261,75.73,70.9,40.578957,-3.542757,628.4,3,5,124.8,2.461
77.0,1,-0.012,-0.003,0.0,-0.001,0.017,-0.006,-1.557,-0.012,-0.261,75.73,70.9,40.578957,-3.542757,628.4,3,5,124.8,2.461
77.1,1,-0.032,0.001,-0.002,-0.027,0.014,-0.002,-1.557,-0.012,-0.26,76.71,71.4,40.578854,-3.542569,628.4,3,5,124.5,1.406
77.21,1,-0.041,0.006,-0.02,-0.024,0.004,-0.007,-1.552,-0.009,-0.26,76.71,71.4,40.578854,-3.542569,628.4,3,5,124.5,1.406
77.3,1,-0.004,0.018,-0.011,-0.03,0.014,-0.013,-1.545,-0.009,-0.259,76.71,71.4,40.578854,-3.542569,628.4,3,5,124.5,1.406
77.4,1,-0.034,0.036,-0.001,-0.02,0.019,-0.011,-1.544,-0.008,-0.258,76.71,71.4,40.578854,-3.542569,628.4,3,5,124.5,1.406
77.51,1,-0.018,0.044,0.001,-0.023,0.037,0.001,-1.548,-0.002,-0.257,76.71,71.4,40.578854,-3.542569,628.4,3,5,124.5,1.406
77.6,1,-0.044,-0.022,-0.025,-0.031,0.017,-0.009,-1.549,-0.003,-0.257,76.71,71.4,40.578854,-3.542569,628.4,3,5,124.5,1.406
77.7,1,-0.033,0.049,0.005,-0.034,0.01,-0.007,-1.549,-0.003,-0.256,76.71,71.4,40.578854,-3.542569,628.4,3,5,124.5,1.406
77.8,1,0.016,0.055,0.009,-0.015,0.048,-0.003,-1.549,-0.003,-0.256,76.71,71.4,40.578854,-3.542569,628.4,3,5,124.5,1.406
77.9,1,-0.019,0.05,-0.021,0.0,0.052,-0.003,-1.548,-0.002,-0.255,76.71,71.4,40.578854,-3.542569,628.4,3,5,124.5,1.406
78.0,1,0.045,-0.02,0.013,-0.009,0.021,-0.005,-1.549,-0.002,-0.255,76.71,71.4,40.578854,-3.542569,628.4,3,5,124.5,1.406
78.11,1,-0.037,0.037,-0.024,0.008,0.011,-0.006,-1.55,-0.002,-0.255,77.75,70.4,40.578758,-3.542382,628.7,3,5,123.8,1.055
78.2,1,0.022,0.108,0.015,0.007,0.053,-0.003,-1.55,-0.003,-0.255,77.75,70.4,40.578758,-3.542382,628.7,3,5,123.8,1.055
78.3,1,-0.056,0.075,-0.002,-0.015,0.079,0.003,-1.55,-0.002,-0.254,77.75,70.4,40.578758,-3.542382,628.7,3,5,123.8,1.055
78.41,1,0.048,-0.019,0.006,0.002,0.026,0.005,-1.55,-0.002,-0.254,77.75,70.4,40.578758,-3.542382,628.7,3,5,123.8,1.055
78.51,1,0.082,0.04,0.01,0.05,0.035,0.009,-1.55,-0.002,-0.254,77.75,70.4,40.578758,-3.542382,628.7,3,5,123.8,1.055
78.61,1,-0.048,0.006,-0.004,0.002,0.032,0.003,-1.55,-0.001,-0.255,77.75,70.4,40.578758,-3.542382,628.7,3,5,123.8,1.055
78.71,1,-0.032,0.018,0.003,-0.02,0.007,-0.004,-1.548,-0.001,-0.256,77.75,70.4,40.578758,-3.542382,628.7,3,5,123.8,1.055
78.82,1,0.012,0.017,0.003,0.001,0.001,0.008,-1.548,-0.003,-0.256,77.75,70.4,40.578758,-3.542382,628.7,3,5,123.8,1.055
78.91,1,-0.007,0.051,0.006,-0.01,0.049,-0.003,-1.548,-0.003,-0.257,77.75,70.4,40.578758,-3.542382,628.7,3,5,123.8,1.055
79.01,1,-0.002,0.065,-0.012,-0.002,0.045,0.0,-1.548,-0.003,-0.258,77.75,70.4,40.578758,-3.542382,628.7,3,5,123.8,1.055
79.11,1,-0.014,0.065,-0.012,-0.0,0.062,-0.006,-1.548,-0.008,-0.26,78.72,71.2,40.578667,-3.54218,629.0,3,5,123.0,1.406
79.21,1,0.032,0.037,-0.009,-0.0,0.051,-0.009,-1.552,-0.015,-0.261,78.72,71.2,40.578667,-3.54218,629.0,3,5,123.0,1.406
79.31,1,-0.015,0.046,-0.01,0.005,0.049,-0.013,-1.552,-0.022,-0.263,78.72,71.2,40.578667,-3.54218,629.0,3,5,123.0,1.406
79.41,1,0.021,0.03,0.01,0.006,0.038,-0.001,-1.553,-0.027,-0.264,78.72,71.2,40.578667,-3.54218,629.0,3,5,123.0,1.406
79.51,1,-0.045,0.054,-0.023,-0.007,0.041,-0.01,-1.553,-0.028,-0.266,78.72,71.2,40.578667,-3.54218,629.0,3,5,123.0,1.406
79.61,1,0.029,0.015,0.006,-0.001,0.029,-0.0,-1.557,-0.026,-0.268,78.72,71.2,40.578667,-3.54218,629.0,3,5,123.0,1.406
79.72,1,-0.024,0.029,-0.022,-0.012,0.031,-0.012,-1.555,-0.034,-0.27,78.72,71.2,40.578667,-3.54218,629.0,3,5,123.0,1.406
79.81,1,0.041,0.048,0.006,0.016,0.036,-0.006,-1.556,-0.042,-0.271,78.72,71.2,40.578667,-3.54218,629.0,3,5,123.0,1.406
79.91,1,-0.038,0.002,-0.003,-0.025,0.036,-0.006,-1.556,-0.048,-0.273,78.72,71.2,40.578667,-3.54218,629.0,3,5,123.0,1.406
80.01,1,-0.061,0.024,-0.003,-0.015,0.015,0.004,-1.555,-0.052,-0.275,78.72,71.2,40.578667,-3.54218,629.0,3,5,123.0,1.406
80.11,1,-0.009,0.014,-0.025,-0.037,0.015,-0.016,-1.555,-0.052,-0.277,79.73,70.6,40.578575,-3.541982,629.2,3,5,123.0,0.703
80.21,1,-0.055,0.063,-0.014,-0.02,0.029,-0.013,-1.559,-0.055,-0.279,79.73,70.6,40.578575,-3.541982,629.2,3,5,123.0,0.703
80.32,1,0.031,-0.006,-0.003,-0.023,0.032,-0.012,-1.56,-0.056,-0.28,79.73,70.6,40.578575,-3.541982,629.2,3,5,123.0,0.703
80.41,1,-0.014,0.034,0.008,0.001,0.017,-0.002,-1.56,-0.056,-0.282,79.73,70.6,40.578575,-3.541982,629.2,3,5,123.0,0.703
80.51,1,0.021,0.008,-0.009,0.002,0.024,-0.003,-1.56,-0.056,-0.284,79.73,70.6,40.578575,-3.541982,629.2,3,5,123.0,0.703
80.62,1,-0.057,0.012,-0.011,-0.017,0.013,-0.004,-1.56,-0.056,-0.286,79.73,70.6,40.578575,-3.541982,629.2,3,5,123.0,0.703
80.71,1,-0.016,0.01,-0.004,-0.036,0.013,-0.009,-1.559,-0.058,-0.287,79.73,70.6,40.578575,-3.541982,629.2,3,5,123.0,0.703
80.81,1,-0.009,0.023,0.008,-0.013,0.015,0.0,-1.558,-0.056,-0.287,79.73,70.6,40.578575,-3.541982,629.2,3,5,123.0,0.703
80.92,1,-0.053,-0.006,-0.014,-0.024,0.011,0.0,-1.555,-0.052,-0.287,79.73,70.6,40.578575,-3.541982,629.2,3,5,123.0,0.703
81.02,1,-0.073,-0.002,0.001,-0.039,-0.001,-0.002,-1.554,-0.051,-0.287,79.73,70.6,40.578575,-3.541982,629.2,3,5,123.0,0.703
81.12,1,-0.032,-0.057,0.002,-0.059,-0.021,-0.002,-1.554,-0.051,-0.287,80.77,70.2,40.578476,-3.541792,629.4,3,5,123.4,0.352
81.23,1,-0.045,-0.128,0.014,-0.045,-0.085,0.004,-1.553,-0.055,-0.287,80.77,70.2,40.578476,-3.541792,629.4,3,5,123.4,0.352
81.32,1,-0.059,-0.151,-0.026,-0.06,-0.11,-0.007,-1.553,-0.054,-0.286,80.77,70.2,40.578476,-3.541792,629.4,3,5,123.4,0.352
81.42,1,0.019,-0.158,-0.0,-0.031,-0.145,-0.007,-1.553,-0.054,-0.286,80.77,70.2,40.578476,-3.541792,629.4,3,5,123.4,0.352
81.52,1,0.038,-0.064,0.009,0.008,-0.121,-0.001,-1.553,-0.053,-0.285,80.77,70.2,40.578476,-3.541792,629.4,3,5,123.4,0.352
81.63,1,-0.011,0.04,-0.008,0.028,-0.037,0.001,-1.553,-0.053,-0.284,80.77,70.2,40.578476,-3.541792,629.4,3,5,123.4,0.352
81.72,1,-0.015,0.007,0.006,-0.015,0.007,0.001,-1.553,-0.053,-0.283,80.77,70.2,40.578476,-3.541792,629.4,3,5,123.4,0.352
81.82,1,-0.052,-0.069,-0.013,-0.022,-0.029,-0.003,-1.553,-0.053,-0.283,80.77,70.2,40.578476,-3.541792,629.4,3,5,123.4,0.352
81.92,1,0.078,-0.077,0.029,0.008,-0.053,0.005,-1.553,-0.052,-0.282,80.77,70.2,40.578476,-3.541792,629.4,3,5,123.4,0.352
82.02,1,-0.023,0.036,-0.001,0.017,-0.023,0.011,-1.553,-0.051,-0.281,80.77,70.2,40.578476,-3.541792,629.4,3,5,123.4,0.352
82.13,1,-0.008,-0.036,0.009,-0.014,-0.016,0.003,-1.553,-0.05,-0.28,81.74,70.3,40.578384,-3.541612,629.6,3,5,124.1,1.055
82.23,1,-0.054,-0.08,-0.0,-0.029,-0.049,0.006,-1.554,-0.049,-0.28,81.74,70.3,40.578384,-3.541612,629.6,3,5,124.1,1.055
82.33,1,-0.006,-0.069,0.017,-0.017,-0.071,0.009,-1.554,-0.049,-0.279,81.74,70.3,40.578384,-3.541612,629.6,3,5,124.1,1.055
82.42,1,-0.032,-0.03,0.003,-0.017,-0.049,0.01,-1.554,-0.049,-0.278,81.74,70.3,40.578384,-3.541612,629.6,3,5,124.1,1.055
82.52,1,0.038,-0.026,0.014,0.007,-0.038,0.01,-1.554,-0.048,-0.276,81.74,70.3,40.578384,-3.541612,629.6,3,5,124.1,1.055
82.62,1,0.009,-0.079,0.005,-0.004,-0.045,0.006,-1.557,-0.035,-0.273,81.74,70.3,40.578384,-3.541612,629.6,3,5,124.1,1.055
82.72,1,0.001,-0.066,0.006,0.002,-0.063,0.004,-1.554,-0.029,-0.27,81.74,70.3,40.578384,-3.541612,629.6,3,5,124.1,1.055
82.83,1,0.003,-0.039,-0.003,0.009,-0.059,0.001,-1.549,-0.019,-0.268,81.74,70.3,40.578384,-3.541612,629.6,3,5,124.1,1.055
82.93,1,0.049,-0.078,0.027,0.02,-0.059,0.011,-1.545,-0.013,-0.265,81.74,70.3,40.578384,-3.541612,629.6,3,5,124.1,1.055
83.02,1,-0.005,0.024,-0.004,0.026,-0.034,0.014,-1.547,-0.001,-0.262,81.74,70.3,40.578384,-3.541612,629.6,3,5,124.1,1.055
83.12,1,0.035,0.034,0.024,0.03,0.009,0.014,-1.548,0.0,-0.259,82.78,71.1,40.578281,-3.541417,629.8,3,5,123.8,0.352
83.23,1,-0.04,-0.036,-0.007,-0.02,0.002,0.003,-1.547,0.001,-0.257,82.78,71.1,40.578281,-3.541417,629.8,3,5,123.8,0.352
83.32,1,0.003,-0.018,-0.001,0.006,-0.032,0.002,-1.548,0.001,-0.254,82.78,71.1,40.578281,-3.541417,629.8,3,5,123.8,0.352
83.43,1,-0.017,-0.022,0.009,-0.011,-0.013,0.005,-1.548,0.002,-0.251,82.78,71.1,40.578281,-3.541417,629.8,3,5,123.8,0.352
83.53,1,-0.029,0.006,-0.022,-0.017,-0.005,-0.004,-1.548,0.002,-0.249,82.78,71.1,40.578281,-3.541417,629.8,3,5,123.8,0.352
83.63,1,-0.052,-0.012,0.007,-0.048,-0.003,-0.008,-1.55,0.007,-0.246,82.78,71.1,40.578281,-3.541417,629.8,3,5,123.8,0.352
83.73,1,0.082,-0.035,0.031,0.02,-0.032,0.012,-1.548,0.017,-0.244,82.78,71.1,40.578281,-3.541417,629.8,3,5,123.8,0.352
83.84,1,-0.083,0.054,-0.031,-0.005,0.005,0.007,-1.547,0.017,-0.241,82.78,71.1,40.578281,-3.541417,629.8,3,5,123.8,0.352
83.93,1,0.015,0.006,0.0,-0.031,0.028,-0.013,-1.548,0.017,-0.238,82.78,71.1,40.578281,-3.541417,629.8,3,5,123.8,0.352
84.04,1,-0.067,0.014,-0.004,-0.036,0.015,-0.005,-1.548,0.017,-0.236,82.78,71.1,40.578281,-3.541417,629.8,3,5,123.8,0.352
84.13,1,-0.004,-0.029,0.03,-0.015,-0.006,0.013,-1.545,0.013,-0.233,83.78,70.6,40.578186,-3.541221,629.9,3,5,122.0,2.109
84.23,1,-0.095,-0.028,-0.017,-0.059,-0.013,0.002,-1.544,0.015,-0.231,83.78,70.6,40.578186,-3.541221,629.9,3,5,122.0,2.109
84.33,1,0.018,0.048,0.015,-0.027,0.015,0.003,-1.544,0.015,-0.229,83.78,70.6,40.578186,-3.541221,629.9,3,5,122.0,2.109
84.43,1,0.013,0.068,0.022,0.001,0.033,0.016,-1.544,0.016,-0.228,83.78,70.6,40.578186,-3.541221,629.9,3,5,122.0,2.109
84.53,1,-0.015,0.077,0.008,-0.002,0.054,0.009,-1.544,0.016,-0.226,83.78,70.6,40.578186,-3.541221,629.9,3,5,122.0,2.109
84.63,1,-0.016,0.014,0.012,-0.016,0.044,0.013,-1.544,0.017,-0.225,83.78,70.6,40.578186,-3.541221,629.9,3,5,122.0,2.109
84.73,1,-0.038,0.017,0.011,-0.027,0.026,0.011,-1.545,0.017,-0.225,83.78,70.6,40.578186,-3.541221,629.9,3,5,122.0,2.109
84.83,1,-0.049,0.041,-0.011,-0.028,0.029,0.006,-1.544,0.006,-0.225,83.78,70.6,40.578186,-3.541221,629.9,3,5,122.0,2.109
84.93,1,-0.008,0.019,0.019,-0.038,0.032,0.004,-1.543,0.002,-0.224,83.78,70.6,40.578186,-3.541221,629.9,3,5,122.0,2.109
85.03,1,0.019,0.017,-0.008,-0.004,0.002,0.003,-1.541,0.001,-0.225,83.78,70.6,40.578186,-3.541221,629.9,3,5,122.0,2.109
85.13,1,-0.034,0.041,0.018,-0.003,0.04,0.009,-1.54,0.001,-0.225,84.73,70.3,40.578102,-3.541023,630.2,3,5,120.2,3.516
85.24,1,0.017,0.055,0.025,-0.011,0.045,0.017,-1.54,-0.0,-0.226,84.73,70.3,40.578102,-3.541023,630.2,3,5,120.2,3.516
85.33,1,-0.021,0.09,0.031,0.004,0.061,0.028,-1.54,-0.002,-0.227,84.73,70.3,40.578102,-3.541023,630.2,3,5,120.2,3.516
85.43,1,0.022,0.051,0.019,0.006,0.067,0.022,-1.542,-0.01,-0.228,84.73,70.3,40.578102,-3.541023,630.2,3,5,120.2,3.516
85.54,1,-0.119,0.041,-0.017,-0.049,0.052,0.004,-1.546,-0.018,-0.228,84.73,70.3,40.578102,-3.541023,630.2,3,5,120.2,3.516
85.64,1,0.071,-0.055,-0.015,-0.02,0.01,-0.008,-1.546,-0.018,-0.23,84.73,70.3,40.578102,-3.541023,630.2,3,5,120.2,3.516
85.73,1,0.036,-0.072,0.009,0.03,-0.058,-0.003,-1.546,-0.018,-0.23,84.73,70.3,40.578102,-3.541023,630.2,3,5,120.2,3.516
85.83,1,0.022,0.004,-0.003,0.014,-0.024,-0.003,-1.546,-0.017,-0.231,84.73,70.3,40.578102,-3.541023,630.2,3,5,120.2,3.516
85.93,1,-0.01,0.108,0.006,0.028,0.041,0.006,-1.546,-0.017,-0.231,84.73,70.3,40.578102,-3.541023,630.2,3,5,120.2,3.516
86.03,1,0.031,-0.024,0.007,0.012,0.028,0.005,-1.546,-0.017,-0.232,84.73,70.3,40.578102,-3.541023,630.2,3,5,120.2,3.516
86.14,1,-0.0,0.038,0.023,0.015,0.026,0.014,-1.547,-0.017,-0.233,85.71,69.7,40.578011,-3.540823,630.4,3,5,119.2,2.812
86.24,1,-0.007,-0.006,0.009,-0.0,0.014,0.01,-1.55,-0.011,-0.232,85.71,69.7,40.578011,-3.540823,630.4,3,5,119.2,2.812
86.35,1,-0.047,-0.023,-0.017,-0.029,0.002,-0.002,-1.549,-0.013,-0.231,85.71,69.7,40.578011,-3.540823,630.4,3,5,119.2,2.812
86.45,1,0.02,-0.043,0.022,-0.014,-0.032,0.005,-1.549,-0.014,-0.231,85.71,69.7,40.578011,-3.540823,630.4,3,5,119.2,2.812
86.54,1,-0.082,0.021,-0.028,-0.032,-0.003,-0.001,-1.55,-0.011,-0.229,85.71,69.7,40.578011,-3.540823,630.4,3,5,119.2,2.812
86.64,1,-0.028,-0.027,-0.001,-0.044,-0.011,-0.01,-1.55,-0.012,-0.229,85.71,69.7,40.578011,-3.540823,630.4,3,5,119.2,2.812
86.74,1,-0.029,-0.002,-0.0,-0.034,-0.014,-0.006,-1.55,-0.014,-0.228,85.71,69.7,40.578011,-3.540823,630.4,3,5,119.2,2.812
86.84,1,-0.015,0.003,-0.035,-0.033,-0.006,-0.016,-1.55,-0.014,-0.227,85.71,69.7,40.578011,-3.540823,630.4,3,5,119.2,2.812
86.94,1,0.017,0.053,0.021,0.003,0.019,-0.004,-1.552,-0.014,-0.227,85.71,69.7,40.578011,-3.540823,630.4,3,5,119.2,2.812
87.04,1,0.009,0.078,-0.002,0.016,0.051,-0.001,-1.552,-0.013,-0.226,85.71,69.7,40.578011,-3.540823,630.4,3,5,119.2,2.812
87.14,1,-0.071,0.043,0.002,-0.021,0.057,0.006,-1.552,-0.012,-0.224,86.71,69.4,40.577923,-3.540625,630.5,3,5,119.2,1.055
87.24,1,0.005,-0.057,0.008,-0.025,0.003,0.002,-1.551,-0.012,-0.224,86.71,69.4,40.577923,-3.540625,630.5,3,5,119.2,1.055
87.35,1,-0.036,-0.013,-0.014,-0.027,-0.015,-0.004,-1.551,-0.012,-0.223,86.71,69.4,40.577923,-3.540625,630.5,3,5,119.2,1.055
87.45,1,-0.026,-0.017,-0.005,-0.029,-0.012,-0.004,-1.551,-0.012,-0.223,86.71,69.4,40.577923,-3.540625,630.5,3,5,119.2,1.055
87.54,1,-0.029,-0.002,0.012,-0.027,-0.012,0.003,-1.549,-0.015,-0.222,86.71,69.4,40.577923,-3.540625,630.5,3,5,119.2,1.055
87.64,1,0.031,0.012,-0.004,-0.003,-0.003,0.0,-1.549,-0.014,-0.222,86.71,69.4,40.577923,-3.540625,630.5,3,5,119.2,1.055
87.74,1,-0.035,0.053,0.015,-0.002,0.024,0.01,-1.544,-0.014,-0.221,86.71,69.4,40.577923,-3.540625,630.5,3,5,119.2,1.055
87.84,1,0.045,-0.034,0.012,-0.002,0.007,0.005,-1.543,-0.012,-0.221,86.71,69.4,40.577923,-3.540625,630.5,3,5,119.2,1.055
87.95,1,-0.006,0.042,0.031,0.03,0.004,0.023,-1.543,-0.013,-0.22,86.71,69.4,40.577923,-3.540625,630.5,3,5,119.2,1.055
88.04,1,0.008,0.003,-0.001,-0.009,0.019,0.007,-1.543,-0.012,-0.22,86.71,69.4,40.577923,-3.540625,630.5,3,5,119.2,1.055
88.14,1,-0.018,0.003,0.015,0.0,0.011,0.019,-1.544,-0.012,-0.22,87.73,70.5,40.577847,-3.54042,631.4,3,5,118.8,0.352
88.24,1,-0.023,0.017,0.02,-0.015,0.013,0.013,-1.545,-0.013,-0.219,87.73,70.5,40.577847,-3.54042,631.4,3,5,118.8,0.352
88.35,1,0.021,-0.016,-0.002,-0.005,0.002,0.011,-1.544,-0.015,-0.219,87.73,70.5,40.577847,-3.54042,631.4,3,5,118.8,0.352
88.44,1,-0.041,0.024,0.018,-0.026,0.016,0.005,-1.543,-0.015,-0.219,87.73,70.5,40.577847,-3.54042,631.4,3,5,118.8,0.352
88.54,1,0.047,-0.025,0.054,0.015,-0.012,0.033,-1.544,-0.013,-0.219,87.73,70.5,40.577847,-3.54042,631.4,3,5,118.8,0.352
88.65,1,0.009,0.041,0.003,0.012,0.014,0.026,-1.548,-0.016,-0.218,87.73,70.5,40.577847,-3.54042,631.4,3,5,118.8,0.352
88.75,1,-0.047,0.007,0.005,-0.005,0.018,0.011,-1.55,-0.016,-0.217,87.73,70.5,40.577847,-3.54042,631.4,3,5,118.8,0.352
88.85,1,-0.045,-0.019,0.008,-0.03,0.002,0.011,-1.552,-0.01,-0.217,87.73,70.5,40.577847,-3.54042,631.4,3,5,118.8,0.352
88.95,1,-0.037,-0.022,0.009,-0.037,-0.017,0.006,-1.551,-0.012,-0.217,87.73,70.5,40.577847,-3.54042,631.4,3,5,118.8,0.352
89.05,1,0.05,-0.031,0.019,-0.002,-0.019,0.014,-1.551,-0.012,-0.216,87.73,70.5,40.577847,-3.54042,631.4,3,5,118.8,0.352
89.15,1,0.039,0.031,0.01,0.021,-0.003,0.008,-1.551,-0.011,-0.216,88.74,70.0,40.577759,-3.540214,630.6,3,5,117.8,1.406
89.25,1,0.03,0.025,0.025,0.033,0.012,0.024,-1.556,-0.013,-0.215,88.74,70.0,40.577759,-3.540214,630.6,3,5,117.8,1.406
89.35,1,-0.028,-0.003,0.013,0.011,0.01,0.018,-1.556,-0.011,-0.215,88.74,70.0,40.577759,-3.540214,630.6,3,5,117.8,1.406
89.45,1,-0.056,-0.026,0.004,-0.016,-0.007,0.015,-1.555,-0.014,-0.215,88.74,70.0,40.577759,-3.540214,630.6,3,5,117.8,1.406
89.55,1,0.002,0.01,0.014,-0.03,-0.006,0.008,-1.563,-0.022,-0.216,88.74,70.0,40.577759,-3.540214,630.6,3,5,117.8,1.406
89.65,1,0.032,-0.006,0.032,-0.0,0.008,0.02,-1.566,-0.023,-0.216,88.74,70.0,40.577759,-3.540214,630.6,3,5,117.8,1.406
89.76,1,-0.086,0.019,-0.028,-0.022,0.003,0.004,-1.565,-0.023,-0.216,88.74,70.0,40.577759,-3.540214,630.6,3,5,117.8,1.406
89.85,1,0.028,0.035,0.018,-0.021,0.004,-0.003,-1.566,-0.026,-0.217,88.74,70.0,40.577759,-3.540214,630.6,3,5,117.8,1.406
89.95,1,0.012,0.034,0.008,0.007,0.035,0.009,-1.568,-0.039,-0.219,88.74,70.0,40.577759,-3.540214,630.6,3,5,117.8,1.406
90.05,1,0.008,0.04,0.005,0.032,0.028,0.014,-1.57,-0.045,-0.22,88.74,70.0,40.577759,-3.540214,630.6,3,5,117.8,1.406
90.15,1,-0.007,-0.05,0.004,-0.012,-0.002,0.003,-1.572,-0.05,-0.222,89.74,69.6,40.577679,-3.540004,631.6,3,5,117.1,1.758
90.25,1,0.007,-0.007,0.002,-0.003,-0.012,-0.001,-1.573,-0.05,-0.223,89.74,69.6,40.577679,-3.540004,631.6,3,5,117.1,1.758
90.35,1,-0.018,0.031,-0.005,0.001,0.011,0.004,-1.574,-0.05,-0.224,89.74,69.6,40.577679,-3.540004,631.6,3,5,117.1,1.758
90.45,1,0.034,0.02,0.028,-0.001,0.015,0.006,-1.577,-0.048,-0.226,89.74,69.6,40.577679,-3.540004,631.6,3,5,117.1,1.758
90.55,1,-0.074,0.024,-0.005,-0.023,0.029,0.009,-1.578,-0.044,-0.228,89.74,69.6,40.577679,-3.540004,631.6,3,5,117.1,1.758
90.65,1,-0.021,0.029,-0.005,-0.03,0.02,-0.001,-1.577,-0.045,-0.23,89.74,69.6,40.577679,-3.540004,631.6,3,5,117.1,1.758
90.75,1,0.023,0.003,0.001,-0.01,0.02,-0.002,-1.576,-0.045,-0.232,89.74,69.6,40.577679,-3.540004,631.6,3,5,117.1,1.758
90.85,1,-0.031,0.038,-0.004,-0.013,0.027,-0.0,-1.574,-0.049,-0.234,89.74,69.6,40.577679,-3.540004,631.6,3,5,117.1,1.758
90.96,1,0.04,-0.066,0.013,-0.004,-0.011,0.0,-1.575,-0.05,-0.236,89.74,69.6,40.577679,-3.540004,631.6,3,5,117.1,1.758
91.06,1,-0.029,0.03,-0.009,0.005,-0.011,0.003,-1.575,-0.049,-0.237,89.74,69.6,40.577679,-3.540004,631.6,3,5,117.1,1.758
91.16,1,-0.011,-0.011,-0.01,0.003,0.0,-0.006,-1.575,-0.048,-0.238,90.76,70.6,40.577591,-3.539797,631.9,3,5,117.1,0.703
91.25,1,0.028,-0.036,0.02,-0.006,-0.013,0.003,-1.575,-0.046,-0.238,90.76,70.6,40.577591,-3.539797,631.9,3,5,117.1,0.703
91.36,1,-0.016,-0.007,0.001,0.003,-0.018,0.009,-1.575,-0.041,-0.239,90.76,70.6,40.577591,-3.539797,631.9,3,5,117.1,0.703
91.46,1,0.072,-0.053,0.007,0.031,-0.03,0.001,-1.577,-0.041,-0.239,90.76,70.6,40.577591,-3.539797,631.9,3,5,117.1,0.703
91.56,1,-0.05,0.018,-0.019,-0.009,-0.005,-0.004,-1.575,-0.043,-0.239,90.76,70.6,40.577591,-3.539797,631.9,3,5,117.1,0.703
91.66,1,-0.032,-0.023,-0.011,-0.011,-0.021,-0.005,-1.574,-0.043,-0.239,90.76,70.6,40.577591,-3.539797,631.9,3,5,117.1,0.703
91.76,1,-0.041,-0.024,-0.012,-0.032,-0.02,-0.009,-1.572,-0.039,-0.239,90.76,70.6,40.577591,-3.539797,631.9,3,5,117.1,0.703
91.86,1,-0.06,-0.005,-0.018,-0.041,-0.016,-0.017,-1.57,-0.032,-0.239,90.76,70.6,40.577591,-3.539797,631.9,3,5,117.1,0.703
91.96,1,0.029,-0.075,0.001,-0.033,-0.03,-0.011,-1.573,-0.031,-0.239,90.76,70.6,40.577591,-3.539797,631.9,3,5,117.1,0.703
92.06,1,-0.086,0.024,-0.007,-0.015,-0.028,-0.003,-1.573,-0.033,-0.239,90.76,70.6,40.577591,-3.539797,631.9,3,5,117.1,0.703
92.16,1,-0.001,-0.004,-0.052,-0.032,-0.013,-0.021,-1.574,-0.033,-0.24,91.72,71.4,40.577507,-3.53959,632.4,3,5,117.1,0.0
92.27,1,-0.006,0.029,0.015,-0.018,0.008,-0.015,-1.573,-0.032,-0.24,91.72,71.4,40.577507,-3.53959,632.4,3,5,117.1,0.0
92.36,1,-0.029,-0.01,-0.029,-0.027,0.019,-0.016,-1.572,-0.032,-0.24,91.72,71.4,40.577507,-3.53959,632.4,3,5,117.1,0.0
92.46,1,0.058,-0.031,-0.011,-0.003,-0.011,-0.016,-1.572,-0.03,-0.24,91.72,71.4,40.577507,-3.53959,632.4,3,5,117.1,0.0
92.56,1,-0.143,0.072,-0.034,-0.04,0.022,-0.024,-1.571,-0.028,-0.239,91.72,71.4,40.577507,-3.53959,632.4,3,5,117.1,0.0
92.66,1,0.003,0.031,-0.019,-0.038,0.027,-0.025,-1.572,-0.028,-0.24,91.72,71.4,40.577507,-3.53959,632.4,3,5,117.1,0.0
92.76,1,0.001,-0.019,-0.01,-0.016,0.012,-0.021,-1.572,-0.028,-0.24,91.72,71.4,40.577507,-3.53959,632.4,3,5,117.1,0.0
92.87,1,-0.034,0.009,-0.016,-0.01,0.002,-0.013,-1.573,-0.028,-0.24,91.72,71.4,40.577507,-3.53959,632.4,3,5,117.1,0.0
92.96,1,0.001,0.024,-0.021,-0.012,0.016,-0.014,-1.571,-0.029,-0.241,91.72,71.4,40.577507,-3.53959,632.4,3,5,117.1,0.0
93.06,1,-0.052,0.023,-0.018,-0.022,0.016,-0.02,-1.568,-0.024,-0.24,91.72,71.4,40.577507,-3.53959,632.4,3,5,117.1,0.0
93.16,1,0.001,-0.017,-0.007,-0.031,0.008,-0.017,-1.568,-0.022,-0.24,92.72,71.7,40.577427,-3.539386,632.5,3,5,117.1,0.0
93.26,1,-0.051,0.013,-0.0,-0.033,0.005,-0.006,-1.566,-0.021,-0.24,92.72,71.7,40.577427,-3.539386,632.5,3,5,117.1,0.0
93.36,1,-0.013,0.011,-0.006,-0.021,0.004,-0.003,-1.562,-0.019,-0.24,92.72,71.7,40.577427,-3.539386,632.5,3,5,117.1,0.0
93.47,1,0.011,-0.009,0.004,-0.015,0.007,-0.005,-1.561,-0.021,-0.241,92.72,71.7,40.577427,-3.539386,632.5,3,5,117.1,0.0
93.57,1,0.007,0.028,-0.026,0.015,0.01,-0.008,-1.56,-0.021,-0.241,92.72,71.7,40.577427,-3.539386,632.5,3,5,117.1,0.0
93.66,1,-0.002,0.007,-0.009,0.004,0.016,-0.012,-1.56,-0.026,-0.241,92.72,71.7,40.577427,-3.539386,632.5,3,5,117.1,0.0
93.76,1,0.013,-0.041,-0.004,-0.006,-0.015,-0.005,-1.56,-0.026,-0.241,92.72,71.7,40.577427,-3.539386,632.5,3,5,117.1,0.0
93.87,1,-0.034,-0.012,-0.023,-0.016,-0.016,-0.013,-1.56,-0.025,-0.241,92.72,71.7,40.577427,-3.539386,632.5,3,5,117.1,0.0
93.97,1,0.008,-0.001,0.007,0.009,-0.021,-0.008,-1.56,-0.023,-0.241,92.72,71.7,40.577427,-3.539386,632.5,3,5,117.1,0.0
94.07,1,-0.012,-0.016,-0.011,-0.01,-0.004,-0.006,-1.559,-0.022,-0.241,92.72,71.7,40.577427,-3.539386,632.5,3,5,117.1,0.0
94.17,1,-0.014,0.039,0.03,-0.006,0.009,0.01,-1.559,-0.022,-0.241,93.74,72.7,40.577351,-3.539168,632.7,3,5,116.4,0.703
94.27,1,0.001,-0.022,0.003,-0.024,0.01,0.007,-1.558,-0.025,-0.241,93.74,72.7,40.577351,-3.539168,632.7,3,5,116.4,0.703
94.37,1,-0.074,0.036,-0.019,-0.021,0.005,0.001,-1.555,-0.025,-0.241,93.74,72.7,40.577351,-3.539168,632.7,3,5,116.4,0.703
94.47,1,0.013,-0.033,-0.009,-0.019,-0.002,-0.009,-1.555,-0.021,-0.241,93.74,72.7,40.577351,-3.539168,632.7,3,5,116.4,0.703
94.57,1,0.01,-0.017,0.006,-0.009,-0.009,-0.004,-1.555,-0.021,-0.241,93.74,72.7,40.577351,-3.539168,632.7,3,5,116.4,0.703
94.68,1,-0.004,0.03,-0.005,0.007,-0.004,0.001,-1.556,-0.021,-0.24,93.74,72.7,40.577351,-3.539168,632.7,3,5,116.4,0.703
94.87,1,-0.051,-0.035,-0.013,-0.029,-0.015,-0.002,-1.555,-0.016,-0.239,93.74,72.7,40.577351,-3.539168,632.7,3,5,116.4,0.703
94.97,1,-0.025,0.009,0.005,-0.04,0.003,-0.005,-1.555,-0.016,-0.239,93.74,72.7,40.577351,-3.539168,632.7,3,5,116.4,0.703
95.07,1,-0.036,-0.06,0.006,-0.017,-0.032,0.006,-1.555,-0.016,-0.239,93.74,72.7,40.577351,-3.539168,632.7,3,5,116.4,0.703
95.17,1,0.012,-0.021,-0.012,-0.016,-0.042,-0.005,-1.554,-0.017,-0.239,93.74,72.7,40.577351,-3.539168,632.7,3,5,116.4,0.703
95.28,1,0.03,0.054,0.004,0.003,0.002,-0.005,-1.553,-0.017,-0.239,94.74,72.1,40.577271,-3.538949,632.6,3,5,116.0,1.055
95.37,1,-0.042,0.011,0.009,-0.002,0.019,0.003,-1.553,-0.017,-0.239,94.74,72.1,40.577271,-3.538949,632.6,3,5,116.0,1.055
95.47,1,-0.015,-0.04,0.004,-0.026,0.002,0.008,-1.554,-0.016,-0.239,94.74,72.1,40.577271,-3.538949,632.6,3,5,116.0,1.055
95.57,1,-0.102,-0.039,-0.02,-0.053,-0.035,-0.008,-1.555,-0.015,-0.24,94.74,72.1,40.577271,-3.538949,632.6,3,5,116.0,1.055
95.68,1,-0.039,-0.029,0.014,-0.054,-0.034,0.003,-1.556,-0.014,-0.24,94.74,72.1,40.577271,-3.538949,632.6,3,5,116.0,1.055
95.77,1,0.031,0.003,0.004,-0.02,-0.013,0.005,-1.555,-0.009,-0.241,94.74,72.1,40.577271,-3.538949,632.6,3,5,116.0,1.055
95.88,1,0.013,0.052,0.028,0.009,0.009,0.011,-1.556,-0.007,-0.241,94.74,72.1,40.577271,-3.538949,632.6,3,5,116.0,1.055
95.97,1,0.008,0.049,0.01,0.015,0.034,0.017,-1.553,0.003,-0.241,94.74,72.1,40.577271,-3.538949,632.6,3,5,116.0,1.055
96.08,1,-0.094,-0.085,-0.054,-0.042,-0.009,-0.016,-1.55,0.004,-0.24,94.74,72.1,40.577271,-3.538949,632.6,3,5,116.0,1.055
96.17,1,0.075,-0.043,-0.01,0.003,-0.044,-0.023,-1.551,0.004,-0.241,94.74,72.1,40.577271,-3.538949,632.6,3,5,116.0,1.055
96.28,1,0.013,0.005,0.001,0.002,-0.015,-0.016,-1.553,0.007,-0.241,95.74,71.9,40.57719,-3.538732,632.4,3,5,115.3,1.055
96.38,1,-0.079,0.009,0.027,0.001,0.001,0.012,-1.555,0.008,-0.241,95.74,71.9,40.57719,-3.538732,632.4,3,5,115.3,1.055
96.48,1,-0.065,0.061,0.011,-0.058,0.027,0.019,-1.551,0.007,-0.241,95.74,71.9,40.57719,-3.538732,632.4,3,5,115.3,1.055
96.58,1,-0.012,-0.026,-0.024,-0.038,0.013,-0.001,-1.549,0.007,-0.242,95.74,71.9,40.57719,-3.538732,632.4,3,5,115.3,1.055
96.68,1,0.05,-0.047,-0.007,0.009,-0.02,-0.009,-1.549,0.008,-0.243,95.74,71.9,40.57719,-3.538732,632.4,3,5,115.3,1.055
96.78,1,-0.04,0.056,-0.002,-0.012,0.015,-0.012,-1.551,0.01,-0.242,95.74,71.9,40.57719,-3.538732,632.4,3,5,115.3,1.055
96.88,1,0.032,0.05,0.056,0.016,0.031,0.023,-1.553,0.011,-0.243,95.74,71.9,40.57719,-3.538732,632.4,3,5,115.3,1.055
96.99,1,-0.022,0.009,-0.016,-0.012,0.029,0.014,-1.551,0.011,-0.244,95.74,71.9,40.57719,-3.538732,632.4,3,5,115.3,1.055
97.08,1,-0.059,0.025,-0.026,-0.026,0.013,-0.006,-1.55,0.009,-0.244,95.74,71.9,40.57719,-3.538732,632.4,3,5,115.3,1.055
97.18,1,0.051,-0.037,-0.006,-0.014,0.004,-0.017,-1.551,0.007,-0.245,95.74,71.9,40.57719,-3.538732,632.4,3,5,115.3,1.055
97.28,1,-0.105,0.076,-0.016,-0.03,0.022,-0.005,-1.553,0.005,-0.244,96.75,72.5,40.577114,-3.538525,632.5,3,5,115.7,0.352
97.38,1,0.036,0.002,0.038,-0.023,0.034,0.007,-1.553,0.004,-0.245,96.75,72.5,40.577114,-3.538525,632.5,3,5,115.7,0.352
97.48,1,-0.034,-0.031,-0.046,-0.022,-0.013,-0.011,-1.552,0.005,-0.245,96.75,72.5,40.577114,-3.538525,632.5,3,5,115.7,0.352
97.58,1,-0.042,0.04,0.034,-0.006,0.004,0.005,-1.554,0.005,-0.244,96.75,72.5,40.577114,-3.538525,632.5,3,5,115.7,0.352
97.68,1,-0.057,0.033,-0.049,-0.047,0.045,-0.015,-1.554,0.005,-0.244,96.75,72.5,40.577114,-3.538525,632.5,3,5,115.7,0.352
97.78,1,0.019,-0.032,0.043,-0.027,-0.01,-0.003,-1.555,0.004,-0.244,96.75,72.5,40.577114,-3.538525,632.5,3,5,115.7,0.352
97.88,1,0.054,-0.031,-0.006,0.014,-0.018,0.012,-1.553,0.004,-0.244,96.75,72.5,40.577114,-3.538525,632.5,3,5,115.7,0.352
97.98,1,-0.058,0.028,-0.038,0.004,0.003,-0.012,-1.551,0.003,-0.243,96.75,72.5,40.577114,-3.538525,632.5,3,5,115.7,0.352
98.08,1,0.011,0.029,0.023,0.004,0.012,-0.007,-1.551,0.007,-0.243,96.75,72.5,40.577114,-3.538525,632.5,3,5,115.7,0.352
98.19,1,-0.037,-0.028,-0.021,-0.032,0.0,-0.007,-1.549,0.01,-0.243,96.75,72.5,40.577114,-3.538525,632.5,3,5,115.7,0.352
98.28,1,-0.016,-0.023,0.004,-0.035,-0.019,-0.004,-1.552,0.002,-0.243,97.73,72.3,40.577042,-3.538301,632.9,3,5,114.6,1.055
98.38,1,0.099,-0.001,0.036,0.031,-0.012,0.012,-1.553,0.002,-0.244,97.73,72.3,40.577042,-3.538301,632.9,3,5,114.6,1.055
98.48,1,-0.039,0.107,0.017,0.015,0.047,0.025,-1.551,0.002,-0.243,97.73,72.3,40.577042,-3.538301,632.9,3,5,114.6,1.055
98.58,1,-0.016,0.014,-0.018,-0.007,0.047,0.002,-1.55,0.003,-0.242,97.73,72.3,40.577042,-3.538301,632.9,3,5,114.6,1.055
98.68,1,0.047,-0.045,0.016,0.012,-0.0,0.003,-1.55,0.006,-0.242,97.73,72.3,40.577042,-3.538301,632.9,3,5,114.6,1.055
98.79,1,-0.013,0.001,0.005,0.024,-0.016,0.007,-1.55,0.008,-0.241,97.73,72.3,40.577042,-3.538301,632.9,3,5,114.6,1.055
98.88,1,-0.014,-0.009,0.014,-0.008,-0.006,0.006,-1.552,0.004,-0.24,97.73,72.3,40.577042,-3.538301,632.9,3,5,114.6,1.055
98.98,1,-0.124,-0.023,0.01,-0.057,-0.013,0.011,-1.555,0.015,-0.24,97.73,72.3,40.577042,-3.538301,632.9,3,5,114.6,1.055
99.08,1,0.026,0.009,0.007,-0.037,-0.012,0.009,-1.552,0.021,-0.24,97.73,72.3,40.577042,-3.538301,632.9,3,5,114.6,1.055
99.19,1,-0.023,0.09,0.002,-0.016,0.047,0.008,-1.551,0.022,-0.239,97.73,72.3,40.577042,-3.538301,632.9,3,5,114.6,1.055
99.29,1,-0.015,0.02,0.019,-0.033,0.048,0.009,-1.551,0.023,-0.239,98.78,72.2,40.576958,-3.538086,632.8,3,5,114.6,1.055
99.39,1,-0.061,0.055,0.022,-0.034,0.031,0.014,-1.552,0.024,-0.238,98.78,72.2,40.576958,-3.538086,632.8,3,5,114.6,1.055
99.49,1,-0.014,-0.048,0.017,-0.018,0.004,0.024,-1.551,0.024,-0.238,98.78,72.2,40.576958,-3.538086,632.8,3,5,114.6,1.055
99.59,1,0.006,0.017,0.008,-0.013,-0.004,0.014,-1.55,0.024,-0.237,98.78,72.2,40.576958,-3.538086,632.8,3,5,114.6,1.055
99.69,1,0.036,0.05,0.015,0.017,0.027,0.013,-1.551,0.025,-0.238,98.78,72.2,40.576958,-3.538086,632.8,3,5,114.6,1.055
99.8,1,-0.088,0.092,0.002,-0.022,0.058,0.007,-1.551,0.024,-0.237,98.78,72.2,40.576958,-3.538086,632.8,3,5,114.6,1.055
99.89,1,0.019,-0.012,0.04,-0.032,0.053,0.023,-1.552,0.023,-0.238,98.78,72.2,40.576958,-3.538086,632.8,3,5,114.6,1.055
100.0,1,-0.01,0.043,0.012,-0.013,0.02,0.018,-1.551,0.022,-0.239,98.78,72.2,40.576958,-3.538086,632.8,3,5,114.6,1.055
100.09,1,-0.004,0.052,0.01,-0.005,0.029,0.016,-1.549,0.017,-0.239,98.78,72.2,40.576958,-3.538086,632.8,3,5,114.6,1.055
100.19,1,-0.002,0.026,-0.004,-0.0,0.042,0.006,-1.553,0.021,-0.239,98.78,72.2,40.576958,-3.538086,632.8,3,5,114.6,1.055
100.29,1,-0.042,0.023,-0.019,-0.014,0.03,-0.007,-1.557,0.022,-0.24,99.72,71.6,40.5769,-3.537869,633.1,3,5,113.6,1.055
100.4,1,0.023,0.027,0.04,-0.006,0.021,0.01,-1.56,0.022,-0.241,99.72,71.6,40.5769,-3.537869,633.1,3,5,113.6,1.055
100.49,1,-0.038,-0.04,-0.004,-0.022,0.014,0.011,-1.559,0.021,-0.241,99.72,71.6,40.5769,-3.537869,633.1,3,5,113.6,1.055
100.59,1,0.018,0.0,-0.004,-0.007,-0.018,0.004,-1.559,0.02,-0.243,99.72,71.6,40.5769,-3.537869,633.1,3,5,113.6,1.055
100.69,1,-0.004,0.109,0.02,0.009,0.036,0.007,-1.559,0.019,-0.244,99.72,71.6,40.5769,-3.537869,633.1,3,5,113.6,1.055
100.8,1,0.025,0.012,0.009,-0.01,0.048,0.006,-1.557,0.018,-0.244,99.72,71.6,40.5769,-3.537869,633.1,3,5,113.6,1.055
100.89,1,-0.049,0.033,-0.022,0.013,0.032,0.001,-1.557,0.017,-0.245,99.72,71.6,40.5769,-3.537869,633.1,3,5,113.6,1.055
101.0,1,-0.064,0.065,-0.02,-0.051,0.048,-0.016,-1.559,0.017,-0.246,99.72,71.6,40.5769,-3.537869,633.1,3,5,113.6,1.055
101.1,1,-0.04,0.018,0.019,-0.039,0.036,-0.0,-1.563,0.014,-0.248,99.72,71.6,40.5769,-3.537869,633.1,3,5,113.6,1.055
101.2,1,-0.052,-0.018,-0.001,-0.063,0.018,-0.0,-1.565,0.006,-0.249,99.72,71.6,40.5769,-3.537869,633.1,3,5,113.6,1.055
101.29,1,0.062,0.07,0.008,-0.01,0.021,0.009,-1.565,-0.003,-0.25,100.72,72.1,40.576828,-3.537658,632.9,3,5,113.2,1.406
101.39,1,-0.034,0.073,0.004,0.013,0.058,0.005,-1.563,-0.004,-0.251,100.72,72.1,40.576828,-3.537658,632.9,3,5,113.2,1.406
101.49,1,0.004,0.059,-0.041,-0.008,0.072,-0.015,-1.562,-0.002,-0.253,100.72,72.1,40.576828,-3.537658,632.9,3,5,113.2,1.406
101.59,1,-0.03,-0.023,0.011,-0.013,0.019,-0.011,-1.562,-0.001,-0.254,100.72,72.1,40.576828,-3.537658,632.9,3,5,113.2,1.406
101.7,1,-0.048,0.001,-0.013,-0.022,-0.002,-0.008,-1.562,-0.002,-0.255,100.72,72.1,40.576828,-3.537658,632.9,3,5,113.2,1.406
101.79,1,-0.034,-0.017,0.01,-0.043,-0.004,0.003,-1.562,-0.001,-0.257,100.72,72.1,40.576828,-3.537658,632.9,3,5,113.2,1.406
101.9,1,-0.0,0.019,-0.012,-0.018,0.002,-0.003,-1.561,0.001,-0.258,100.72,72.1,40.576828,-3.537658,632.9,3,5,113.2,1.406
102.0,1,0.022,0.066,0.006,0.001,0.039,0.004,-1.56,0.006,-0.259,100.72,72.1,40.576828,-3.537658,632.9,3,5,113.2,1.406
102.1,1,-0.004,0.061,0.002,0.006,0.052,-0.002,-1.56,0.005,-0.26,100.72,72.1,40.576828,-3.537658,632.9,3,5,113.2,1.406
102.2,1,-0.1,0.002,-0.023,-0.021,0.032,-0.005,-1.56,0.005,-0.261,100.72,72.1,40.576828,-3.537658,632.9,3,5,113.2,1.406
102.3,1,0.03,0.014,0.021,-0.034,0.012,-0.005,-1.573,-0.005,-0.263,101.71,72.4,40.576756,-3.537442,633.3,3,5,113.2,0.352
102.4,1,-0.086,0.028,-0.029,-0.025,0.012,-0.003,-1.573,-0.006,-0.263,101.71,72.4,40.576756,-3.537442,633.3,3,5,113.2,0.352
102.5,1,-0.006,-0.005,-0.036,-0.061,0.024,-0.024,-1.571,-0.006,-0.264,101.71,72.4,40.576756,-3.537442,633.3,3,5,113.2,0.352
102.6,1,0.045,-0.072,-0.02,0.004,-0.025,-0.028,-1.57,-0.005,-0.265,101.71,72.4,40.576756,-3.537442,633.3,3,5,113.2,0.352
102.7,1,0.046,-0.015,0.008,0.029,-0.031,-0.011,-1.57,-0.005,-0.265,101.71,72.4,40.576756,-3.537442,633.3,3,5,113.2,0.352
102.8,1,0.052,-0.004,-0.012,0.048,-0.019,-0.002,-1.57,-0.005,-0.266,101.71,72.4,40.576756,-3.537442,633.3,3,5,113.2,0.352
102.9,1,0.003,0.041,-0.024,0.032,0.008,-0.015,-1.574,-0.013,-0.266,101.71,72.4,40.576756,-3.537442,633.3,3,5,113.2,0.352
103.0,1,-0.078,0.043,-0.039,-0.025,0.036,-0.033,-1.576,-0.012,-0.267,101.71,72.4,40.576756,-3.537442,633.3,3,5,113.2,0.352
103.1,1,-0.047,0.055,0.006,-0.047,0.038,-0.013,-1.579,-0.004,-0.267,101.71,72.4,40.576756,-3.537442,633.3,3,5,113.2,0.352
103.21,1,-0.042,-0.035,0.012,-0.043,-0.004,0.001,-1.58,-0.004,-0.267,101.71,72.4,40.576756,-3.537442,633.3,3,5,113.2,0.352
103.3,1,-0.006,-0.089,-0.012,-0.03,-0.028,0.001,-1.578,-0.004,-0.269,102.71,72.5,40.576683,-3.537221,633.5,3,5,113.6,0.352
103.4,1,0.078,0.014,-0.018,0.004,-0.03,-0.018,-1.576,-0.006,-0.269,102.71,72.5,40.576683,-3.537221,633.5,3,5,113.6,0.352
103.5,1,0.014,0.054,-0.03,0.041,0.023,-0.017,-1.574,-0.007,-0.27,102.71,72.5,40.576683,-3.537221,633.5,3,5,113.6,0.352
103.6,1,-0.032,0.017,-0.031,0.013,0.036,-0.026,-1.575,-0.006,-0.27,102.71,72.5,40.576683,-3.537221,633.5,3,5,113.6,0.352
103.7,1,-0.027,0.032,-0.014,-0.021,0.018,-0.025,-1.578,-0.005,-0.271,102.71,72.5,40.576683,-3.537221,633.5,3,5,113.6,0.352
103.8,1,-0.043,0.016,0.015,-0.041,0.024,-0.002,-1.579,-0.004,-0.272,102.71,72.5,40.576683,-3.537221,633.5,3,5,113.6,0.352
103.9,1,-0.021,-0.031,-0.042,-0.031,0.002,-0.016,-1.576,-0.002,-0.272,102.71,72.5,40.576683,-3.537221,633.5,3,5,113.6,0.352
104.0,1,-0.023,0.066,0.023,-0.011,0.01,-0.004,-1.577,0.012,-0.273,102.71,72.5,40.576683,-3.537221,633.5,3,5,113.6,0.352
104.11,1,0.067,-0.013,-0.004,0.015,0.028,-0.001,-1.579,0.016,-0.274,102.71,72.5,40.576683,-3.537221,633.5,3,5,113.6,0.352
104.21,1,-0.024,0.007,-0.05,-0.013,0.012,-0.029,-1.578,0.016,-0.274,102.71,72.5,40.576683,-3.537221,633.5,3,5,113.6,0.352
104.3,1,0.038,0.068,0.027,0.038,0.014,-0.003,-1.58,0.011,-0.275,103.73,72.6,40.576611,-3.537002,634.3,3,5,113.6,0.352
104.4,1,-0.039,0.08,-0.012,-0.007,0.071,-0.001,-1.579,0.009,-0.275,103.73,72.6,40.576611,-3.537002,634.3,3,5,113.6,0.352
104.52,1,0.017,-0.033,-0.015,-0.014,0.03,-0.007,-1.578,0.009,-0.276,103.73,72.6,40.576611,-3.537002,634.3,3,5,113.6,0.352
104.61,1,-0.055,0.058,-0.012,-0.001,0.01,-0.012,-1.579,0.009,-0.277,103.73,72.6,40.576611,-3.537002,634.3,3,5,113.6,0.352
104.81,1,-0.016,0.049,-0.008,-0.019,0.036,-0.014,-1.579,0.008,-0.279,103.73,72.6,40.576611,-3.537002,634.3,3,5,113.6,0.352
104.91,1,-0.036,0.037,0.002,-0.026,0.043,-0.005,-1.581,0.008,-0.28,103.73,72.6,40.576611,-3.537002,634.3,3,5,113.6,0.352
105.01,1,0.04,0.007,0.003,0.004,0.028,0.0,-1.581,0.002,-0.281,103.73,72.6,40.576611,-3.537002,634.3,3,5,113.6,0.352
105.11,1,-0.032,0.047,-0.038,-0.017,0.038,-0.016,-1.578,0.005,-0.282,103.73,72.6,40.576611,-3.537002,634.3,3,5,113.6,0.352
105.21,1,0.003,0.054,0.019,0.007,0.037,-0.001,-1.577,0.006,-0.283,103.73,72.6,40.576611,-3.537002,634.3,3,5,113.6,0.352
105.31,1,-0.07,0.022,-0.042,-0.033,0.042,-0.021,-1.573,0.002,-0.285,103.73,72.6,40.576611,-3.537002,634.3,3,5,113.6,0.352
105.41,1,-0.034,0.026,0.004,-0.058,0.029,-0.017,-1.572,0.002,-0.288,104.71,72.3,40.57655,-3.536793,634.3,3,5,113.2,0.352
105.51,1,0.053,0.001,0.015,0.012,0.008,0.002,-1.575,0.005,-0.291,104.71,72.3,40.57655,-3.536793,634.3,3,5,113.2,0.352
105.61,1,-0.053,0.106,0.009,-0.0,0.047,0.015,-1.573,0.004,-0.294,104.71,72.3,40.57655,-3.536793,634.3,3,5,113.2,0.352
105.71,1,-0.027,0.056,-0.036,-0.046,0.076,-0.015,-1.573,0.004,-0.297,104.71,72.3,40.57655,-3.536793,634.3,3,5,113.2,0.352
105.81,1,-0.004,0.049,-0.003,-0.001,0.052,-0.007,-1.575,0.003,-0.3,104.71,72.3,40.57655,-3.536793,634.3,3,5,113.2,0.352
105.92,1,0.001,0.071,0.01,-0.001,0.058,-0.002,-1.573,-0.001,-0.303,104.71,72.3,40.57655,-3.536793,634.3,3,5,113.2,0.352
106.02,1,-0.024,0.127,-0.024,-0.016,0.09,-0.012,-1.57,-0.01,-0.306,104.71,72.3,40.57655,-3.536793,634.3,3,5,113.2,0.352
106.11,1,-0.029,0.095,0.041,-0.027,0.101,0.006,-1.569,-0.016,-0.309,104.71,72.3,40.57655,-3.536793,634.3,3,5,113.2,0.352
106.21,1,0.065,0.023,-0.001,0.007,0.065,0.014,-1.568,-0.016,-0.313,104.71,72.3,40.57655,-3.536793,634.3,3,5,113.2,0.352
106.32,1,0.017,0.066,0.014,0.041,0.065,0.013,-1.568,-0.016,-0.316,104.71,72.3,40.57655,-3.536793,634.3,3,5,113.2,0.352
106.41,1,-0.045,-0.04,-0.019,-0.006,0.019,0.002,-1.569,-0.018,-0.319,105.72,73.7,40.576473,-3.536572,634.0,3,5,113.9,0.703
106.51,1,0.007,0.044,0.012,-0.02,0.012,-0.005,-1.571,-0.019,-0.323,105.72,73.7,40.576473,-3.536572,634.0,3,5,113.9,0.703
106.61,1,0.006,0.108,0.021,0.001,0.057,0.011,-1.572,-0.019,-0.326,105.72,73.7,40.576473,-3.536572,634.0,3,5,113.9,0.703
106.71,1,-0.11,0.113,-0.01,-0.037,0.087,0.01,-1.571,-0.019,-0.328,105.72,73.7,40.576473,-3.536572,634.0,3,5,113.9,0.703
106.81,1,0.02,-0.061,-0.001,-0.031,0.034,-0.002,-1.571,-0.018,-0.331,105.72,73.7,40.576473,-3.536572,634.0,3,5,113.9,0.703
106.92,1,-0.084,0.02,0.002,-0.044,0.013,-0.001,-1.571,-0.016,-0.333,105.72,73.7,40.576473,-3.536572,634.0,3,5,113.9,0.703
107.03,1,0.034,-0.014,-0.001,-0.031,0.0,-0.004,-1.571,-0.016,-0.335,105.72,73.7,40.576473,-3.536572,634.0,3,5,113.9,0.703
107.12,1,-0.007,0.076,0.024,0.01,0.027,0.013,-1.574,-0.029,-0.338,105.72,73.7,40.576473,-3.536572,634.0,3,5,113.9,0.703
107.22,1,-0.003,0.066,-0.005,-0.015,0.056,0.003,-1.574,-0.033,-0.34,105.72,73.7,40.576473,-3.536572,634.0,3,5,113.9,0.703
107.32,1,-0.021,-0.02,0.011,-0.02,0.03,0.007,-1.575,-0.034,-0.342,105.72,73.7,40.576473,-3.536572,634.0,3,5,113.9,0.703
107.42,1,-0.054,-0.037,-0.0,-0.016,-0.014,0.011,-1.574,-0.034,-0.344,106.72,73.3,40.576397,-3.536356,634.3,3,5,114.6,1.406
107.52,1,-0.023,-0.034,-0.016,-0.026,-0.027,-0.002,-1.574,-0.034,-0.346,106.72,73.3,40.576397,-3.536356,634.3,3,5,114.6,1.406
107.63,1,0.008,-0.006,0.001,-0.019,-0.02,-0.011,-1.573,-0.025,-0.347,106.72,73.3,40.576397,-3.536356,634.3,3,5,114.6,1.406
107.72,1,-0.027,0.081,0.011,-0.024,0.031,-0.002,-1.574,-0.02,-0.349,106.72,73.3,40.576397,-3.536356,634.3,3,5,114.6,1.406
107.82,1,-0.04,0.036,0.007,-0.019,0.038,0.01,-1.574,-0.02,-0.349,106.72,73.3,40.576397,-3.536356,634.3,3,5,114.6,1.406
107.92,1,-0.008,-0.021,0.015,-0.036,0.025,0.009,-1.574,-0.021,-0.351,106.72,73.3,40.576397,-3.536356,634.3,3,5,114.6,1.406
108.02,1,0.013,-0.031,-0.019,0.005,-0.02,-0.0,-1.574,-0.022,-0.352,106.72,73.3,40.576397,-3.536356,634.3,3,5,114.6,1.406
108.12,1,-0.023,0.053,0.01,-0.002,0.015,0.005,-1.574,-0.023,-0.353,106.72,73.3,40.576397,-3.536356,634.3,3,5,114.6,1.406
108.23,1,0.021,-0.003,0.016,-0.005,0.018,0.001,-1.575,-0.023,-0.354,106.72,73.3,40.576397,-3.536356,634.3,3,5,114.6,1.406
108.33,1,-0.046,0.016,-0.016,-0.006,-0.003,0.005,-1.575,-0.024,-0.355,106.72,73.3,40.576397,-3.536356,634.3,3,5,114.6,1.406
108.42,1,-0.008,0.004,0.022,-0.023,0.008,-0.001,-1.576,-0.024,-0.356,107.74,74.0,40.576321,-3.536127,634.8,3,5,116.0,2.109
108.53,1,-0.021,0.008,-0.007,-0.016,0.012,0.008,-1.576,-0.023,-0.357,107.74,74.0,40.576321,-3.536127,634.8,3,5,116.0,2.109
108.63,1,-0.041,-0.018,-0.009,-0.032,0.001,-0.002,-1.577,-0.018,-0.358,107.74,74.0,40.576321,-3.536127,634.8,3,5,116.0,2.109
108.72,1,0.042,-0.06,-0.008,-0.008,-0.024,-0.013,-1.579,-0.001,-0.359,107.74,74.0,40.576321,-3.536127,634.8,3,5,116.0,2.109
108.83,1,0.015,-0.014,0.013,0.033,-0.045,0.007,-1.579,-0.0,-0.359,107.74,74.0,40.576321,-3.536127,634.8,3,5,116.0,2.109
108.92,1,-0.066,0.037,-0.002,-0.027,0.015,0.001,-1.579,-0.0,-0.359,107.74,74.0,40.576321,-3.536127,634.8,3,5,116.0,2.109
109.02,1,0.008,-0.022,-0.001,-0.022,-0.004,0.002,-1.58,-0.001,-0.36,107.74,74.0,40.576321,-3.536127,634.8,3,5,116.0,2.109
109.12,1,-0.066,0.021,-0.003,-0.036,0.002,-0.002,-1.579,0.001,-0.361,107.74,74.0,40.576321,-3.536127,634.8,3,5,116.0,2.109
109.23,1,0.029,-0.074,0.002,-0.013,-0.023,-0.0,-1.58,-0.012,-0.362,107.74,74.0,40.576321,-3.536127,634.8,3,5,116.0,2.109
109.33,1,-0.012,0.049,-0.015,-0.008,-0.002,-0.009,-1.58,-0.02,-0.363,107.74,74.0,40.576321,-3.536127,634.8,3,5,116.0,2.109
109.43,1,-0.034,-0.002,-0.028,-0.013,0.007,-0.011,-1.58,-0.02,-0.364,108.78,74.6,40.576241,-3.535909,635.0,3,5,116.4,1.758
109.53,1,-0.031,0.02,-0.004,-0.017,0.008,-0.018,-1.583,-0.022,-0.366,108.78,74.6,40.576241,-3.535909,635.0,3,5,116.4,1.758
109.62,1,0.01,-0.007,0.002,-0.023,0.011,-0.004,-1.588,-0.028,-0.369,108.78,74.6,40.576241,-3.535909,635.0,3,5,116.4,1.758
109.73,1,-0.047,0.037,-0.025,-0.024,0.017,-0.014,-1.588,-0.03,-0.371,108.78,74.6,40.576241,-3.535909,635.0,3,5,116.4,1.758
109.83,1,0.001,0.062,0.015,-0.008,0.035,-0.005,-1.593,-0.038,-0.374,108.78,74.6,40.576241,-3.535909,635.0,3,5,116.4,1.758
109.93,1,-0.056,0.048,-0.037,-0.031,0.056,-0.005,-1.595,-0.044,-0.377,108.78,74.6,40.576241,-3.535909,635.0,3,5,116.4,1.758
110.04,1,0.016,-0.028,-0.008,-0.02,0.013,-0.021,-1.595,-0.044,-0.381,108.78,74.6,40.576241,-3.535909,635.0,3,5,116.4,1.758
110.13,1,-0.031,0.017,-0.017,-0.018,0.004,-0.015,-1.595,-0.044,-0.384,108.78,74.6,40.576241,-3.535909,635.0,3,5,116.4,1.758
110.23,1,-0.039,0.018,-0.013,-0.027,0.011,-0.015,-1.595,-0.044,-0.387,108.78,74.6,40.576241,-3.535909,635.0,3,5,116.4,1.758
110.33,1,-0.018,0.013,-0.01,-0.022,0.015,-0.019,-1.596,-0.043,-0.39,108.78,74.6,40.576241,-3.535909,635.0,3,5,116.4,1.758
110.43,1,-0.02,0.033,-0.021,-0.014,0.025,-0.009,-1.594,-0.053,-0.393,109.72,75.3,40.576157,-3.535687,635.4,3,5,116.4,0.352
110.53,1,-0.116,0.059,-0.043,-0.062,0.031,-0.026,-1.592,-0.049,-0.396,109.72,75.3,40.576157,-3.535687,635.4,3,5,116.4,0.352
110.63,1,0.012,0.004,-0.011,-0.049,0.027,-0.026,-1.593,-0.05,-0.4,109.72,75.3,40.576157,-3.535687,635.4,3,5,116.4,0.352
110.73,1,0.022,-0.004,-0.023,-0.001,0.01,-0.019,-1.593,-0.051,-0.403,109.72,75.3,40.576157,-3.535687,635.4,3,5,116.4,0.352
110.83,1,-0.004,0.054,-0.012,0.006,0.029,-0.022,-1.593,-0.05,-0.406,109.72,75.3,40.576157,-3.535687,635.4,3,5,116.4,0.352
110.93,1,-0.021,0.083,-0.022,-0.012,0.052,-0.009,-1.593,-0.051,-0.409,109.72,75.3,40.576157,-3.535687,635.4,3,5,116.4,0.352
111.03,1,-0.038,0.003,-0.011,-0.04,0.048,-0.025,-1.593,-0.051,-0.412,109.72,75.3,40.576157,-3.535687,635.4,3,5,116.4,0.352
111.13,1,-0.023,-0.024,-0.01,-0.012,0.011,-0.007,-1.594,-0.05,-0.416,109.72,75.3,40.576157,-3.535687,635.4,3,5,116.4,0.352
111.23,1,-0.004,0.037,-0.02,-0.013,0.004,-0.017,-1.594,-0.049,-0.419,109.72,75.3,40.576157,-3.535687,635.4,3,5,116.4,0.352
111.33,1,0.049,0.004,-0.017,0.006,0.015,-0.018,-1.593,-0.049,-0.422,109.72,75.3,40.576157,-3.535687,635.4,3,5,116.4,0.352
111.43,1,-0.019,0.026,-0.032,0.015,0.007,-0.024,-1.592,-0.055,-0.424,110.78,75.7,40.576069,-3.535466,635.8,3,5,117.1,0.703
111.53,1,-0.022,-0.035,-0.007,-0.026,0.012,-0.02,-1.59,-0.064,-0.426,110.78,75.7,40.576069,-3.535466,635.8,3,5,117.1,0.703
111.63,1,0.039,-0.114,-0.023,0.019,-0.063,-0.02,-1.59,-0.061,-0.428,110.78,75.7,40.576069,-3.535466,635.8,3,5,117.1,0.703
111.73,1,-0.114,0.034,-0.044,-0.017,-0.038,-0.022,-1.59,-0.061,-0.43,110.78,75.7,40.576069,-3.535466,635.8,3,5,117.1,0.703
111.84,1,-0.035,-0.068,-0.007,-0.085,-0.016,-0.032,-1.591,-0.061,-0.431,110.78,75.7,40.576069,-3.535466,635.8,3,5,117.1,0.703
111.94,1,0.06,-0.071,0.027,0.007,-0.06,0.006,-1.592,-0.059,-0.433,110.78,75.7,40.576069,-3.535466,635.8,3,5,117.1,0.703
112.03,1,-0.066,0.022,-0.034,-0.023,-0.024,-0.009,-1.591,-0.058,-0.432,110.78,75.7,40.576069,-3.535466,635.8,3,5,117.1,0.703
112.13,1,-0.051,-0.084,-0.035,-0.03,-0.05,-0.023,-1.591,-0.055,-0.432,110.78,75.7,40.576069,-3.535466,635.8,3,5,117.1,0.703
112.23,1,0.014,-0.061,0.002,-0.029,-0.065,-0.02,-1.591,-0.054,-0.431,110.78,75.7,40.576069,-3.535466,635.8,3,5,117.1,0.703
112.33,1,0.033,-0.099,-0.056,0.007,-0.071,-0.028,-1.592,-0.052,-0.431,110.78,75.7,40.576069,-3.535466,635.8,3,5,117.1,0.703
112.44,1,0.001,-0.035,0.008,0.013,-0.054,-0.02,-1.593,-0.052,-0.431,111.77,75.2,40.575977,-3.535249,636.5,3,5,118.8,2.461
112.54,1,-0.091,-0.044,-0.044,-0.02,-0.063,-0.019,-1.593,-0.053,-0.431,111.77,75.2,40.575977,-3.535249,636.5,3,5,118.8,2.461
112.64,1,-0.044,0.0,-0.002,-0.059,-0.009,-0.022,-1.592,-0.054,-0.431,111.77,75.2,40.575977,-3.535249,636.5,3,5,118.8,2.461
112.74,1,0.045,-0.126,-0.006,-0.014,-0.069,-0.009,-1.592,-0.056,-0.432,111.77,75.2,40.575977,-3.535249,636.5,3,5,118.8,2.461
112.85,1,-0.053,-0.01,-0.052,-0.015,-0.051,-0.027,-1.591,-0.056,-0.432,111.77,75.2,40.575977,-3.535249,636.5,3,5,118.8,2.461
112.94,1,0.003,-0.028,-0.026,-0.021,-0.038,-0.035,-1.591,-0.051,-0.432,111.77,75.2,40.575977,-3.535249,636.5,3,5,118.8,2.461
113.04,1,-0.008,-0.034,0.001,-0.005,-0.03,-0.011,-1.59,-0.041,-0.432,111.77,75.2,40.575977,-3.535249,636.5,3,5,118.8,2.461
113.14,1,-0.046,-0.018,-0.069,-0.029,-0.022,-0.038,-1.588,-0.042,-0.433,111.77,75.2,40.575977,-3.535249,636.5,3,5,118.8,2.461
113.24,1,-0.007,-0.029,-0.041,-0.023,-0.029,-0.047,-1.584,-0.043,-0.433,111.77,75.2,40.575977,-3.535249,636.5,3,5,118.8,2.461
113.34,1,0.032,0.046,-0.011,0.023,-0.0,-0.028,-1.581,-0.032,-0.433,111.77,75.2,40.575977,-3.535249,636.5,3,5,118.8,2.461
113.44,1,-0.056,0.003,-0.031,-0.011,0.02,-0.023,-1.581,-0.032,-0.434,112.74,76.0,40.575882,-3.535037,636.7,3,5,119.9,2.812
113.55,1,-0.024,-0.065,-0.029,-0.041,-0.028,-0.033,-1.581,-0.033,-0.435,112.74,76.0,40.575882,-3.535037,636.7,3,5,119.9,2.812
113.66,1,-0.017,-0.029,-0.012,-0.016,-0.038,-0.019,-1.582,-0.034,-0.436,112.74,76.0,40.575882,-3.535037,636.7,3,5,119.9,2.812
113.74,1,0.039,-0.06,-0.004,-0.006,-0.039,-0.014,-1.583,-0.035,-0.437,112.74,76.0,40.575882,-3.535037,636.7,3,5,119.9,2.812
113.84,1,0.005,0.004,0.01,0.023,-0.032,0.004,-1.583,-0.036,-0.439,112.74,76.0,40.575882,-3.535037,636.7,3,5,119.9,2.812
113.94,1,-0.045,-0.072,-0.048,-0.026,-0.03,-0.019,-1.581,-0.038,-0.439,112.74,76.0,40.575882,-3.535037,636.7,3,5,119.9,2.812
114.05,1,0.021,-0.098,-0.028,-0.004,-0.075,-0.028,-1.581,-0.039,-0.441,112.74,76.0,40.575882,-3.535037,636.7,3,5,119.9,2.812
114.14,1,0.006,0.025,-0.016,0.003,-0.037,-0.028,-1.582,-0.039,-0.441,112.74,76.0,40.575882,-3.535037,636.7,3,5,119.9,2.812
114.25,1,0.01,-0.006,-0.021,0.009,-0.007,-0.019,-1.582,-0.039,-0.442,112.74,76.0,40.575882,-3.535037,636.7,3,5,119.9,2.812
114.34,1,0.002,0.006,-0.011,0.014,-0.01,-0.016,-1.583,-0.04,-0.443,112.74,76.0,40.575882,-3.535037,636.7,3,5,119.9,2.812
114.44,1,-0.043,0.017,-0.018,-0.019,0.015,-0.019,-1.583,-0.04,-0.444,113.72,75.6,40.575787,-3.534822,637.2,3,5,119.9,1.055
114.54,1,0.043,-0.048,-0.011,0.007,-0.021,-0.009,-1.582,-0.04,-0.445,113.72,75.6,40.575787,-3.534822,637.2,3,5,119.9,1.055
114.64,1,-0.049,-0.008,-0.063,-0.02,-0.013,-0.035,-1.581,-0.039,-0.446,113.72,75.6,40.575787,-3.534822,637.2,3,5,119.9,1.055
114.84,1,0.022,-0.033,-0.012,0.017,-0.036,-0.013,-1.594,-0.043,-0.447,113.72,75.6,40.575787,-3.534822,637.2,3,5,119.9,1.055
114.94,1,0.005,0.04,0.009,0.003,0.003,-0.004,-1.594,-0.046,-0.448,113.72,75.6,40.575787,-3.534822,637.2,3,5,119.9,1.055
115.04,1,-0.024,-0.048,-0.056,-0.004,-0.001,-0.019,-1.592,-0.046,-0.449,113.72,75.6,40.575787,-3.534822,637.2,3,5,119.9,1.055
115.15,1,-0.034,-0.063,-0.035,-0.038,-0.052,-0.047,-1.593,-0.047,-0.45,113.72,75.6,40.575787,-3.534822,637.2,3,5,119.9,1.055
115.25,1,0.055,-0.084,0.018,0.032,-0.072,-0.005,-1.594,-0.047,-0.45,113.72,75.6,40.575787,-3.534822,637.2,3,5,119.9,1.055
115.35,1,-0.036,-0.007,-0.03,-0.003,-0.039,-0.016,-1.593,-0.047,-0.45,113.72,75.6,40.575787,-3.534822,637.2,3,5,119.9,1.055
115.45,1,0.028,-0.031,-0.023,-0.003,-0.025,-0.022,-1.592,-0.047,-0.451,113.72,75.6,40.575787,-3.534822,637.2,3,5,119.9,1.055
115.55,1,-0.013,-0.058,-0.031,0.004,-0.037,-0.023,-1.592,-0.047,-0.451,114.72,75.3,40.575691,-3.53462,637.7,3,5,120.2,0.352
115.65,1,0.031,-0.065,-0.011,0.004,-0.057,-0.021,-1.592,-0.048,-0.452,114.72,75.3,40.575691,-3.53462,637.7,3,5,120.2,0.352
115.75,1,0.026,-0.007,-0.008,0.026,-0.032,-0.014,-1.589,-0.033,-0.452,114.72,75.3,40.575691,-3.53462,637.7,3,5,120.2,0.352
115.85,1,-0.058,-0.023,-0.055,-0.01,-0.026,-0.029,-1.589,-0.027,-0.452,114.72,75.3,40.575691,-3.53462,637.7,3,5,120.2,0.352
115.96,1,-0.02,-0.026,-0.012,-0.016,-0.031,-0.025,-1.591,-0.028,-0.452,114.72,75.3,40.575691,-3.53462,637.7,3,5,120.2,0.352
116.05,1,-0.011,-0.055,-0.013,-0.032,-0.032,-0.019,-1.591,-0.029,-0.453,114.72,75.3,40.575691,-3.53462,637.7,3,5,120.2,0.352
116.15,1,-0.004,0.005,-0.011,-0.021,-0.026,-0.018,-1.59,-0.03,-0.453,114.72,75.3,40.575691,-3.53462,637.7,3,5,120.2,0.352
116.25,1,-0.024,0.029,-0.03,-0.009,0.001,-0.017,-1.588,-0.042,-0.453,114.72,75.3,40.575691,-3.53462,637.7,3,5,120.2,0.352
116.35,1,0.001,-0.079,-0.012,0.001,-0.029,-0.016,-1.581,-0.053,-0.453,114.72,75.3,40.575691,-3.53462,637.7,3,5,120.2,0.352
116.45,1,-0.033,-0.06,-0.015,-0.019,-0.05,-0.023,-1.58,-0.053,-0.453,114.72,75.3,40.575691,-3.53462,637.7,3,5,120.2,0.352
116.56,1,-0.065,-0.034,-0.031,-0.039,-0.043,-0.021,-1.582,-0.053,-0.453,115.72,75.3,40.575592,-3.534405,638.3,3,5,120.9,1.055
116.66,1,-0.023,-0.028,0.014,-0.04,-0.038,-0.01,-1.586,-0.042,-0.454,115.72,75.3,40.575592,-3.534405,638.3,3,5,120.9,1.055
116.75,1,0.013,-0.02,0.007,-0.016,-0.023,0.005,-1.593,-0.036,-0.454,115.72,75.3,40.575592,-3.534405,638.3,3,5,120.9,1.055
116.85,1,0.068,-0.034,-0.026,0.028,-0.031,-0.011,-1.593,-0.043,-0.455,115.72,75.3,40.575592,-3.534405,638.3,3,5,120.9,1.055
116.96,1,-0.007,-0.019,-0.017,0.015,-0.023,-0.014,-1.584,-0.038,-0.455,115.72,75.3,40.575592,-3.534405,638.3,3,5,120.9,1.055
117.06,1,-0.023,-0.079,-0.043,0.001,-0.048,-0.024,-1.579,-0.036,-0.454,115.72,75.3,40.575592,-3.534405,638.3,3,5,120.9,1.055
117.16,1,-0.113,-0.077,-0.091,-0.045,-0.057,-0.048,-1.581,-0.036,-0.455,115.72,75.3,40.575592,-3.534405,638.3,3,5,120.9,1.055
117.25,1,-0.107,-0.058,-0.02,-0.102,-0.074,-0.072,-1.591,-0.038,-0.455,115.72,75.3,40.575592,-3.534405,638.3,3,5,120.9,1.055
117.35,1,0.053,-0.037,0.152,-0.039,-0.049,0.057,-1.593,-0.04,-0.456,115.72,75.3,40.575592,-3.534405,638.3,3,5,120.9,1.055
117.45,1,-0.024,0.034,-0.071,-0.008,-0.014,0.014,-1.582,-0.043,-0.456,115.72,75.3,40.575592,-3.534405,638.3,3,5,120.9,1.055
117.56,1,0.138,-0.052,-0.038,0.061,-0.02,-0.017,-1.576,-0.043,-0.457,116.72,75.2,40.575489,-3.534192,638.7,3,5,121.3,1.055
117.65,1,-0.022,-0.022,-0.097,0.036,-0.025,-0.063,-1.576,-0.043,-0.456,116.72,75.2,40.575489,-3.534192,638.7,3,5,121.3,1.055
117.76,1,-0.052,-0.032,0.006,-0.013,-0.024,-0.046,-1.584,-0.042,-0.456,116.72,75.2,40.575489,-3.534192,638.7,3,5,121.3,1.055
117.86,1,-0.11,-0.058,0.025,-0.059,-0.043,-0.002,-1.589,-0.043,-0.457,116.72,75.2,40.575489,-3.534192,638.7,3,5,121.3,1.055
117.96,1,-0.042,-0.078,-0.004,-0.068,-0.07,0.009,-1.59,-0.054,-0.458,116.72,75.2,40.575489,-3.534192,638.7,3,5,121.3,1.055
118.06,1,-0.002,0.016,-0.019,-0.032,-0.039,-0.008,-1.588,-0.054,-0.458,116.72,75.2,40.575489,-3.534192,638.7,3,5,121.3,1.055
118.16,1,0.036,-0.054,-0.009,0.006,-0.024,-0.006,-1.585,-0.054,-0.458,116.72,75.2,40.575489,-3.534192,638.7,3,5,121.3,1.055
118.26,1,0.064,-0.069,-0.027,0.034,-0.048,-0.019,-1.585,-0.053,-0.458,116.72,75.2,40.575489,-3.534192,638.7,3,5,121.3,1.055
118.36,1,-0.002,-0.017,-0.023,0.025,-0.045,-0.021,-1.586,-0.053,-0.458,116.72,75.2,40.575489,-3.534192,638.7,3,5,121.3,1.055
118.46,1,-0.019,-0.014,0.0,-0.01,-0.027,-0.017,-1.588,-0.054,-0.458,116.72,75.2,40.575489,-3.534192,638.7,3,5,121.3,1.055
118.56,1,-0.029,-0.026,-0.025,-0.008,-0.016,-0.014,-1.588,-0.054,-0.458,117.72,75.1,40.57539,-3.533978,639.1,3,5,121.3,0.352
118.66,1,-0.033,-0.065,0.006,-0.019,-0.041,-0.008,-1.588,-0.052,-0.458,117.72,75.1,40.57539,-3.533978,639.1,3,5,121.3,0.352
118.77,1,0.127,-0.102,0.004,0.021,-0.064,-0.006,-1.589,-0.047,-0.459,117.72,75.1,40.57539,-3.533978,639.1,3,5,121.3,0.352
118.87,1,-0.038,-0.005,-0.027,0.031,-0.058,-0.008,-1.588,-0.047,-0.459,117.72,75.1,40.57539,-3.533978,639.1,3,5,121.3,0.352
118.96,1,-0.043,-0.005,-0.013,-0.015,-0.018,-0.014,-1.583,-0.046,-0.459,117.72,75.1,40.57539,-3.533978,639.1,3,5,121.3,0.352
119.06,1,-0.058,-0.041,-0.02,-0.033,-0.028,-0.017,-1.578,-0.035,-0.458,117.72,75.1,40.57539,-3.533978,639.1,3,5,121.3,0.352
119.16,1,-0.045,-0.041,0.013,-0.033,-0.042,-0.002,-1.581,-0.025,-0.458,117.72,75.1,40.57539,-3.533978,639.1,3,5,121.3,0.352
119.26,1,0.014,-0.057,0.035,-0.049,-0.036,0.008,-1.582,-0.028,-0.458,117.72,75.1,40.57539,-3.533978,639.1,3,5,121.3,0.352
119.36,1,0.02,0.075,-0.006,0.008,-0.002,0.014,-1.582,-0.027,-0.459,117.72,75.1,40.57539,-3.533978,639.1,3,5,121.3,0.352
119.46,1,0.013,0.004,-0.024,0.021,0.009,-0.011,-1.58,-0.028,-0.459,117.72,75.1,40.57539,-3.533978,639.1,3,5,121.3,0.352
119.57,1,0.013,0.008,-0.01,0.01,0.012,-0.01,-1.58,-0.027,-0.459,118.72,75.0,40.575287,-3.533766,639.9,3,5,122.0,0.703
119.66,1,-0.019,0.0,-0.01,0.007,0.009,-0.006,-1.577,-0.027,-0.459,118.72,75.0,40.575287,-3.533766,639.9,3,5,122.0,0.703
119.76,1,-0.04,-0.024,0.005,-0.023,-0.007,-0.004,-1.577,-0.025,-0.459,118.72,75.0,40.575287,-3.533766,639.9,3,5,122.0,0.703
119.86,1,-0.022,-0.01,0.005,-0.028,-0.011,-0.002,-1.579,-0.025,-0.46,118.72,75.0,40.575287,-3.533766,639.9,3,5,122.0,0.703
119.97,1,0.007,-0.019,-0.002,-0.024,-0.012,-0.003,-1.578,-0.029,-0.46,118.72,75.0,40.575287,-3.533766,639.9,3,5,122.0,0.703
120.07,1,-0.02,0.019,-0.006,-0.002,-0.005,0.004,-1.574,-0.032,-0.461,118.72,75.0,40.575287,-3.533766,639.9,3,5,122.0,0.703
120.16,1,-0.024,-0.027,-0.006,-0.021,-0.002,-0.005,-1.573,-0.032,-0.462,118.72,75.0,40.575287,-3.533766,639.9,3,5,122.0,0.703
120.26,1,0.04,-0.001,-0.005,-0.001,-0.012,-0.008,-1.573,-0.032,-0.462,118.72,75.0,40.575287,-3.533766,639.9,3,5,122.0,0.703
120.36,1,-0.101,0.063,-0.003,-0.046,0.029,-0.005,-1.573,-0.031,-0.463,118.72,75.0,40.575287,-3.533766,639.9,3,5,122.0,0.703
120.52,1,0.046,-0.077,-0.037,-0.004,-0.006,-0.01,-1.574,-0.032,-0.464,118.72,75.0,40.575287,-3.533766,639.9,3,5,122.0,0.703
120.57,1,0.062,-0.059,-0.005,0.052,-0.063,-0.026,-1.575,-0.033,-0.465,119.72,75.1,40.575188,-3.533554,640.2,3,5,122.3,1.055
120.68,1,-0.052,-0.008,0.034,0.013,-0.024,0.017,-1.576,-0.035,-0.465,119.72,75.1,40.575188,-3.533554,640.2,3,5,122.3,1.055
120.78,1,-0.045,-0.008,-0.018,-0.049,-0.017,-0.004,-1.575,-0.037,-0.466,119.72,75.1,40.575188,-3.533554,640.2,3,5,122.3,1.055
120.87,1,-0.03,0.002,-0.014,-0.02,-0.013,-0.003,-1.574,-0.038,-0.467,119.72,75.1,40.575188,-3.533554,640.2,3,5,122.3,1.055
120.97,1,0.01,0.03,-0.007,-0.03,0.006,-0.015,-1.574,-0.038,-0.467,119.72,75.1,40.575188,-3.533554,640.2,3,5,122.3,1.055
121.07,1,0.036,0.021,0.003,0.017,0.02,0.002,-1.574,-0.037,-0.468,119.72,75.1,40.575188,-3.533554,640.2,3,5,122.3,1.055
121.17,1,0.003,-0.006,-0.002,0.01,0.016,-0.004,-1.573,-0.037,-0.468,119.72,75.1,40.575188,-3.533554,640.2,3,5,122.3,1.055
121.27,1,0.003,-0.019,-0.005,0.009,-0.004,-0.002,-1.573,-0.038,-0.468,119.72,75.1,40.575188,-3.533554,640.2,3,5,122.3,1.055
121.37,1,-0.024,0.015,0.002,-0.0,-0.001,-0.004,-1.573,-0.039,-0.468,119.72,75.1,40.575188,-3.533554,640.2,3,5,122.3,1.055
121.47,1,-0.019,-0.011,0.017,-0.018,0.001,0.01,-1.573,-0.039,-0.468,119.72,75.1,40.575188,-3.533554,640.2,3,5,122.3,1.055
121.57,1,0.003,-0.042,0.03,-0.016,-0.021,0.012,-1.57,-0.033,-0.469,120.72,74.9,40.575089,-3.533346,640.7,3,5,122.3,0.352
121.67,1,-0.05,0.022,-0.029,-0.027,-0.012,0.009,-1.57,-0.036,-0.469,120.72,74.9,40.575089,-3.533346,640.7,3,5,122.3,0.352
121.77,1,-0.025,-0.042,-0.011,-0.041,-0.014,-0.018,-1.569,-0.043,-0.469,120.72,74.9,40.575089,-3.533346,640.7,3,5,122.3,0.352
121.88,1,-0.001,-0.018,0.018,-0.005,-0.026,0.004,-1.57,-0.041,-0.469,120.72,74.9,40.575089,-3.533346,640.7,3,5,122.3,0.352
121.97,1,-0.028,-0.01,0.013,-0.024,-0.018,0.008,-1.57,-0.04,-0.467,120.72,74.9,40.575089,-3.533346,640.7,3,5,122.3,0.352
122.07,1,0.017,-0.02,0.014,0.012,-0.01,0.015,-1.569,-0.04,-0.467,120.72,74.9,40.575089,-3.533346,640.7,3,5,122.3,0.352
122.17,1,-0.042,-0.074,0.003,-0.004,-0.042,0.015,-1.568,-0.039,-0.466,120.72,74.9,40.575089,-3.533346,640.7,3,5,122.3,0.352
122.27,1,-0.012,-0.055,-0.008,-0.045,-0.05,-0.009,-1.568,-0.039,-0.465,120.72,74.9,40.575089,-3.533346,640.7,3,5,122.3,0.352
122.38,1,-0.023,-0.006,-0.004,-0.009,-0.036,0.002,-1.568,-0.038,-0.464,120.72,74.9,40.575089,-3.533346,640.7,3,5,122.3,0.352
122.47,1,-0.075,-0.04,-0.002,-0.027,-0.035,-0.005,-1.567,-0.037,-0.464,120.72,74.9,40.575089,-3.533346,640.7,3,5,122.3,0.352
122.57,1,-0.06,-0.065,-0.012,-0.088,-0.036,-0.012,-1.569,-0.037,-0.463,121.74,75.0,40.574986,-3.533154,641.3,3,5,123.4,1.055
122.67,1,0.06,-0.038,0.042,0.004,-0.052,0.019,-1.57,-0.037,-0.463,121.74,75.0,40.574986,-3.533154,641.3,3,5,123.4,1.055
122.77,1,-0.066,0.076,-0.001,-0.023,0.009,0.012,-1.568,-0.037,-0.462,121.74,75.0,40.574986,-3.533154,641.3,3,5,123.4,1.055
122.87,1,-0.008,-0.011,-0.01,-0.014,0.019,-0.001,-1.569,-0.037,-0.462,121.74,75.0,40.574986,-3.533154,641.3,3,5,123.4,1.055
122.98,1,0.019,-0.025,0.017,-0.004,-0.008,0.009,-1.569,-0.037,-0.462,121.74,75.0,40.574986,-3.533154,641.3,3,5,123.4,1.055
123.08,1,0.057,-0.003,0.031,0.008,-0.017,0.011,-1.568,-0.038,-0.463,121.74,75.0,40.574986,-3.533154,641.3,3,5,123.4,1.055
123.19,1,-0.009,-0.063,-0.016,0.033,-0.025,0.015,-1.567,-0.039,-0.463,121.74,75.0,40.574986,-3.533154,641.3,3,5,123.4,1.055
123.28,1,-0.026,0.047,0.028,0.007,-0.01,0.005,-1.568,-0.039,-0.463,121.74,75.0,40.574986,-3.533154,641.3,3,5,123.4,1.055
123.38,1,-0.056,-0.004,0.004,-0.029,0.01,0.016,-1.568,-0.04,-0.462,121.74,75.0,40.574986,-3.533154,641.3,3,5,123.4,1.055
123.48,1,0.028,-0.014,0.018,0.002,-0.025,0.015,-1.568,-0.04,-0.463,121.74,75.0,40.574986,-3.533154,641.3,3,5,123.4,1.055
123.58,1,-0.114,0.042,0.01,-0.049,0.012,0.01,-1.568,-0.04,-0.462,122.72,75.2,40.574883,-3.532954,641.7,3,5,123.4,1.055
123.68,1,-0.032,-0.039,0.017,-0.079,0.021,0.014,-1.567,-0.039,-0.461,122.72,75.2,40.574883,-3.532954,641.7,3,5,123.4,1.055
123.78,1,0.004,-0.021,-0.004,-0.008,-0.033,0.005,-1.567,-0.039,-0.462,122.72,75.2,40.574883,-3.532954,641.7,3,5,123.4,1.055
123.88,1,0.003,-0.004,0.008,-0.031,-0.0,0.004,-1.567,-0.039,-0.461,122.72,75.2,40.574883,-3.532954,641.7,3,5,123.4,1.055
123.98,1,-0.072,0.023,-0.012,-0.022,-0.001,0.001,-1.569,-0.039,-0.461,122.72,75.2,40.574883,-3.532954,641.7,3,5,123.4,1.055
124.09,1,-0.05,0.016,0.033,-0.054,0.017,0.009,-1.572,-0.037,-0.461,122.72,75.2,40.574883,-3.532954,641.7,3,5,123.4,1.055
124.18,1,0.009,-0.007,0.008,-0.025,0.007,0.018,-1.58,-0.029,-0.461,122.72,75.2,40.574883,-3.532954,641.7,3,5,123.4,1.055
124.28,1,0.019,-0.019,0.0,0.001,-0.008,0.003,-1.573,-0.035,-0.461,122.72,75.2,40.574883,-3.532954,641.7,3,5,123.4,1.055
124.38,1,0.019,0.001,-0.006,0.019,-0.014,0.002,-1.567,-0.041,-0.46,122.72,75.2,40.574883,-3.532954,641.7,3,5,123.4,1.055
124.48,1,-0.01,-0.08,-0.009,0.011,-0.039,-0.005,-1.564,-0.043,-0.46,122.72,75.2,40.574883,-3.532954,641.7,3,5,123.4,1.055
124.58,1,0.0,-0.044,0.016,-0.014,-0.038,-0.001,-1.565,-0.044,-0.459,123.76,75.0,40.57478,-3.532754,642.0,3,5,123.8,0.352
124.68,1,0.026,-0.048,0.037,0.005,-0.042,0.027,-1.566,-0.046,-0.459,123.76,75.0,40.57478,-3.532754,642.0,3,5,123.8,0.352
124.78,1,0.057,-0.03,0.002,0.037,-0.044,0.016,-1.565,-0.048,-0.459,123.76,75.0,40.57478,-3.532754,642.0,3,5,123.8,0.352
124.89,1,-0.012,0.004,0.023,0.028,-0.025,0.013,-1.564,-0.05,-0.458,123.76,75.0,40.57478,-3.532754,642.0,3,5,123.8,0.352
124.98,1,0.074,-0.082,0.016,0.029,-0.039,0.018,-1.563,-0.05,-0.457,123.76,75.0,40.57478,-3.532754,642.0,3,5,123.8,0.352
125.08,1,-0.063,0.01,0.007,0.015,-0.027,0.013,-1.562,-0.05,-0.456,123.76,75.0,40.57478,-3.532754,642.0,3,5,123.8,0.352
125.18,1,0.038,-0.098,0.013,-0.003,-0.045,0.014,-1.562,-0.049,-0.454,123.76,75.0,40.57478,-3.532754,642.0,3,5,123.8,0.352
125.28,1,-0.033,-0.044,0.013,0.008,-0.068,0.012,-1.563,-0.046,-0.451,123.76,75.0,40.57478,-3.532754,642.0,3,5,123.8,0.352
125.38,1,-0.026,-0.108,0.01,-0.037,-0.063,0.009,-1.563,-0.045,-0.448,123.76,75.0,40.57478,-3.532754,642.0,3,5,123.8,0.352
125.5,1,-0.011,-0.046,0.025,-0.017,-0.075,0.013,-1.563,-0.043,-0.446,123.76,75.0,40.57478,-3.532754,642.0,3,5,123.8,0.352
125.58,1,-0.018,-0.058,0.019,-0.015,-0.055,0.025,-1.564,-0.031,-0.443,124.76,75.1,40.57468,-3.532548,642.7,3,5,124.1,0.703
125.68,1,0.001,-0.095,-0.014,0.005,-0.084,0.011,-1.565,-0.025,-0.441,124.76,75.1,40.57468,-3.532548,642.7,3,5,124.1,0.703
125.78,1,-0.042,-0.069,-0.002,-0.025,-0.073,-0.006,-1.566,-0.026,-0.438,124.76,75.1,40.57468,-3.532548,642.7,3,5,124.1,0.703
125.89,1,-0.009,-0.048,0.017,-0.02,-0.063,0.0,-1.568,-0.026,-0.435,124.76,75.1,40.57468,-3.532548,642.7,3,5,124.1,0.703
125.99,1,0.017,-0.054,0.028,-0.016,-0.047,0.017,-1.568,-0.027,-0.432,124.76,75.1,40.57468,-3.532548,642.7,3,5,124.1,0.703
