Timestamp_Accel,SystemActivated,accelerometerXAxis,accelerometerYAxis,accelerometerZAxis,AccelX_KF,AccelY_KF,AccelZ_KF,gyroscopeXAxis,gyroscopeYAxis,gyroscopeZAxis,Timestamp_GPS,Speed,latitude,longitude,Altitude,VerticalAccuracy,HorizontalAccuracy,Course,Difcourse
7.96,0,0.06,-0.013,0.001,-0.003,-0.012,-0.017,-1.577,-0.001,0.062,7.98,0.0,40.505589,-3.361175,606.1,33,201,-1.0,-1.0
8.06,0,0.021,0.01,-0.037,0.036,-0.002,-0.024,-1.572,0.002,0.063,7.98,0.0,40.505589,-3.361175,606.1,33,201,-1.0,-1.0
8.17,0,-0.096,-0.008,-0.036,-0.03,0.002,-0.023,-1.573,0.001,0.063,7.98,0.0,40.505589,-3.361175,606.1,33,201,-1.0,-1.0
8.28,0,0.028,-0.049,-0.026,-0.025,-0.023,-0.039,-1.569,0.005,0.064,7.98,0.0,40.505589,-3.361175,606.1,33,201,-1.0,-1.0
8.37,0,0.032,-0.024,-0.017,0.018,-0.035,-0.025,-1.569,0.001,0.065,7.98,0.0,40.505589,-3.361175,606.1,33,201,-1.0,-1.0
8.48,0,-0.04,-0.009,-0.031,-0.014,-0.019,-0.022,-1.568,-0.003,0.065,7.98,0.0,40.505589,-3.361175,606.1,33,201,-1.0,-1.0
8.58,0,0.075,0.015,-0.017,0.03,-0.005,-0.022,-1.568,-0.004,0.066,7.98,0.0,40.505589,-3.361175,606.1,33,201,-1.0,-1.0
8.67,0,-0.051,0.004,-0.02,0.006,0.006,-0.021,-1.568,-0.002,0.067,7.98,0.0,40.505589,-3.361175,606.1,33,201,-1.0,-1.0
8.77,0,-0.051,-0.056,-0.052,-0.033,-0.022,-0.033,-1.567,0.0,0.068,7.98,0.0,40.505589,-3.361175,606.1,33,201,-1.0,-1.0
8.87,0,-0.074,-0.032,-0.042,-0.056,-0.036,-0.042,-1.566,-0.0,0.068,7.98,0.0,40.505589,-3.361175,606.1,33,201,-1.0,-1.0
8.97,0,0.005,-0.023,0.006,-0.026,-0.027,-0.019,-1.566,-0.006,0.069,8.96,0.0,40.505589,-3.361175,606.1,33,201,-1.0,-1.0
9.07,0,-0.078,-0.015,-0.048,-0.045,-0.024,-0.025,-1.563,-0.012,0.07,8.96,0.0,40.505589,-3.361175,606.1,33,201,-1.0,-1.0
9.17,0,0.0,-0.021,-0.001,-0.04,-0.02,-0.026,-1.557,-0.015,0.071,8.96,0.0,40.505589,-3.361175,606.1,33,201,-1.0,-1.0
9.27,0,0.067,-0.002,0.033,0.017,-0.011,0.006,-1.555,-0.014,0.071,8.96,0.0,40.505589,-3.361175,606.1,33,201,-1.0,-1.0
9.37,0,-0.021,-0.004,-0.057,0.002,-0.007,-0.022,-1.545,-0.011,0.072,8.96,0.0,40.505589,-3.361175,606.1,33,201,-1.0,-1.0
9.47,0,0.046,-0.047,0.035,0.013,-0.02,0.0,-1.543,-0.005,0.073,8.96,0.0,40.505589,-3.361175,606.1,33,201,-1.0,-1.0
9.57,0,0.015,-0.016,0.001,0.036,-0.028,0.014,-1.54,-0.003,0.073,8.96,0.0,40.505589,-3.361175,606.1,33,201,-1.0,-1.0
9.67,0,-0.032,-0.019,-0.032,0.001,-0.02,-0.01,-1.542,-0.001,0.072,8.96,0.0,40.505589,-3.361175,606.1,33,201,-1.0,-1.0
9.78,0,-0.087,0.039,-0.023,-0.056,0.007,-0.031,-1.545,-0.004,0.072,8.96,0.0,40.505589,-3.361175,606.1,33,201,-1.0,-1.0
9.87,0,0.014,0.0,0.02,-0.037,0.011,0.005,-1.549,-0.004,0.072,8.96,0.0,40.505589,-3.361175,606.1,33,201,-1.0,-1.0
9.97,0,0.019,0.017,0.007,0.01,0.008,0.004,-1.547,-0.006,0.072,9.96,0.0,40.505589,-3.361175,606.1,33,201,-1.0,-1.0
10.07,0,-0.02,-0.036,-0.066,0.004,-0.007,-0.02,-1.544,-0.01,0.072,9.96,0.0,40.505589,-3.361175,606.1,33,201,-1.0,-1.0
10.18,1,-0.05,-0.013,-0.012,-0.021,-0.019,-0.031,-1.547,-0.01,0.072,9.96,0.0,40.505589,-3.361175,606.1,33,201,-1.0,-1.0
10.27,1,-0.076,0.022,-0.014,-0.05,-0.001,-0.016,-1.548,-0.011,0.073,9.96,0.0,40.505589,-3.361175,606.1,33,201,-1.0,-1.0
10.37,1,-0.054,-0.031,-0.028,-0.066,-0.009,-0.02,-1.546,-0.008,0.074,9.96,0.0,40.505589,-3.361175,606.1,33,201,-1.0,-1.0
10.47,1,-0.003,-0.001,-0.022,-0.037,-0.01,-0.029,-1.546,-0.004,0.074,9.96,0.0,40.505589,-3.361175,606.1,33,201,-1.0,-1.0
10.58,1,-0.065,-0.005,-0.015,-0.044,-0.008,-0.018,-1.545,-0.004,0.075,9.96,0.0,40.505589,-3.361175,606.1,33,201,-1.0,-1.0
10.67,1,0.019,-0.028,-0.03,-0.014,-0.008,-0.021,-1.543,-0.001,0.075,9.96,0.0,40.505589,-3.361175,606.1,33,201,-1.0,-1.0
10.78,1,0.009,-0.013,-0.004,-0.002,-0.018,-0.021,-1.545,0.002,0.075,9.96,0.0,40.505589,-3.361175,606.1,33,201,-1.0,-1.0
10.87,1,-0.0,-0.008,0.0,0.01,-0.009,-0.001,-1.542,0.006,0.076,9.96,0.0,40.505589,-3.361175,606.1,33,201,-1.0,-1.0
10.98,1,-0.012,-0.028,-0.023,-0.006,-0.021,-0.017,-1.537,0.007,0.077,10.97,97.8,40.505936,-3.358076,598.6,24,10,276.3,83.672
11.07,1,-0.036,0.004,0.017,-0.022,-0.02,-0.003,-1.538,0.008,0.078,10.97,97.8,40.505936,-3.358076,598.6,24,10,276.3,83.672
11.18,1,-0.017,-0.012,-0.03,-0.023,-0.001,-0.006,-1.538,0.006,0.08,10.97,97.8,40.505936,-3.358076,598.6,24,10,276.3,83.672
11.28,1,0.078,-0.081,-0.012,0.017,-0.038,-0.021,-1.54,0.005,0.081,10.97,97.8,40.505936,-3.358076,598.6,24,10,276.3,83.672
11.38,1,-0.013,-0.017,-0.009,0.02,-0.043,-0.006,-1.539,0.002,0.082,10.97,97.8,40.505936,-3.358076,598.6,24,10,276.3,83.672
11.47,1,-0.088,-0.007,-0.031,-0.037,-0.018,-0.019,-1.536,0.002,0.083,10.97,97.8,40.505936,-3.358076,598.6,24,10,276.3,83.672
11.58,1,-0.012,-0.028,0.009,-0.037,-0.022,-0.011,-1.536,0.003,0.085,10.97,97.8,40.505936,-3.358076,598.6,24,10,276.3,83.672
11.68,1,0.027,-0.014,0.006,0.003,-0.019,-0.0,-1.535,0.005,0.086,10.97,97.8,40.505936,-3.358076,598.6,24,10,276.3,83.672
11.78,1,-0.014,-0.01,0.019,0.002,-0.014,0.008,-1.535,0.005,0.087,10.97,97.8,40.505936,-3.358076,598.6,24,10,276.3,83.672
11.88,1,-0.044,-0.044,0.025,-0.028,-0.021,0.023,-1.536,0.004,0.089,10.97,97.8,40.505936,-3.358076,598.6,24,10,276.3,83.672
11.97,1,0.026,-0.021,0.009,-0.012,-0.03,0.009,-1.538,0.001,0.091,12.15,95.7,40.505966,-3.358672,602.1,4,5,276.0,84.375
12.07,1,-0.01,-0.013,0.039,0.01,-0.026,0.028,-1.54,-0.001,0.093,12.15,95.7,40.505966,-3.358672,602.1,4,5,276.0,84.375
12.18,1,-0.1,-0.017,0.024,-0.049,-0.013,0.023,-1.541,-0.001,0.095,12.15,95.7,40.505966,-3.358672,602.1,4,5,276.0,84.375
12.28,1,0.007,-0.046,0.05,-0.039,-0.033,0.034,-1.545,0.006,0.097,12.15,95.7,40.505966,-3.358672,602.1,4,5,276.0,84.375
12.38,1,0.02,-0.026,0.027,-0.007,-0.027,0.037,-1.549,0.005,0.099,12.15,95.7,40.505966,-3.358672,602.1,4,5,276.0,84.375
12.49,1,-0.045,-0.034,0.05,-0.02,-0.036,0.043,-1.548,0.005,0.101,12.15,95.7,40.505966,-3.358672,602.1,4,5,276.0,84.375
12.58,1,-0.054,-0.026,-0.001,-0.029,-0.023,0.026,-1.548,0.003,0.103,12.15,95.7,40.505966,-3.358672,602.1,4,5,276.0,84.375
12.68,1,0.008,-0.022,0.068,-0.048,-0.032,0.029,-1.55,0.002,0.105,12.15,95.7,40.505966,-3.358672,602.1,4,5,276.0,84.375
12.78,1,-0.0,-0.003,0.02,0.014,-0.018,0.04,-1.55,0.001,0.106,12.15,95.7,40.505966,-3.358672,602.1,4,5,276.0,84.375
12.88,1,-0.043,-0.015,0.059,-0.004,-0.006,0.044,-1.55,0.002,0.107,12.15,95.7,40.505966,-3.358672,602.1,4,5,276.0,84.375
12.98,1,-0.023,0.011,-0.009,-0.033,-0.003,0.03,-1.552,0.001,0.108,12.97,95.7,40.505966,-3.358672,602.1,4,5,276.0,0.352
13.08,1,0.005,-0.015,0.051,-0.011,-0.005,0.024,-1.553,-0.001,0.11,12.97,95.7,40.505966,-3.358672,602.1,4,5,276.0,0.352
13.18,1,-0.011,-0.031,0.049,-0.01,-0.023,0.044,-1.556,-0.002,0.112,12.97,95.7,40.505966,-3.358672,602.1,4,5,276.0,0.352
13.28,1,-0.017,-0.026,0.047,0.003,-0.027,0.049,-1.56,0.005,0.114,12.97,95.7,40.505966,-3.358672,602.1,4,5,276.0,0.352
13.38,1,-0.037,-0.07,0.027,-0.028,-0.041,0.034,-1.563,0.009,0.117,12.97,95.7,40.505966,-3.358672,602.1,4,5,276.0,0.352
13.48,1,-0.055,-0.053,0.015,-0.059,-0.05,0.022,-1.563,0.011,0.12,12.97,95.7,40.505966,-3.358672,602.1,4,5,276.0,0.352
13.58,1,0.07,-0.066,0.05,0.004,-0.06,0.035,-1.565,0.014,0.123,12.97,95.7,40.505966,-3.358672,602.1,4,5,276.0,0.352
13.68,1,-0.023,-0.024,-0.012,0.007,-0.047,0.021,-1.566,0.017,0.126,12.97,95.7,40.505966,-3.358672,602.1,4,5,276.0,0.352
13.78,1,0.017,-0.007,0.003,-0.0,-0.024,0.004,-1.565,0.021,0.129,12.97,95.7,40.505966,-3.358672,602.1,4,5,276.0,0.352
13.89,1,-0.131,-0.027,-0.013,-0.036,-0.019,-0.0,-1.563,0.025,0.131,12.97,95.7,40.505966,-3.358672,602.1,4,5,276.0,0.352
13.98,1,-0.068,-0.059,-0.014,-0.107,-0.035,-0.019,-1.568,0.026,0.135,13.97,95.8,40.505962,-3.358979,603.4,4,5,275.6,0.352
14.09,1,0.014,-0.024,0.031,-0.007,-0.041,0.012,-1.568,0.024,0.137,13.97,95.8,40.505962,-3.358979,603.4,4,5,275.6,0.352
14.18,1,-0.147,-0.03,0.003,-0.07,-0.028,0.012,-1.567,0.022,0.14,13.97,95.8,40.505962,-3.358979,603.4,4,5,275.6,0.352
14.28,1,0.002,-0.036,-0.008,-0.055,-0.034,0.002,-1.567,0.026,0.144,13.97,95.8,40.505962,-3.358979,603.4,4,5,275.6,0.352
14.38,1,-0.022,-0.016,0.004,-0.021,-0.024,0.004,-1.57,0.026,0.146,13.97,95.8,40.505962,-3.358979,603.4,4,5,275.6,0.352
14.48,1,0.018,-0.017,0.046,-0.01,-0.019,0.019,-1.573,0.032,0.15,13.97,95.8,40.505962,-3.358979,603.4,4,5,275.6,0.352
14.58,1,-0.04,-0.05,-0.005,-0.015,-0.032,0.019,-1.58,0.038,0.154,13.97,95.8,40.505962,-3.358979,603.4,4,5,275.6,0.352
14.68,1,-0.087,-0.034,0.001,-0.054,-0.04,0.0,-1.584,0.04,0.157,13.97,95.8,40.505962,-3.358979,603.4,4,5,275.6,0.352
14.78,1,0.045,-0.039,0.031,-0.031,-0.038,0.014,-1.582,0.04,0.16,13.97,95.8,40.505962,-3.358979,603.4,4,5,275.6,0.352
14.88,1,-0.052,-0.009,-0.032,-0.018,-0.022,-0.002,-1.582,0.04,0.163,13.97,95.8,40.505962,-3.358979,603.4,4,5,275.6,0.352
14.98,1,0.038,-0.037,0.021,-0.02,-0.029,-0.003,-1.583,0.044,0.167,14.95,96.4,40.506039,-3.359275,603.7,6,5,273.9,2.109
15.08,1,0.023,-0.049,-0.025,0.037,-0.041,-0.0,-1.581,0.05,0.172,14.95,96.4,40.506039,-3.359275,603.7,6,5,273.9,2.109
15.18,1,-0.006,-0.057,0.022,0.004,-0.044,-0.001,-1.58,0.058,0.177,14.95,96.4,40.506039,-3.359275,603.7,6,5,273.9,2.109
15.29,1,-0.004,-0.03,0.004,0.019,-0.042,0.011,-1.58,0.062,0.181,14.95,96.4,40.506039,-3.359275,603.7,6,5,273.9,2.109
15.37,1,-0.027,-0.039,0.011,-0.027,-0.038,0.006,-1.583,0.07,0.184,14.95,96.4,40.506039,-3.359275,603.7,6,5,273.9,2.109
15.48,1,-0.054,0.003,0.018,-0.034,-0.027,0.013,-1.584,0.071,0.188,14.95,96.4,40.506039,-3.359275,603.7,6,5,273.9,2.109
15.58,1,-0.026,0.003,-0.007,-0.015,-0.007,0.008,-1.583,0.069,0.191,14.95,96.4,40.506039,-3.359275,603.7,6,5,273.9,2.109
15.68,1,-0.141,-0.032,0.014,-0.088,-0.01,-0.001,-1.582,0.069,0.194,14.95,96.4,40.506039,-3.359275,603.7,6,5,273.9,2.109
15.78,1,-0.013,-0.011,0.054,-0.069,-0.025,0.039,-1.593,0.066,0.198,14.95,96.4,40.506039,-3.359275,603.7,6,5,273.9,2.109
15.88,1,-0.059,0.059,-0.033,-0.049,0.02,-0.001,-1.594,0.06,0.2,14.95,96.4,40.506039,-3.359275,603.7,6,5,273.9,2.109
15.98,1,0.047,-0.039,0.004,-0.012,0.003,0.005,-1.595,0.06,0.203,15.96,95.8,40.506023,-3.359612,604.1,4,5,272.8,2.812
16.08,1,-0.08,0.033,-0.022,-0.025,0.01,-0.012,-1.595,0.059,0.206,15.96,95.8,40.506023,-3.359612,604.1,4,5,272.8,2.812
16.18,1,0.039,0.013,0.024,-0.011,0.016,-0.0,-1.597,0.061,0.208,15.96,95.8,40.506023,-3.359612,604.1,4,5,272.8,2.812
16.29,1,-0.014,0.014,0.001,-0.011,0.012,0.007,-1.599,0.059,0.211,15.96,95.8,40.506023,-3.359612,604.1,4,5,272.8,2.812
16.39,1,0.029,0.009,-0.009,0.022,0.012,0.002,-1.601,0.057,0.213,15.96,95.8,40.506023,-3.359612,604.1,4,5,272.8,2.812
16.49,1,-0.093,0.032,-0.027,-0.036,0.013,-0.017,-1.602,0.054,0.214,15.96,95.8,40.506023,-3.359612,604.1,4,5,272.8,2.812
16.59,1,-0.066,0.046,-0.04,-0.046,0.033,-0.025,-1.602,0.043,0.215,15.96,95.8,40.506023,-3.359612,604.1,4,5,272.8,2.812
16.68,1,-0.101,0.023,0.013,-0.088,0.036,-0.013,-1.609,0.036,0.216,15.96,95.8,40.506023,-3.359612,604.1,4,5,272.8,2.812
16.79,1,-0.035,0.039,0.004,-0.057,0.028,0.001,-1.61,0.036,0.218,15.96,95.8,40.506023,-3.359612,604.1,4,5,272.8,2.812
16.88,1,0.008,0.038,-0.024,-0.041,0.045,-0.008,-1.609,0.036,0.22,15.96,95.8,40.506023,-3.359612,604.1,4,5,272.8,2.812
17.08,1,-0.035,0.038,-0.034,-0.016,0.02,-0.015,-1.602,0.038,0.223,16.96,99.5,40.506023,-3.359937,604.1,4,5,270.4,3.516
17.19,1,0.094,-0.03,0.022,0.032,0.0,-0.004,-1.6,0.036,0.224,16.96,99.5,40.506023,-3.359937,604.1,4,5,270.4,3.516
17.28,1,-0.095,0.04,-0.04,-0.007,0.021,-0.012,-1.598,0.038,0.226,16.96,99.5,40.506023,-3.359937,604.1,4,5,270.4,3.516
17.38,1,-0.042,-0.005,0.01,-0.052,0.012,-0.011,-1.602,0.042,0.228,16.96,99.5,40.506023,-3.359937,604.1,4,5,270.4,3.516
17.48,1,0.041,-0.016,-0.057,-0.009,-0.011,-0.025,-1.601,0.042,0.231,16.96,99.5,40.506023,-3.359937,604.1,4,5,270.4,3.516
17.58,1,0.044,-0.026,-0.029,0.039,-0.016,-0.03,-1.602,0.04,0.233,16.96,99.5,40.506023,-3.359937,604.1,4,5,270.4,3.516
17.68,1,-0.14,0.014,-0.05,-0.037,-0.01,-0.045,-1.603,0.038,0.236,16.96,99.5,40.506023,-3.359937,604.1,4,5,270.4,3.516
17.78,1,-0.137,-0.014,0.017,-0.098,-0.001,-0.016,-1.609,0.038,0.238,16.96,99.5,40.506023,-3.359937,604.1,4,5,270.4,3.516
17.88,1,-0.027,-0.041,0.009,-0.09,-0.02,0.002,-1.612,0.04,0.241,16.96,99.5,40.506023,-3.359937,604.1,4,5,270.4,3.516
17.98,1,-0.024,-0.011,0.014,-0.047,-0.019,0.006,-1.613,0.041,0.244,16.96,99.5,40.506023,-3.359937,604.1,4,5,270.4,3.516
18.08,1,0.045,0.024,-0.087,0.002,-0.004,-0.028,-1.609,0.041,0.247,17.94,100.8,40.506008,-3.360272,603.7,4,5,268.6,4.219
18.2,1,-0.028,-0.009,-0.03,-0.004,0.001,-0.044,-1.603,0.043,0.249,17.94,100.8,40.506008,-3.360272,603.7,4,5,268.6,4.219
18.28,1,0.056,-0.003,0.004,0.012,-0.005,-0.022,-1.606,0.043,0.251,17.94,100.8,40.506008,-3.360272,603.7,4,5,268.6,4.219
18.39,1,-0.025,0.013,0.001,0.02,0.01,-0.002,-1.613,0.037,0.253,17.94,100.8,40.506008,-3.360272,603.7,4,5,268.6,4.219
18.5,1,-0.035,-0.011,-0.015,-0.024,-0.004,-0.011,-1.615,0.037,0.256,17.94,100.8,40.506008,-3.360272,603.7,4,5,268.6,4.219
18.58,1,-0.059,-0.032,-0.037,-0.037,-0.017,-0.017,-1.613,0.037,0.258,17.94,100.8,40.506008,-3.360272,603.7,4,5,268.6,4.219
18.68,1,0.042,0.011,-0.022,-0.023,-0.011,-0.029,-1.612,0.04,0.26,17.94,100.8,40.506008,-3.360272,603.7,4,5,268.6,4.219
18.79,1,-0.06,0.006,-0.018,-0.004,0.006,-0.018,-1.611,0.04,0.262,17.94,100.8,40.506008,-3.360272,603.7,4,5,268.6,4.219
18.89,1,0.046,0.004,0.014,-0.017,0.002,-0.011,-1.611,0.037,0.264,17.94,100.8,40.506008,-3.360272,603.7,4,5,268.6,4.219
18.98,1,0.042,-0.004,-0.022,0.037,0.005,-0.003,-1.608,0.035,0.266,17.94,100.8,40.506008,-3.360272,603.7,4,5,268.6,4.219
19.09,1,-0.029,-0.039,-0.015,0.007,-0.017,-0.024,-1.605,0.035,0.268,18.97,101.8,40.506001,-3.36061,604.4,4,5,267.5,2.812
19.19,1,0.041,0.051,-0.017,0.005,-0.002,-0.007,-1.603,0.031,0.269,18.97,101.8,40.506001,-3.36061,604.4,4,5,267.5,2.812
19.29,1,-0.038,0.028,-0.031,0.008,0.03,-0.032,-1.599,0.03,0.271,18.97,101.8,40.506001,-3.36061,604.4,4,5,267.5,2.812
19.39,1,-0.034,-0.013,0.043,-0.036,0.014,-0.002,-1.602,0.032,0.274,18.97,101.8,40.506001,-3.36061,604.4,4,5,267.5,2.812
19.49,1,-0.005,0.017,-0.032,-0.019,0.009,0.002,-1.601,0.034,0.277,18.97,101.8,40.506001,-3.36061,604.4,4,5,267.5,2.812
19.59,1,0.04,-0.022,0.025,0.018,-0.004,0.01,-1.601,0.038,0.28,18.97,101.8,40.506001,-3.36061,604.4,4,5,267.5,2.812
19.69,1,0.04,-0.026,0.014,0.031,-0.017,0.007,-1.6,0.041,0.283,18.97,101.8,40.506001,-3.36061,604.4,4,5,267.5,2.812
19.79,1,-0.067,-0.004,-0.052,0.001,-0.013,-0.012,-1.601,0.042,0.285,18.97,101.8,40.506001,-3.36061,604.4,4,5,267.5,2.812
19.89,1,0.113,-0.02,0.031,0.017,-0.019,-0.005,-1.604,0.043,0.288,18.97,101.8,40.506001,-3.36061,604.4,4,5,267.5,2.812
19.99,1,-0.009,0.005,0.006,0.033,-0.001,0.009,-1.607,0.04,0.291,18.97,101.8,40.506001,-3.36061,604.4,4,5,267.5,2.812
20.09,1,-0.005,-0.027,0.009,0.009,-0.016,0.008,-1.612,0.045,0.295,19.96,102.3,40.505989,-3.360943,607.1,4,5,266.1,2.461
20.19,1,-0.041,-0.006,-0.047,-0.02,-0.011,-0.016,-1.61,0.048,0.299,19.96,102.3,40.505989,-3.360943,607.1,4,5,266.1,2.461
20.29,1,0.003,-0.018,0.003,-0.01,-0.018,-0.008,-1.608,0.051,0.301,19.96,102.3,40.505989,-3.360943,607.1,4,5,266.1,2.461
20.39,1,-0.014,-0.016,-0.06,-0.006,-0.024,-0.03,-1.606,0.053,0.304,19.96,102.3,40.505989,-3.360943,607.1,4,5,266.1,2.461
20.49,1,-0.054,0.05,-0.015,-0.022,0.015,-0.036,-1.605,0.053,0.306,19.96,102.3,40.505989,-3.360943,607.1,4,5,266.1,2.461
20.59,1,-0.037,0.045,0.012,-0.059,0.038,-0.008,-1.609,0.053,0.308,19.96,102.3,40.505989,-3.360943,607.1,4,5,266.1,2.461
20.69,1,-0.121,0.008,-0.043,-0.058,0.027,-0.018,-1.614,0.055,0.311,19.96,102.3,40.505989,-3.360943,607.1,4,5,266.1,2.461
20.79,1,0.034,0.014,0.017,-0.045,0.018,-0.007,-1.61,0.054,0.313,19.96,102.3,40.505989,-3.360943,607.1,4,5,266.1,2.461
20.89,1,0.051,0.046,0.006,0.013,0.027,-0.002,-1.603,0.053,0.315,19.96,102.3,40.505989,-3.360943,607.1,4,5,266.1,2.461
20.99,1,-0.07,0.044,-0.047,-0.009,0.039,-0.012,-1.603,0.052,0.317,19.96,102.3,40.505989,-3.360943,607.1,4,5,266.1,2.461
21.09,1,0.049,0.015,-0.003,0.003,0.027,-0.018,-1.604,0.055,0.32,20.94,103.1,40.505966,-3.36128,606.0,4,5,264.4,3.164
21.19,1,-0.099,0.011,-0.022,-0.029,0.022,-0.017,-1.604,0.053,0.321,20.94,103.1,40.505966,-3.36128,606.0,4,5,264.4,3.164
21.3,1,-0.111,0.039,-0.016,-0.08,0.022,-0.021,-1.605,0.05,0.323,20.94,103.1,40.505966,-3.36128,606.0,4,5,264.4,3.164
21.39,1,-0.061,0.055,-0.034,-0.075,0.047,-0.02,-1.605,0.043,0.324,20.94,103.1,40.505966,-3.36128,606.0,4,5,264.4,3.164
21.5,1,0.08,0.036,0.021,-0.004,0.041,-0.007,-1.603,0.04,0.326,20.94,103.1,40.505966,-3.36128,606.0,4,5,264.4,3.164
21.59,1,0.055,0.021,-0.0,0.029,0.035,0.004,-1.602,0.037,0.328,20.94,103.1,40.505966,-3.36128,606.0,4,5,264.4,3.164
21.69,1,-0.1,0.003,-0.026,-0.013,0.018,-0.016,-1.602,0.04,0.331,20.94,103.1,40.505966,-3.36128,606.0,4,5,264.4,3.164
21.79,1,-0.016,0.017,0.034,-0.044,0.009,0.003,-1.604,0.04,0.333,20.94,103.1,40.505966,-3.36128,606.0,4,5,264.4,3.164
21.89,1,0.042,-0.001,-0.023,0.003,0.005,0.001,-1.606,0.037,0.335,20.94,103.1,40.505966,-3.36128,606.0,4,5,264.4,3.164
21.99,1,-0.003,0.027,-0.045,0.029,0.017,-0.018,-1.605,0.035,0.336,20.94,103.1,40.505966,-3.36128,606.0,4,5,264.4,3.164
22.1,1,-0.029,0.033,-0.032,-0.02,0.025,-0.035,-1.606,0.031,0.338,22.0,103.7,40.505932,-3.361622,606.1,4,5,262.6,3.516
22.2,1,-0.001,0.037,-0.026,-0.021,0.029,-0.032,-1.61,0.029,0.339,22.0,103.7,40.505932,-3.361622,606.1,4,5,262.6,3.516
22.3,1,0.03,0.056,-0.054,0.025,0.046,-0.03,-1.609,0.029,0.34,22.0,103.7,40.505932,-3.361622,606.1,4,5,262.6,3.516
22.39,1,-0.008,0.049,-0.035,-0.001,0.053,-0.044,-1.607,0.03,0.341,22.0,103.7,40.505932,-3.361622,606.1,4,5,262.6,3.516
22.5,1,-0.043,0.016,0.014,-0.021,0.035,-0.025,-1.611,0.025,0.342,22.0,103.7,40.505932,-3.361622,606.1,4,5,262.6,3.516
22.6,1,-0.039,-0.019,-0.008,-0.018,0.0,0.01,-1.61,0.023,0.343,22.0,103.7,40.505932,-3.361622,606.1,4,5,262.6,3.516
22.7,1,-0.043,0.008,-0.03,-0.038,0.005,-0.023,-1.609,0.022,0.344,22.0,103.7,40.505932,-3.361622,606.1,4,5,262.6,3.516
22.8,1,-0.018,0.021,-0.008,-0.042,0.016,-0.025,-1.607,0.019,0.345,22.0,103.7,40.505932,-3.361622,606.1,4,5,262.6,3.516
22.9,1,-0.053,0.032,-0.006,-0.03,0.018,-0.003,-1.61,0.017,0.347,22.0,103.7,40.505932,-3.361622,606.1,4,5,262.6,3.516
23.0,1,0.047,0.06,0.003,-0.023,0.035,-0.003,-1.608,0.018,0.348,22.0,103.7,40.505932,-3.361622,606.1,4,5,262.6,3.516
23.1,1,-0.07,-0.005,-0.068,-0.018,0.031,-0.033,-1.605,0.022,0.35,22.94,104.4,40.505894,-3.36196,607.1,3,5,260.9,3.516
23.2,1,-0.063,0.006,-0.044,-0.035,0.008,-0.038,-1.602,0.022,0.352,22.94,104.4,40.505894,-3.36196,607.1,3,5,260.9,3.516
23.3,1,-0.13,0.013,-0.042,-0.095,0.013,-0.05,-1.601,0.022,0.353,22.94,104.4,40.505894,-3.36196,607.1,3,5,260.9,3.516
23.4,1,0.045,0.02,-0.007,-0.033,0.012,-0.022,-1.601,0.019,0.354,22.94,104.4,40.505894,-3.36196,607.1,3,5,260.9,3.516
23.5,1,0.007,0.006,0.023,-0.011,0.014,-0.014,-1.599,0.02,0.356,22.94,104.4,40.505894,-3.36196,607.1,3,5,260.9,3.516
23.6,1,-0.014,-0.027,-0.046,-0.008,-0.011,-0.014,-1.601,0.021,0.358,22.94,104.4,40.505894,-3.36196,607.1,3,5,260.9,3.516
23.7,1,-0.074,-0.01,-0.034,-0.021,-0.003,-0.019,-1.601,0.022,0.36,22.94,104.4,40.505894,-3.36196,607.1,3,5,260.9,3.516
23.8,1,-0.023,-0.023,-0.008,-0.049,-0.012,-0.022,-1.6,0.023,0.362,22.94,104.4,40.505894,-3.36196,607.1,3,5,260.9,3.516
23.9,1,0.03,-0.008,-0.005,-0.021,-0.021,-0.022,-1.601,0.023,0.364,22.94,104.4,40.505894,-3.36196,607.1,3,5,260.9,3.516
24.0,1,-0.017,0.003,-0.024,0.017,-0.004,-0.003,-1.6,0.023,0.366,22.94,104.4,40.505894,-3.36196,607.1,3,5,260.9,3.516
24.11,1,-0.024,-0.008,-0.026,-0.014,-0.002,-0.022,-1.601,0.023,0.368,24.0,105.3,40.505844,-3.362299,607.8,4,5,259.1,3.516
24.2,1,-0.048,0.023,-0.016,-0.031,0.007,-0.025,-1.601,0.023,0.369,24.0,105.3,40.505844,-3.362299,607.8,4,5,259.1,3.516
24.3,1,0.021,-0.01,-0.012,-0.011,0.003,-0.014,-1.601,0.021,0.371,24.0,105.3,40.505844,-3.362299,607.8,4,5,259.1,3.516
24.41,1,-0.022,-0.02,-0.036,-0.01,-0.009,-0.025,-1.599,0.022,0.372,24.0,105.3,40.505844,-3.362299,607.8,4,5,259.1,3.516
24.5,1,0.02,0.019,0.001,-0.006,0.001,-0.019,-1.597,0.019,0.373,24.0,105.3,40.505844,-3.362299,607.8,4,5,259.1,3.516
24.61,1,0.034,0.01,0.002,0.028,0.009,-0.002,-1.591,0.014,0.375,24.0,105.3,40.505844,-3.362299,607.8,4,5,259.1,3.516
24.71,1,0.063,0.019,-0.027,0.037,0.01,-0.009,-1.591,0.012,0.376,24.0,105.3,40.505844,-3.362299,607.8,4,5,259.1,3.516
24.8,1,-0.043,-0.007,-0.002,0.014,0.007,-0.016,-1.59,0.013,0.378,24.0,105.3,40.505844,-3.362299,607.8,4,5,259.1,3.516
24.9,1,-0.007,0.02,-0.004,-0.01,0.007,-0.005,-1.588,0.016,0.379,24.0,105.3,40.505844,-3.362299,607.8,4,5,259.1,3.516
25.01,1,0.055,0.0,0.002,0.012,0.01,-0.003,-1.584,0.015,0.38,24.0,105.3,40.505844,-3.362299,607.8,4,5,259.1,3.516
25.11,1,0.019,-0.0,-0.038,0.027,0.0,-0.019,-1.582,0.013,0.381,24.93,105.8,40.505783,-3.362641,608.2,4,5,257.7,3.164
25.21,1,0.033,-0.002,0.004,0.024,-0.003,-0.013,-1.58,0.012,0.383,24.93,105.8,40.505783,-3.362641,608.2,4,5,257.7,3.164
25.3,1,-0.014,-0.001,0.024,0.006,-0.002,0.009,-1.579,0.012,0.384,24.93,105.8,40.505783,-3.362641,608.2,4,5,257.7,3.164
25.41,1,-0.049,-0.003,-0.033,-0.009,0.005,-0.008,-1.578,0.013,0.385,24.93,105.8,40.505783,-3.362641,608.2,4,5,257.7,3.164
25.5,1,-0.031,0.004,0.014,-0.035,-0.001,-0.002,-1.579,0.011,0.386,24.93,105.8,40.505783,-3.362641,608.2,4,5,257.7,3.164
25.62,1,-0.051,0.019,-0.062,-0.042,0.004,-0.022,-1.578,0.008,0.387,24.93,105.8,40.505783,-3.362641,608.2,4,5,257.7,3.164
25.7,1,0.036,0.009,-0.006,-0.022,0.017,-0.025,-1.582,0.011,0.389,24.93,105.8,40.505783,-3.362641,608.2,4,5,257.7,3.164
25.82,1,0.028,-0.022,-0.01,0.016,-0.006,-0.016,-1.583,0.018,0.391,24.93,105.8,40.505783,-3.362641,608.2,4,5,257.7,3.164
25.91,1,0.003,-0.011,-0.038,0.024,-0.008,-0.023,-1.575,0.023,0.393,24.93,105.8,40.505783,-3.362641,608.2,4,5,257.7,3.164
26.0,1,-0.006,0.018,-0.05,0.001,-0.004,-0.037,-1.572,0.025,0.394,24.93,105.8,40.505783,-3.362641,608.2,4,5,257.7,3.164
26.1,1,-0.034,-0.02,0.002,-0.011,-0.004,-0.026,-1.573,0.028,0.395,25.96,106.4,40.505718,-3.362981,608.9,3,5,256.3,2.812
26.21,1,-0.059,0.0,0.013,-0.033,-0.007,-0.001,-1.575,0.025,0.396,25.96,106.4,40.505718,-3.362981,608.9,3,5,256.3,2.812
26.3,1,-0.005,0.006,-0.004,-0.028,0.006,0.006,-1.576,0.022,0.398,25.96,106.4,40.505718,-3.362981,608.9,3,5,256.3,2.812
26.42,1,0.022,-0.023,-0.009,-0.006,-0.005,-0.007,-1.575,0.024,0.399,25.96,106.4,40.505718,-3.362981,608.9,3,5,256.3,2.812
26.51,1,0.031,0.019,-0.028,0.021,-0.003,-0.018,-1.574,0.022,0.401,25.96,106.4,40.505718,-3.362981,608.9,3,5,256.3,2.812
26.61,1,0.03,-0.01,-0.007,0.023,0.0,-0.013,-1.572,0.024,0.402,25.96,106.4,40.505718,-3.362981,608.9,3,5,256.3,2.812
26.71,1,-0.002,-0.021,-0.021,0.016,-0.011,-0.015,-1.571,0.024,0.403,25.96,106.4,40.505718,-3.362981,608.9,3,5,256.3,2.812
26.81,1,-0.048,-0.0,-0.014,-0.018,-0.01,-0.019,-1.571,0.026,0.404,25.96,106.4,40.505718,-3.362981,608.9,3,5,256.3,2.812
26.91,1,-0.032,-0.017,-0.007,-0.032,-0.007,-0.013,-1.573,0.027,0.406,25.96,106.4,40.505718,-3.362981,608.9,3,5,256.3,2.812
27.11,1,-0.041,0.007,-0.029,-0.026,-0.007,-0.016,-1.576,0.028,0.409,25.96,106.4,40.505718,-3.362981,608.9,3,5,256.3,2.812
27.21,1,0.051,0.019,0.02,0.008,0.01,0.001,-1.578,0.031,0.411,26.94,107.2,40.50565,-3.363317,609.5,3,5,254.5,3.164
27.31,1,0.045,-0.016,0.014,0.027,0.0,0.002,-1.576,0.033,0.412,26.94,107.2,40.50565,-3.363317,609.5,3,5,254.5,3.164
27.41,1,-0.061,-0.004,-0.056,0.018,0.001,-0.01,-1.575,0.032,0.414,26.94,107.2,40.50565,-3.363317,609.5,3,5,254.5,3.164
27.51,1,-0.046,-0.027,0.009,-0.032,-0.01,-0.014,-1.576,0.031,0.416,26.94,107.2,40.50565,-3.363317,609.5,3,5,254.5,3.164
27.62,1,-0.023,-0.042,-0.001,-0.042,-0.032,-0.004,-1.578,0.032,0.417,26.94,107.2,40.50565,-3.363317,609.5,3,5,254.5,3.164
27.71,1,-0.011,-0.025,-0.029,-0.029,-0.034,-0.014,-1.575,0.033,0.419,26.94,107.2,40.50565,-3.363317,609.5,3,5,254.5,3.164
27.81,1,-0.008,-0.008,-0.038,0.003,-0.017,-0.025,-1.575,0.033,0.42,26.94,107.2,40.50565,-3.363317,609.5,3,5,254.5,3.164
27.91,1,0.101,0.003,0.008,0.034,-0.011,-0.014,-1.575,0.033,0.422,26.94,107.2,40.50565,-3.363317,609.5,3,5,254.5,3.164
28.01,1,0.009,0.013,0.0,0.021,-0.003,-0.007,-1.576,0.032,0.423,26.94,107.2,40.50565,-3.363317,609.5,3,5,254.5,3.164
28.12,1,-0.092,-0.012,-0.026,-0.026,0.006,-0.018,-1.574,0.03,0.423,26.94,107.2,40.50565,-3.363317,609.5,3,5,254.5,3.164
28.21,1,-0.033,0.027,-0.013,-0.028,0.009,-0.007,-1.567,0.026,0.423,27.93,107.0,40.505566,-3.363649,610.0,3,5,252.8,3.516
28.32,1,0.006,0.04,0.003,-0.025,0.026,-0.009,-1.566,0.025,0.423,27.93,107.0,40.505566,-3.363649,610.0,3,5,252.8,3.516
28.41,1,-0.021,0.029,-0.004,-0.026,0.026,-0.007,-1.569,0.024,0.424,27.93,107.0,40.505566,-3.363649,610.0,3,5,252.8,3.516
28.52,1,-0.006,0.001,-0.024,-0.004,0.02,-0.011,-1.57,0.021,0.424,27.93,107.0,40.505566,-3.363649,610.0,3,5,252.8,3.516
28.61,1,-0.019,0.015,-0.004,0.001,0.012,-0.002,-1.57,0.018,0.425,27.93,107.0,40.505566,-3.363649,610.0,3,5,252.8,3.516
28.71,1,0.043,0.009,-0.003,0.015,0.013,-0.007,-1.567,0.017,0.426,27.93,107.0,40.505566,-3.363649,610.0,3,5,252.8,3.516
28.81,1,-0.027,0.014,-0.043,-0.012,0.009,-0.03,-1.566,0.016,0.426,27.93,107.0,40.505566,-3.363649,610.0,3,5,252.8,3.516
28.92,1,-0.084,-0.016,-0.025,-0.039,0.008,-0.027,-1.567,0.013,0.427,27.93,107.0,40.505566,-3.363649,610.0,3,5,252.8,3.516
29.02,1,-0.033,-0.006,-0.008,-0.046,-0.01,-0.012,-1.566,0.016,0.429,27.93,107.0,40.505566,-3.363649,610.0,3,5,252.8,3.516
29.11,1,0.09,-0.007,-0.009,-0.003,-0.005,-0.019,-1.564,0.016,0.43,27.93,107.0,40.505566,-3.363649,610.0,3,5,252.8,3.516
29.22,1,0.019,-0.029,-0.021,0.041,-0.013,-0.014,-1.563,0.019,0.431,28.94,107.4,40.505478,-3.363979,610.6,3,5,250.7,3.867
29.31,1,0.048,0.034,-0.023,0.032,-0.002,-0.026,-1.561,0.017,0.432,28.94,107.4,40.505478,-3.363979,610.6,3,5,250.7,3.867
29.41,1,-0.018,0.002,-0.029,0.006,0.009,-0.027,-1.561,0.017,0.432,28.94,107.4,40.505478,-3.363979,610.6,3,5,250.7,3.867
29.52,1,-0.063,-0.007,-0.02,-0.012,0.002,-0.016,-1.561,0.017,0.433,28.94,107.4,40.505478,-3.363979,610.6,3,5,250.7,3.867
29.61,1,0.039,0.017,0.014,-0.002,0.011,-0.0,-1.561,0.016,0.433,28.94,107.4,40.505478,-3.363979,610.6,3,5,250.7,3.867
29.71,1,0.06,0.01,-0.018,0.016,0.007,-0.017,-1.561,0.017,0.434,28.94,107.4,40.505478,-3.363979,610.6,3,5,250.7,3.867
29.81,1,-0.077,0.014,-0.016,-0.013,0.005,-0.014,-1.561,0.018,0.434,28.94,107.4,40.505478,-3.363979,610.6,3,5,250.7,3.867
29.91,1,-0.058,0.001,-0.009,-0.032,0.012,-0.008,-1.562,0.019,0.435,28.94,107.4,40.505478,-3.363979,610.6,3,5,250.7,3.867
30.02,1,0.035,-0.036,0.037,-0.009,-0.012,0.011,-1.564,0.016,0.435,28.94,107.4,40.505478,-3.363979,610.6,3,5,250.7,3.867
30.12,1,0.023,0.003,0.023,0.014,-0.012,0.023,-1.563,0.015,0.436,28.94,107.4,40.505478,-3.363979,610.6,3,5,250.7,3.867
30.22,1,0.01,0.008,-0.01,0.01,0.004,0.004,-1.562,0.013,0.437,29.95,107.5,40.505375,-3.364311,610.6,3,5,248.9,3.867
30.32,1,0.026,-0.052,0.018,0.013,-0.024,0.008,-1.563,0.018,0.438,29.95,107.5,40.505375,-3.364311,610.6,3,5,248.9,3.867
30.42,1,-0.011,0.017,-0.003,0.026,-0.005,0.009,-1.565,0.019,0.439,29.95,107.5,40.505375,-3.364311,610.6,3,5,248.9,3.867
30.52,1,0.008,-0.014,-0.019,-0.001,-0.007,-0.005,-1.564,0.018,0.439,29.95,107.5,40.505375,-3.364311,610.6,3,5,248.9,3.867
30.62,1,-0.057,-0.017,-0.006,-0.028,-0.018,-0.016,-1.563,0.016,0.44,29.95,107.5,40.505375,-3.364311,610.6,3,5,248.9,3.867
30.72,1,0.02,0.018,0.036,-0.023,0.002,0.01,-1.566,0.016,0.44,29.95,107.5,40.505375,-3.364311,610.6,3,5,248.9,3.867
30.82,1,-0.003,-0.004,-0.023,0.007,0.001,0.008,-1.564,0.017,0.441,29.95,107.5,40.505375,-3.364311,610.6,3,5,248.9,3.867
30.92,1,-0.013,0.012,-0.035,0.003,0.005,-0.016,-1.562,0.017,0.441,29.95,107.5,40.505375,-3.364311,610.6,3,5,248.9,3.867
31.02,1,-0.046,0.038,-0.024,-0.029,0.019,-0.027,-1.561,0.016,0.441,29.95,107.5,40.505375,-3.364311,610.6,3,5,248.9,3.867
31.12,1,-0.052,0.02,-0.04,-0.035,0.031,-0.033,-1.562,0.017,0.441,29.95,107.5,40.505375,-3.364311,610.6,3,5,248.9,3.867
31.22,1,0.006,0.008,-0.023,-0.029,0.013,-0.028,-1.564,0.016,0.441,30.93,107.3,40.505276,-3.364635,610.9,3,5,247.1,3.516
31.32,1,0.032,0.024,-0.025,0.008,0.016,-0.02,-1.562,0.014,0.441,30.93,107.3,40.505276,-3.364635,610.9,3,5,247.1,3.516
31.42,1,-0.027,0.004,-0.056,-0.007,0.014,-0.039,-1.558,0.014,0.441,30.93,107.3,40.505276,-3.364635,610.9,3,5,247.1,3.516
31.52,1,0.047,0.022,-0.014,0.02,0.018,-0.031,-1.557,0.015,0.441,30.93,107.3,40.505276,-3.364635,610.9,3,5,247.1,3.516
31.62,1,-0.042,-0.008,-0.022,0.003,0.008,-0.026,-1.56,0.013,0.442,30.93,107.3,40.505276,-3.364635,610.9,3,5,247.1,3.516
31.72,1,-0.019,-0.013,-0.023,-0.026,-0.007,-0.023,-1.558,0.015,0.442,30.93,107.3,40.505276,-3.364635,610.9,3,5,247.1,3.516
31.82,1,-0.042,-0.047,-0.066,-0.024,-0.025,-0.04,-1.555,0.018,0.443,30.93,107.3,40.505276,-3.364635,610.9,3,5,247.1,3.516
31.93,1,0.027,0.014,-0.036,-0.008,-0.012,-0.043,-1.549,0.015,0.444,30.93,107.3,40.505276,-3.364635,610.9,3,5,247.1,3.516
32.03,1,0.041,-0.005,-0.053,0.018,-0.001,-0.048,-1.544,0.016,0.445,30.93,107.3,40.505276,-3.364635,610.9,3,5,247.1,3.516
32.13,1,-0.014,0.006,-0.013,0.019,-0.004,-0.039,-1.539,0.013,0.445,30.93,107.3,40.505276,-3.364635,610.9,3,5,247.1,3.516
32.22,1,-0.044,-0.004,-0.066,-0.023,-0.002,-0.036,-1.538,0.013,0.446,31.98,107.4,40.505165,-3.364953,610.8,3,5,245.7,3.164
32.32,1,-0.044,0.002,-0.023,-0.041,-0.004,-0.041,-1.536,0.014,0.446,31.98,107.4,40.505165,-3.364953,610.8,3,5,245.7,3.164
32.42,1,-0.004,0.019,-0.038,-0.025,0.014,-0.034,-1.532,0.008,0.446,31.98,107.4,40.505165,-3.364953,610.8,3,5,245.7,3.164
32.52,1,0.012,0.013,-0.045,0.003,0.015,-0.044,-1.525,0.006,0.445,31.98,107.4,40.505165,-3.364953,610.8,3,5,245.7,3.164
32.63,1,-0.028,-0.0,-0.036,-0.018,0.006,-0.047,-1.52,0.005,0.446,31.98,107.4,40.505165,-3.364953,610.8,3,5,245.7,3.164
32.73,1,0.002,-0.029,-0.025,-0.016,-0.01,-0.023,-1.52,0.008,0.446,31.98,107.4,40.505165,-3.364953,610.8,3,5,245.7,3.164
32.82,1,0.024,-0.004,-0.037,0.013,-0.012,-0.036,-1.52,0.006,0.447,31.98,107.4,40.505165,-3.364953,610.8,3,5,245.7,3.164
32.92,1,-0.038,0.008,-0.006,0.003,-0.003,-0.02,-1.518,0.004,0.447,31.98,107.4,40.505165,-3.364953,610.8,3,5,245.7,3.164
33.02,1,-0.021,0.008,-0.035,-0.027,0.004,-0.029,-1.519,0.003,0.447,31.98,107.4,40.505165,-3.364953,610.8,3,5,245.7,3.164
33.12,1,0.043,-0.011,-0.025,0.002,-0.002,-0.021,-1.518,0.006,0.447,31.98,107.4,40.505165,-3.364953,610.8,3,5,245.7,3.164
33.23,1,0.026,0.01,-0.036,0.025,0.005,-0.031,-1.513,0.006,0.447,32.93,107.2,40.505047,-3.365269,610.7,3,5,244.0,3.164
33.33,1,0.041,0.012,-0.006,0.033,0.007,-0.027,-1.511,0.009,0.447,32.93,107.2,40.505047,-3.365269,610.7,3,5,244.0,3.164
33.42,1,0.036,0.033,-0.066,0.04,0.017,-0.026,-1.511,0.013,0.447,32.93,107.2,40.505047,-3.365269,610.7,3,5,244.0,3.164
33.52,1,-0.029,-0.012,-0.02,0.007,0.01,-0.039,-1.51,0.014,0.447,32.93,107.2,40.505047,-3.365269,610.7,3,5,244.0,3.164
33.62,1,-0.049,0.023,-0.011,-0.032,0.011,-0.026,-1.511,0.017,0.447,32.93,107.2,40.505047,-3.365269,610.7,3,5,244.0,3.164
33.72,1,-0.022,-0.007,0.011,-0.034,0.004,-0.005,-1.511,0.021,0.448,32.93,107.2,40.505047,-3.365269,610.7,3,5,244.0,3.164
33.82,1,0.025,-0.041,-0.009,-0.011,-0.018,-0.002,-1.511,0.023,0.449,32.93,107.2,40.505047,-3.365269,610.7,3,5,244.0,3.164
33.92,1,0.003,-0.016,-0.002,0.011,-0.018,-0.009,-1.509,0.021,0.449,32.93,107.2,40.505047,-3.365269,610.7,3,5,244.0,3.164
34.03,1,-0.056,0.045,0.047,-0.016,0.009,0.017,-1.51,0.022,0.45,32.93,107.2,40.505047,-3.365269,610.7,3,5,244.0,3.164
34.13,1,0.054,-0.036,0.039,0.007,-0.005,0.033,-1.511,0.026,0.45,32.93,107.2,40.505047,-3.365269,610.7,3,5,244.0,3.164
34.23,1,0.005,-0.018,0.016,0.018,-0.015,0.032,-1.513,0.033,0.45,33.94,106.1,40.504921,-3.365576,610.7,3,5,242.2,3.516
34.33,1,-0.005,0.002,0.054,0.002,-0.01,0.036,-1.515,0.036,0.451,33.94,106.1,40.504921,-3.365576,610.7,3,5,242.2,3.516
34.43,1,0.017,0.019,0.039,0.009,-0.001,0.04,-1.516,0.037,0.451,33.94,106.1,40.504921,-3.365576,610.7,3,5,242.2,3.516
34.53,1,-0.012,0.04,0.013,0.001,0.021,0.033,-1.516,0.033,0.449,33.94,106.1,40.504921,-3.365576,610.7,3,5,242.2,3.516
34.63,1,-0.038,0.053,0.018,-0.023,0.042,0.019,-1.516,0.028,0.447,33.94,106.1,40.504921,-3.365576,610.7,3,5,242.2,3.516
34.73,1,-0.031,0.066,0.098,-0.027,0.055,0.047,-1.52,0.024,0.445,33.94,106.1,40.504921,-3.365576,610.7,3,5,242.2,3.516
34.83,1,-0.006,0.041,0.069,-0.015,0.05,0.072,-1.521,0.025,0.444,33.94,106.1,40.504921,-3.365576,610.7,3,5,242.2,3.516
34.93,1,0.029,0.036,0.059,0.002,0.053,0.065,-1.524,0.024,0.442,33.94,106.1,40.504921,-3.365576,610.7,3,5,242.2,3.516
35.03,1,0.063,0.012,0.068,0.014,0.027,0.064,-1.527,0.025,0.441,33.94,106.1,40.504921,-3.365576,610.7,3,5,242.2,3.516
35.14,1,0.032,0.058,0.049,0.054,0.034,0.061,-1.529,0.025,0.439,33.94,106.1,40.504921,-3.365576,610.7,3,5,242.2,3.516
35.23,1,-0.027,0.055,0.034,0.008,0.049,0.043,-1.533,0.024,0.437,34.94,104.3,40.504791,-3.365874,610.4,3,5,240.8,3.164
35.33,1,-0.069,0.026,0.043,-0.026,0.04,0.044,-1.539,0.025,0.436,34.94,104.3,40.504791,-3.365874,610.4,3,5,240.8,3.164
35.43,1,-0.017,0.023,0.074,-0.036,0.032,0.055,-1.546,0.027,0.434,34.94,104.3,40.504791,-3.365874,610.4,3,5,240.8,3.164
35.53,1,0.017,0.064,0.033,-0.005,0.039,0.05,-1.547,0.024,0.432,34.94,104.3,40.504791,-3.365874,610.4,3,5,240.8,3.164
35.64,1,-0.012,0.031,0.009,-0.007,0.044,0.032,-1.551,0.024,0.431,34.94,104.3,40.504791,-3.365874,610.4,3,5,240.8,3.164
35.74,1,-0.029,0.015,0.026,-0.016,0.027,0.02,-1.557,0.026,0.43,34.94,104.3,40.504791,-3.365874,610.4,3,5,240.8,3.164
35.83,1,0.003,0.011,0.049,-0.013,0.02,0.039,-1.561,0.027,0.429,34.94,104.3,40.504791,-3.365874,610.4,3,5,240.8,3.164
35.93,1,0.032,0.018,0.005,0.012,0.019,0.024,-1.562,0.03,0.428,34.94,104.3,40.504791,-3.365874,610.4,3,5,240.8,3.164
36.03,1,-0.061,-0.001,-0.018,-0.018,0.008,0.0,-1.561,0.031,0.427,34.94,104.3,40.504791,-3.365874,610.4,3,5,240.8,3.164
36.13,1,-0.013,0.014,0.013,-0.026,0.009,0.003,-1.562,0.031,0.425,34.94,104.3,40.504791,-3.365874,610.4,3,5,240.8,3.164
36.23,1,0.047,-0.005,0.023,0.002,0.003,0.017,-1.561,0.031,0.424,35.94,103.5,40.504658,-3.366166,612.1,3,5,239.1,3.164
36.33,1,0.023,0.022,-0.002,0.043,0.008,0.007,-1.558,0.033,0.422,35.94,103.5,40.504658,-3.366166,612.1,3,5,239.1,3.164
36.44,1,-0.05,0.013,-0.009,-0.022,0.014,-0.004,-1.561,0.036,0.421,35.94,103.5,40.504658,-3.366166,612.1,3,5,239.1,3.164
36.53,1,-0.007,0.006,-0.017,-0.014,0.013,-0.003,-1.566,0.039,0.42,35.94,103.5,40.504658,-3.366166,612.1,3,5,239.1,3.164
36.63,1,0.037,0.027,-0.036,0.018,0.018,-0.017,-1.562,0.038,0.417,35.94,103.5,40.504658,-3.366166,612.1,3,5,239.1,3.164
36.73,1,-0.035,0.034,-0.067,-0.014,0.023,-0.053,-1.558,0.039,0.415,35.94,103.5,40.504658,-3.366166,612.1,3,5,239.1,3.164
36.83,1,-0.056,0.009,-0.044,-0.033,0.017,-0.051,-1.558,0.04,0.413,35.94,103.5,40.504658,-3.366166,612.1,3,5,239.1,3.164
36.93,1,-0.03,0.019,-0.052,-0.037,0.02,-0.043,-1.556,0.042,0.411,35.94,103.5,40.504658,-3.366166,612.1,3,5,239.1,3.164
37.13,1,0.07,0.042,-0.046,0.035,0.032,-0.041,-1.551,0.043,0.408,35.94,103.5,40.504658,-3.366166,612.1,3,5,239.1,3.164
37.23,1,0.067,0.018,-0.045,0.067,0.029,-0.048,-1.546,0.047,0.406,35.94,103.5,40.504658,-3.366166,612.1,3,5,239.1,3.164
37.33,1,-0.028,0.002,-0.036,0.017,0.013,-0.045,-1.543,0.05,0.405,36.96,104.7,40.504517,-3.366455,611.2,3,5,238.4,2.461
37.43,1,-0.053,-0.002,-0.008,-0.022,0.005,-0.026,-1.544,0.048,0.402,36.96,104.7,40.504517,-3.366455,611.2,3,5,238.4,2.461
37.53,1,-0.052,0.019,-0.023,-0.038,0.006,-0.021,-1.544,0.046,0.4,36.96,104.7,40.504517,-3.366455,611.2,3,5,238.4,2.461
37.64,1,-0.016,0.019,0.045,-0.04,0.013,0.004,-1.547,0.047,0.399,36.96,104.7,40.504517,-3.366455,611.2,3,5,238.4,2.461
37.73,1,-0.039,0.032,0.006,-0.033,0.024,0.014,-1.548,0.05,0.397,36.96,104.7,40.504517,-3.366455,611.2,3,5,238.4,2.461
37.83,1,0.023,0.015,0.036,-0.018,0.022,0.018,-1.551,0.049,0.396,36.96,104.7,40.504517,-3.366455,611.2,3,5,238.4,2.461
37.93,1,-0.043,0.02,0.027,-0.011,0.021,0.03,-1.555,0.046,0.393,36.96,104.7,40.504517,-3.366455,611.2,3,5,238.4,2.461
38.04,1,-0.027,0.038,0.052,-0.026,0.025,0.037,-1.559,0.042,0.391,36.96,104.7,40.504517,-3.366455,611.2,3,5,238.4,2.461
38.15,1,-0.02,0.058,0.037,-0.039,0.041,0.038,-1.561,0.035,0.388,36.96,104.7,40.504517,-3.366455,611.2,3,5,238.4,2.461
38.24,1,0.033,0.045,0.031,0.013,0.05,0.047,-1.564,0.029,0.385,36.96,104.7,40.504517,-3.366455,611.2,3,5,238.4,2.461
38.34,1,-0.007,0.03,-0.012,0.008,0.043,0.008,-1.563,0.026,0.382,37.95,105.1,40.504379,-3.366742,610.1,3,5,238.0,1.055
38.44,1,-0.062,0.014,0.016,-0.025,0.024,0.013,-1.565,0.022,0.38,37.95,105.1,40.504379,-3.366742,610.1,3,5,238.0,1.055
38.54,1,0.004,0.033,-0.014,-0.033,0.03,-0.0,-1.564,0.019,0.377,37.95,105.1,40.504379,-3.366742,610.1,3,5,238.0,1.055
38.64,1,-0.0,-0.003,0.012,-0.004,0.019,-0.002,-1.563,0.019,0.375,37.95,105.1,40.504379,-3.366742,610.1,3,5,238.0,1.055
38.74,1,0.064,-0.026,0.033,0.03,-0.011,0.023,-1.562,0.017,0.373,37.95,105.1,40.504379,-3.366742,610.1,3,5,238.0,1.055
38.85,1,0.007,0.03,0.007,0.027,0.005,0.018,-1.563,0.01,0.37,37.95,105.1,40.504379,-3.366742,610.1,3,5,238.0,1.055
38.94,1,0.006,0.037,0.042,0.017,0.023,0.023,-1.563,0.009,0.368,37.95,105.1,40.504379,-3.366742,610.1,3,5,238.0,1.055
39.05,1,-0.067,-0.022,-0.005,-0.027,0.01,0.016,-1.563,0.012,0.366,37.95,105.1,40.504379,-3.366742,610.1,3,5,238.0,1.055
39.14,1,-0.051,-0.017,0.042,-0.047,-0.013,0.02,-1.564,0.014,0.363,37.95,105.1,40.504379,-3.366742,610.1,3,5,238.0,1.055
39.24,1,-0.009,0.029,0.03,-0.024,0.007,0.033,-1.568,0.011,0.361,37.95,105.1,40.504379,-3.366742,610.1,3,5,238.0,1.055
39.35,1,0.02,-0.003,0.019,-0.006,0.01,0.032,-1.57,0.011,0.358,38.94,105.2,40.504238,-3.367029,609.9,3,5,237.3,1.055
39.44,1,0.033,-0.006,-0.017,0.013,-0.005,0.001,-1.568,0.011,0.356,38.94,105.2,40.504238,-3.367029,609.9,3,5,237.3,1.055
39.56,1,0.014,-0.017,0.032,0.018,-0.009,0.008,-1.57,0.01,0.354,38.94,105.2,40.504238,-3.367029,609.9,3,5,237.3,1.055
39.65,1,-0.018,-0.044,-0.001,0.006,-0.024,0.017,-1.572,0.008,0.352,38.94,105.2,40.504238,-3.367029,609.9,3,5,237.3,1.055
39.74,1,-0.005,-0.008,0.017,-0.007,-0.026,0.004,-1.574,0.007,0.35,38.94,105.2,40.504238,-3.367029,609.9,3,5,237.3,1.055
39.84,1,0.007,0.008,0.002,-0.004,-0.003,0.011,-1.575,0.002,0.348,38.94,105.2,40.504238,-3.367029,609.9,3,5,237.3,1.055
39.94,1,-0.029,0.004,-0.048,-0.015,0.001,-0.013,-1.57,0.003,0.345,38.94,105.2,40.504238,-3.367029,609.9,3,5,237.3,1.055
40.05,1,-0.006,0.001,-0.007,-0.016,0.005,-0.022,-1.566,0.003,0.343,38.94,105.2,40.504238,-3.367029,609.9,3,5,237.3,1.055
40.14,1,-0.001,0.016,-0.018,0.0,0.006,-0.018,-1.565,-0.001,0.34,38.94,105.2,40.504238,-3.367029,609.9,3,5,237.3,1.055
40.24,1,-0.036,0.013,-0.092,-0.011,0.014,-0.044,-1.565,-0.007,0.337,38.94,105.2,40.504238,-3.367029,609.9,3,5,237.3,1.055
40.34,1,0.022,0.004,-0.048,-0.002,0.01,-0.061,-1.564,-0.011,0.334,39.94,104.8,40.504097,-3.367315,607.2,3,5,237.3,0.703
40.45,1,-0.037,-0.017,0.006,-0.014,-0.003,-0.034,-1.563,-0.01,0.332,39.94,104.8,40.504097,-3.367315,607.2,3,5,237.3,0.703
40.55,1,0.063,-0.006,0.004,0.003,-0.011,-0.003,-1.563,-0.011,0.329,39.94,104.8,40.504097,-3.367315,607.2,3,5,237.3,0.703
40.65,1,0.029,0.005,-0.064,0.046,0.005,-0.022,-1.558,-0.011,0.326,39.94,104.8,40.504097,-3.367315,607.2,3,5,237.3,0.703
40.74,1,-0.01,-0.049,-0.055,0.014,-0.018,-0.056,-1.558,-0.007,0.325,39.94,104.8,40.504097,-3.367315,607.2,3,5,237.3,0.703
40.84,1,-0.037,-0.082,-0.005,-0.01,-0.057,-0.03,-1.56,-0.007,0.325,39.94,104.8,40.504097,-3.367315,607.2,3,5,237.3,0.703
40.94,1,0.07,-0.043,-0.008,0.014,-0.054,-0.015,-1.558,-0.006,0.324,39.94,104.8,40.504097,-3.367315,607.2,3,5,237.3,0.703
41.04,1,0.02,-0.055,-0.024,0.028,-0.053,-0.016,-1.556,-0.0,0.323,39.94,104.8,40.504097,-3.367315,607.2,3,5,237.3,0.703
41.14,1,-0.02,-0.065,0.012,-0.006,-0.062,-0.014,-1.557,0.003,0.322,39.94,104.8,40.504097,-3.367315,607.2,3,5,237.3,0.703
41.24,1,-0.072,-0.019,-0.003,-0.03,-0.046,0.004,-1.559,0.003,0.32,39.94,104.8,40.504097,-3.367315,607.2,3,5,237.3,0.703
41.35,1,-0.009,0.023,0.051,-0.034,-0.013,0.02,-1.561,-0.003,0.317,40.95,106.7,40.503952,-3.367609,605.9,3,5,237.3,0.0
41.45,1,0.005,0.059,0.022,-0.016,0.03,0.03,-1.563,-0.01,0.314,40.95,106.7,40.503952,-3.367609,605.9,3,5,237.3,0.0
41.54,1,0.005,-0.021,0.025,0.001,0.02,0.019,-1.565,-0.006,0.312,40.95,106.7,40.503952,-3.367609,605.9,3,5,237.3,0.0
41.64,1,0.033,0.001,0.031,0.03,0.004,0.034,-1.57,-0.006,0.31,40.95,106.7,40.503952,-3.367609,605.9,3,5,237.3,0.0
41.75,1,-0.078,-0.034,-0.023,-0.016,-0.014,0.008,-1.574,-0.005,0.307,40.95,106.7,40.503952,-3.367609,605.9,3,5,237.3,0.0
41.85,1,-0.061,0.023,0.006,-0.05,-0.008,-0.002,-1.576,-0.005,0.305,40.95,106.7,40.503952,-3.367609,605.9,3,5,237.3,0.0
41.96,1,-0.048,0.012,0.012,-0.063,0.006,0.001,-1.58,-0.001,0.303,40.95,106.7,40.503952,-3.367609,605.9,3,5,237.3,0.0
42.05,1,0.02,0.002,0.02,-0.012,0.011,0.012,-1.577,0.004,0.3,40.95,106.7,40.503952,-3.367609,605.9,3,5,237.3,0.0
42.15,1,0.242,0.001,0.051,0.111,0.002,0.033,-1.576,0.006,0.298,40.95,106.7,40.503952,-3.367609,605.9,3,5,237.3,0.0
42.25,1,0.131,-0.011,-0.053,0.156,0.0,0.012,-1.571,0.008,0.296,40.95,106.7,40.503952,-3.367609,605.9,3,5,237.3,0.0
42.35,1,0.009,-0.017,-0.03,0.08,-0.011,-0.031,-1.571,0.006,0.293,42.0,107.7,40.503807,-3.367906,605.3,3,5,237.3,0.0
42.46,1,-0.066,0.002,-0.035,0.004,-0.01,-0.03,-1.572,0.003,0.291,42.0,107.7,40.503807,-3.367906,605.3,3,5,237.3,0.0
42.55,1,-0.089,-0.011,-0.034,-0.059,-0.006,-0.026,-1.573,0.002,0.29,42.0,107.7,40.503807,-3.367906,605.3,3,5,237.3,0.0
42.66,1,-0.012,-0.018,-0.015,-0.057,-0.014,-0.035,-1.571,0.011,0.289,42.0,107.7,40.503807,-3.367906,605.3,3,5,237.3,0.0
42.75,1,-0.044,-0.03,-0.03,-0.03,-0.018,-0.021,-1.571,0.018,0.288,42.0,107.7,40.503807,-3.367906,605.3,3,5,237.3,0.0
42.85,1,0.003,0.025,-0.018,-0.012,0.001,-0.023,-1.574,0.014,0.286,42.0,107.7,40.503807,-3.367906,605.3,3,5,237.3,0.0
42.95,1,0.005,0.004,0.003,-0.022,-0.007,-0.017,-1.575,0.011,0.283,42.0,107.7,40.503807,-3.367906,605.3,3,5,237.3,0.0
43.05,1,-0.062,-0.01,-0.008,-0.032,-0.004,-0.004,-1.575,0.011,0.282,42.0,107.7,40.503807,-3.367906,605.3,3,5,237.3,0.0
43.15,1,0.034,-0.001,0.031,-0.015,0.008,0.004,-1.574,0.005,0.28,42.0,107.7,40.503807,-3.367906,605.3,3,5,237.3,0.0
43.25,1,0.002,0.004,-0.019,0.01,0.002,0.006,-1.573,0.007,0.278,42.0,107.7,40.503807,-3.367906,605.3,3,5,237.3,0.0
43.35,1,0.035,-0.005,0.004,0.026,-0.003,-0.001,-1.572,0.01,0.277,42.95,109.6,40.503662,-3.368212,605.0,3,5,237.0,0.352
43.45,1,0.001,0.005,-0.009,0.026,-0.0,-0.008,-1.573,0.01,0.275,42.95,109.6,40.503662,-3.368212,605.0,3,5,237.0,0.352
43.56,1,-0.105,-0.029,0.01,-0.047,-0.012,-0.004,-1.576,0.008,0.273,42.95,109.6,40.503662,-3.368212,605.0,3,5,237.0,0.352
43.66,1,-0.097,-0.013,0.036,-0.082,-0.019,0.021,-1.581,0.006,0.271,42.95,109.6,40.503662,-3.368212,605.0,3,5,237.0,0.352
43.75,1,-0.017,0.007,0.038,-0.045,0.0,0.034,-1.586,0.011,0.269,42.95,109.6,40.503662,-3.368212,605.0,3,5,237.0,0.352
43.86,1,-0.032,0.021,-0.015,-0.04,0.01,0.015,-1.583,0.004,0.268,42.95,109.6,40.503662,-3.368212,605.0,3,5,237.0,0.352
43.95,1,-0.041,-0.056,-0.034,-0.037,-0.018,-0.013,-1.582,0.003,0.266,42.95,109.6,40.503662,-3.368212,605.0,3,5,237.0,0.352
44.05,1,-0.052,-0.039,-0.057,-0.036,-0.033,-0.034,-1.578,0.005,0.265,42.95,109.6,40.503662,-3.368212,605.0,3,5,237.0,0.352
44.15,1,-0.056,-0.058,-0.066,-0.066,-0.053,-0.055,-1.575,0.015,0.264,42.95,109.6,40.503662,-3.368212,605.0,3,5,237.0,0.352
44.25,1,-0.034,-0.069,-0.095,-0.042,-0.054,-0.068,-1.571,0.024,0.265,42.95,109.6,40.503662,-3.368212,605.0,3,5,237.0,0.352
44.35,1,-0.015,-0.036,-0.108,-0.027,-0.051,-0.092,-1.568,0.028,0.264,43.97,109.4,40.503513,-3.368512,605.2,3,5,237.3,0.352
44.45,1,-0.03,-0.027,-0.073,-0.033,-0.04,-0.095,-1.559,0.034,0.263,43.97,109.4,40.503513,-3.368512,605.2,3,5,237.3,0.352
44.55,1,-0.033,-0.017,-0.043,-0.041,-0.027,-0.073,-1.558,0.038,0.262,43.97,109.4,40.503513,-3.368512,605.2,3,5,237.3,0.352
44.65,1,0.043,0.009,-0.078,0.002,-0.007,-0.06,-1.556,0.03,0.26,43.97,109.4,40.503513,-3.368512,605.2,3,5,237.3,0.352
44.75,1,-0.052,0.041,-0.069,-0.009,0.016,-0.07,-1.548,0.023,0.257,43.97,109.4,40.503513,-3.368512,605.2,3,5,237.3,0.352
44.85,1,-0.019,-0.004,-0.069,-0.022,0.009,-0.072,-1.543,0.022,0.255,43.97,109.4,40.503513,-3.368512,605.2,3,5,237.3,0.352
44.96,1,-0.0,0.004,-0.035,-0.005,0.009,-0.052,-1.535,0.021,0.253,43.97,109.4,40.503513,-3.368512,605.2,3,5,237.3,0.352
45.06,1,-0.034,0.014,-0.077,-0.025,0.009,-0.06,-1.531,0.017,0.251,43.97,109.4,40.503513,-3.368512,605.2,3,5,237.3,0.352
45.17,1,-0.021,0.013,-0.039,-0.025,0.012,-0.054,-1.526,0.016,0.249,43.97,109.4,40.503513,-3.368512,605.2,3,5,237.3,0.352
45.25,1,-0.029,0.001,-0.032,-0.029,0.007,-0.044,-1.522,0.015,0.248,43.97,109.4,40.503513,-3.368512,605.2,3,5,237.3,0.352
45.35,1,0.012,0.015,-0.037,-0.013,0.008,-0.038,-1.519,0.014,0.247,44.95,110.7,40.503365,-3.368829,604.2,3,5,237.3,0.352
45.47,1,-0.007,-0.005,-0.021,-0.002,0.002,-0.025,-1.515,0.011,0.245,44.95,110.7,40.503365,-3.368829,604.2,3,5,237.3,0.352
45.55,1,0.014,0.003,-0.039,0.003,0.007,-0.035,-1.511,0.014,0.243,44.95,110.7,40.503365,-3.368829,604.2,3,5,237.3,0.352
45.66,1,-0.007,0.003,-0.015,0.011,0.002,-0.029,-1.512,0.018,0.242,44.95,110.7,40.503365,-3.368829,604.2,3,5,237.3,0.352
45.76,1,-0.044,0.006,-0.009,-0.015,0.003,-0.012,-1.513,0.018,0.24,44.95,110.7,40.503365,-3.368829,604.2,3,5,237.3,0.352
45.86,1,-0.029,0.025,-0.038,-0.034,0.012,-0.024,-1.515,0.017,0.238,44.95,110.7,40.503365,-3.368829,604.2,3,5,237.3,0.352
45.96,1,-0.025,-0.027,-0.041,-0.026,0.001,-0.034,-1.512,0.015,0.236,44.95,110.7,40.503365,-3.368829,604.2,3,5,237.3,0.352
46.06,1,-0.029,-0.007,-0.012,-0.021,-0.013,-0.029,-1.509,0.015,0.235,44.95,110.7,40.503365,-3.368829,604.2,3,5,237.3,0.352
46.17,1,0.057,-0.02,-0.018,0.005,-0.011,-0.02,-1.507,0.012,0.233,44.95,110.7,40.503365,-3.368829,604.2,3,5,237.3,0.352
46.26,1,0.015,-0.026,-0.016,0.018,-0.022,-0.021,-1.506,0.012,0.233,44.95,110.7,40.503365,-3.368829,604.2,3,5,237.3,0.352
46.36,1,-0.027,-0.007,-0.015,0.003,-0.016,-0.015,-1.508,0.011,0.232,45.95,109.2,40.503216,-3.369133,603.2,3,5,237.3,0.0
46.46,1,-0.02,-0.023,-0.009,-0.01,-0.015,-0.008,-1.508,0.011,0.231,45.95,109.2,40.503216,-3.369133,603.2,3,5,237.3,0.0
46.56,1,0.045,0.005,-0.011,0.007,-0.005,-0.009,-1.511,0.011,0.23,45.95,109.2,40.503216,-3.369133,603.2,3,5,237.3,0.0
46.66,1,0.004,-0.019,-0.029,0.002,-0.016,-0.028,-1.509,0.011,0.228,45.95,109.2,40.503216,-3.369133,603.2,3,5,237.3,0.0
46.77,1,0.016,0.014,-0.024,0.017,-0.003,-0.019,-1.506,0.007,0.226,45.95,109.2,40.503216,-3.369133,603.2,3,5,237.3,0.0
46.86,1,-0.001,0.023,0.018,0.006,0.013,-0.008,-1.503,0.007,0.224,45.95,109.2,40.503216,-3.369133,603.2,3,5,237.3,0.0
47.06,1,-0.04,-0.017,-0.065,-0.018,-0.002,-0.041,-1.498,0.007,0.222,45.95,109.2,40.503216,-3.369133,603.2,3,5,237.3,0.0
47.16,1,-0.055,-0.02,-0.106,-0.05,-0.016,-0.072,-1.493,0.009,0.221,45.95,109.2,40.503216,-3.369133,603.2,3,5,237.3,0.0
47.26,1,-0.057,-0.03,-0.127,-0.043,-0.017,-0.107,-1.487,0.01,0.22,45.95,109.2,40.503216,-3.369133,603.2,3,5,237.3,0.0
47.36,1,-0.021,-0.028,-0.109,-0.034,-0.028,-0.11,-1.481,0.014,0.219,45.95,109.2,40.503216,-3.369133,603.2,3,5,237.3,0.0
47.46,1,0.005,0.007,-0.16,-0.023,-0.012,-0.133,-1.474,0.015,0.218,46.94,107.4,40.503067,-3.369426,602.8,3,5,237.3,0.0
47.56,1,0.034,0.0,-0.149,0.004,-0.004,-0.145,-1.46,0.011,0.217,46.94,107.4,40.503067,-3.369426,602.8,3,5,237.3,0.0
47.66,1,0.001,0.004,-0.108,0.013,-0.0,-0.131,-1.45,0.009,0.216,46.94,107.4,40.503067,-3.369426,602.8,3,5,237.3,0.0
47.76,1,-0.006,0.006,-0.119,-0.003,0.003,-0.123,-1.438,0.007,0.214,46.94,107.4,40.503067,-3.369426,602.8,3,5,237.3,0.0
47.86,1,0.001,-0.022,-0.104,0.004,-0.008,-0.111,-1.429,0.009,0.213,46.94,107.4,40.503067,-3.369426,602.8,3,5,237.3,0.0
47.96,1,-0.012,0.003,-0.113,-0.013,-0.005,-0.109,-1.423,0.008,0.211,46.94,107.4,40.503067,-3.369426,602.8,3,5,237.3,0.0
48.06,1,-0.009,0.012,-0.09,-0.003,0.008,-0.107,-1.416,0.005,0.21,46.94,107.4,40.503067,-3.369426,602.8,3,5,237.3,0.0
48.17,1,-0.009,-0.003,0.012,-0.017,-0.0,-0.059,-1.415,0.007,0.209,46.94,107.4,40.503067,-3.369426,602.8,3,5,237.3,0.0
48.27,1,0.011,0.003,0.074,0.013,-0.003,0.024,-1.418,0.005,0.208,46.94,107.4,40.503067,-3.369426,602.8,3,5,237.3,0.0
48.36,1,-0.014,-0.002,0.085,0.0,0.003,0.052,-1.423,0.005,0.207,46.94,107.4,40.503067,-3.369426,602.8,3,5,237.3,0.0
48.47,1,-0.015,-0.012,0.066,-0.012,-0.001,0.068,-1.431,0.007,0.205,47.94,106.0,40.502926,-3.369728,601.8,3,5,237.0,0.352
48.56,1,0.018,0.005,0.081,0.007,-0.005,0.073,-1.435,0.007,0.205,47.94,106.0,40.502926,-3.369728,601.8,3,5,237.0,0.352
48.68,1,-0.015,-0.011,0.055,-0.002,-0.006,0.069,-1.437,0.007,0.204,47.94,106.0,40.502926,-3.369728,601.8,3,5,237.0,0.352
48.77,1,0.031,-0.03,0.066,0.001,-0.017,0.063,-1.44,0.008,0.203,47.94,106.0,40.502926,-3.369728,601.8,3,5,237.0,0.352
48.87,1,-0.052,0.007,0.05,-0.0,-0.011,0.056,-1.441,0.006,0.202,47.94,106.0,40.502926,-3.369728,601.8,3,5,237.0,0.352
48.96,1,-0.094,0.004,0.1,-0.05,0.001,0.078,-1.447,0.007,0.202,47.94,106.0,40.502926,-3.369728,601.8,3,5,237.0,0.352
49.06,1,-0.031,-0.011,0.109,-0.066,-0.002,0.087,-1.453,0.006,0.201,47.94,106.0,40.502926,-3.369728,601.8,3,5,237.0,0.352
49.17,1,-0.041,0.004,0.151,-0.049,-0.005,0.122,-1.464,0.007,0.2,47.94,106.0,40.502926,-3.369728,601.8,3,5,237.0,0.352
49.27,1,-0.006,0.031,0.103,-0.035,0.019,0.123,-1.478,0.004,0.198,47.94,106.0,40.502926,-3.369728,601.8,3,5,237.0,0.352
49.36,1,-0.048,0.019,0.095,-0.016,0.015,0.106,-1.486,0.003,0.197,47.94,106.0,40.502926,-3.369728,601.8,3,5,237.0,0.352
49.46,1,-0.039,0.024,0.104,-0.049,0.023,0.101,-1.494,0.004,0.195,48.94,100.1,40.502781,-3.370012,601.4,3,5,237.3,0.352
49.56,1,-0.011,-0.035,0.1,-0.034,0.002,0.102,-1.503,0.008,0.194,48.94,100.1,40.502781,-3.370012,601.4,3,5,237.3,0.352
49.66,1,-0.011,-0.014,0.081,-0.011,-0.017,0.092,-1.511,0.008,0.194,48.94,100.1,40.502781,-3.370012,601.4,3,5,237.3,0.352
49.77,1,-0.084,-0.007,0.088,-0.037,-0.006,0.089,-1.516,0.005,0.193,48.94,100.1,40.502781,-3.370012,601.4,3,5,237.3,0.352
49.87,1,0.075,0.002,0.112,-0.002,-0.005,0.103,-1.524,0.001,0.192,48.94,100.1,40.502781,-3.370012,601.4,3,5,237.3,0.352
49.97,1,0.044,0.008,0.04,0.019,-0.001,0.071,-1.526,0.003,0.191,48.94,100.1,40.502781,-3.370012,601.4,3,5,237.3,0.352
50.08,1,0.061,0.002,0.073,0.057,0.002,0.072,-1.529,0.004,0.19,48.94,100.1,40.502781,-3.370012,601.4,3,5,237.3,0.352
50.17,1,-0.053,-0.004,0.025,0.011,0.002,0.048,-1.532,0.005,0.189,48.94,100.1,40.502781,-3.370012,601.4,3,5,237.3,0.352
50.27,1,-0.05,-0.028,0.085,-0.043,-0.011,0.057,-1.535,0.006,0.188,48.94,100.1,40.502781,-3.370012,601.4,3,5,237.3,0.352
50.37,1,-0.041,-0.013,0.058,-0.032,-0.018,0.065,-1.536,0.005,0.187,48.94,100.1,40.502781,-3.370012,601.4,3,5,237.3,0.352
50.47,1,0.007,-0.029,0.027,-0.012,-0.022,0.051,-1.538,0.006,0.187,49.95,96.2,40.502651,-3.370281,601.1,3,5,237.3,0.352
50.57,1,0.023,-0.009,0.046,0.0,-0.019,0.042,-1.541,0.007,0.187,49.95,96.2,40.502651,-3.370281,601.1,3,5,237.3,0.352
50.69,1,-0.081,-0.023,0.022,-0.03,-0.015,0.035,-1.544,0.01,0.186,49.95,96.2,40.502651,-3.370281,601.1,3,5,237.3,0.352
50.77,1,0.027,-0.033,0.061,-0.014,-0.026,0.037,-1.547,0.011,0.186,49.95,96.2,40.502651,-3.370281,601.1,3,5,237.3,0.352
50.87,1,-0.074,-0.019,0.039,-0.024,-0.024,0.049,-1.551,0.011,0.186,49.95,96.2,40.502651,-3.370281,601.1,3,5,237.3,0.352
50.97,1,-0.083,-0.035,0.026,-0.079,-0.03,0.036,-1.555,0.014,0.186,49.95,96.2,40.502651,-3.370281,601.1,3,5,237.3,0.352
51.07,1,0.004,0.01,0.029,-0.024,-0.012,0.034,-1.56,0.016,0.185,49.95,96.2,40.502651,-3.370281,601.1,3,5,237.3,0.352
51.18,1,-0.015,0.032,0.047,-0.023,0.008,0.036,-1.565,0.013,0.184,49.95,96.2,40.502651,-3.370281,601.1,3,5,237.3,0.352
51.27,1,-0.047,0.03,0.019,-0.025,0.023,0.036,-1.572,0.011,0.182,49.95,96.2,40.502651,-3.370281,601.1,3,5,237.3,0.352
51.39,1,-0.014,0.012,-0.006,-0.037,0.02,0.014,-1.573,0.01,0.181,49.95,96.2,40.502651,-3.370281,601.1,3,5,237.3,0.352
51.47,1,0.016,-0.011,-0.022,-0.009,0.007,-0.009,-1.574,0.011,0.181,50.96,98.7,40.502525,-3.370551,600.9,3,5,237.3,0.0
51.57,1,0.012,-0.036,-0.036,0.018,-0.015,-0.019,-1.571,0.015,0.182,50.96,98.7,40.502525,-3.370551,600.9,3,5,237.3,0.0
51.67,1,0.027,-0.034,-0.06,0.004,-0.027,-0.045,-1.566,0.019,0.184,50.96,98.7,40.502525,-3.370551,600.9,3,5,237.3,0.0
51.79,1,0.025,-0.04,-0.067,0.032,-0.033,-0.056,-1.562,0.021,0.184,50.96,98.7,40.502525,-3.370551,600.9,3,5,237.3,0.0
51.88,1,-0.037,-0.035,-0.048,-0.005,-0.038,-0.055,-1.559,0.025,0.184,50.96,98.7,40.502525,-3.370551,600.9,3,5,237.3,0.0
51.98,1,-0.034,-0.007,-0.028,-0.022,-0.022,-0.043,-1.557,0.026,0.184,50.96,98.7,40.502525,-3.370551,600.9,3,5,237.3,0.0
52.08,1,0.039,-0.036,-0.025,-0.001,-0.026,-0.034,-1.556,0.026,0.184,50.96,98.7,40.502525,-3.370551,600.9,3,5,237.3,0.0
52.17,1,-0.0,-0.028,-0.072,0.01,-0.03,-0.045,-1.552,0.026,0.184,50.96,98.7,40.502525,-3.370551,600.9,3,5,237.3,0.0
52.27,1,0.04,0.005,-0.04,0.02,-0.013,-0.049,-1.549,0.026,0.185,50.96,98.7,40.502525,-3.370551,600.9,3,5,237.3,0.0
52.38,1,-0.036,-0.007,-0.063,0.005,-0.009,-0.059,-1.548,0.027,0.185,50.96,98.7,40.502525,-3.370551,600.9,3,5,237.3,0.0
52.47,1,-0.03,-0.033,-0.004,-0.039,-0.012,-0.032,-1.547,0.029,0.185,51.95,99.6,40.502392,-3.370818,600.9,4,5,237.3,0.0
52.58,1,0.005,-0.009,0.027,-0.005,-0.02,0.0,-1.554,0.028,0.186,51.95,99.6,40.502392,-3.370818,600.9,4,5,237.3,0.0
52.67,1,-0.062,-0.0,0.028,-0.033,-0.008,0.009,-1.558,0.032,0.186,51.95,99.6,40.502392,-3.370818,600.9,4,5,237.3,0.0
52.77,1,0.006,-0.019,0.032,-0.014,-0.016,0.034,-1.565,0.036,0.187,51.95,99.6,40.502392,-3.370818,600.9,4,5,237.3,0.0
52.87,1,-0.038,-0.002,0.039,-0.022,-0.005,0.033,-1.567,0.034,0.188,51.95,99.6,40.502392,-3.370818,600.9,4,5,237.3,0.0
52.98,1,-0.01,-0.037,0.009,-0.007,-0.018,0.026,-1.569,0.033,0.189,51.95,99.6,40.502392,-3.370818,600.9,4,5,237.3,0.0
53.07,1,-0.028,-0.058,0.014,-0.043,-0.034,0.007,-1.569,0.037,0.191,51.95,99.6,40.502392,-3.370818,600.9,4,5,237.3,0.0
53.18,1,0.099,-0.05,0.095,0.029,-0.05,0.054,-1.569,0.042,0.194,51.95,99.6,40.502392,-3.370818,600.9,4,5,237.3,0.0
53.27,1,0.041,-0.055,0.022,0.043,-0.06,0.054,-1.568,0.048,0.196,51.95,99.6,40.502392,-3.370818,600.9,4,5,237.3,0.0
53.37,1,0.001,-0.06,0.014,0.041,-0.058,0.025,-1.566,0.055,0.198,51.95,99.6,40.502392,-3.370818,600.9,4,5,237.3,0.0
53.47,1,0.006,0.031,0.0,0.02,-0.017,0.011,-1.568,0.052,0.2,52.96,100.4,40.502262,-3.371092,601.0,4,5,237.0,0.352
53.57,1,-0.061,-0.009,0.049,-0.018,0.0,0.021,-1.572,0.056,0.202,52.96,100.4,40.502262,-3.371092,601.0,4,5,237.0,0.352
53.67,1,-0.011,-0.073,-0.002,-0.025,-0.044,0.023,-1.574,0.06,0.204,52.96,100.4,40.502262,-3.371092,601.0,4,5,237.0,0.352
53.79,1,-0.016,-0.005,-0.001,-0.024,-0.031,0.011,-1.575,0.06,0.205,52.96,100.4,40.502262,-3.371092,601.0,4,5,237.0,0.352
53.88,1,-0.039,0.042,-0.007,-0.035,0.009,-0.007,-1.571,0.054,0.203,52.96,100.4,40.502262,-3.371092,601.0,4,5,237.0,0.352
53.98,1,0.019,0.036,0.012,-0.003,0.026,0.003,-1.573,0.05,0.203,52.96,100.4,40.502262,-3.371092,601.0,4,5,237.0,0.352
54.08,1,-0.006,0.03,0.014,-0.003,0.034,0.007,-1.576,0.046,0.203,52.96,100.4,40.502262,-3.371092,601.0,4,5,237.0,0.352
54.18,1,0.018,-0.0,0.022,0.011,0.019,0.023,-1.579,0.043,0.204,52.96,100.4,40.502262,-3.371092,601.0,4,5,237.0,0.352
54.28,1,0.014,0.013,0.024,0.005,0.01,0.017,-1.58,0.041,0.204,52.96,100.4,40.502262,-3.371092,601.0,4,5,237.0,0.352
54.38,1,-0.041,-0.003,-0.001,-0.003,0.007,0.01,-1.582,0.039,0.204,52.96,100.4,40.502262,-3.371092,601.0,4,5,237.0,0.352
54.49,1,-0.025,-0.01,0.003,-0.025,-0.002,0.008,-1.581,0.036,0.205,54.0,101.3,40.502117,-3.371366,601.4,4,5,236.6,0.703
54.58,1,-0.02,0.026,0.006,-0.016,0.008,0.001,-1.58,0.034,0.205,54.0,101.3,40.502117,-3.371366,601.4,4,5,236.6,0.703
54.68,1,0.008,0.022,0.003,-0.022,0.014,0.006,-1.58,0.031,0.204,54.0,101.3,40.502117,-3.371366,601.4,4,5,236.6,0.703
54.78,1,-0.025,0.038,0.006,-0.001,0.028,0.012,-1.583,0.03,0.203,54.0,101.3,40.502117,-3.371366,601.4,4,5,236.6,0.703
54.88,1,-0.025,0.039,0.023,-0.026,0.039,0.011,-1.587,0.028,0.202,54.0,101.3,40.502117,-3.371366,601.4,4,5,236.6,0.703
54.98,1,-0.009,0.051,0.006,-0.019,0.035,0.008,-1.589,0.025,0.201,54.0,101.3,40.502117,-3.371366,601.4,4,5,236.6,0.703
55.09,1,0.003,0.052,0.014,-0.006,0.05,0.015,-1.591,0.02,0.198,54.0,101.3,40.502117,-3.371366,601.4,4,5,236.6,0.703
55.19,1,-0.021,0.048,-0.014,-0.019,0.05,0.001,-1.589,0.015,0.196,54.0,101.3,40.502117,-3.371366,601.4,4,5,236.6,0.703
55.28,1,-0.023,0.079,0.008,-0.006,0.064,-0.001,-1.587,0.009,0.192,54.0,101.3,40.502117,-3.371366,601.4,4,5,236.6,0.703
55.38,1,0.048,0.099,0.012,0.012,0.075,0.01,-1.588,0.002,0.189,54.0,101.3,40.502117,-3.371366,601.4,4,5,236.6,0.703
55.49,1,0.03,0.083,0.005,0.019,0.086,0.005,-1.585,-0.006,0.186,54.97,102.4,40.50198,-3.371644,600.6,4,5,235.2,1.758
55.58,1,0.017,0.07,0.025,0.023,0.082,0.015,-1.584,-0.01,0.183,54.97,102.4,40.50198,-3.371644,600.6,4,5,235.2,1.758
55.69,1,0.051,0.061,0.012,0.029,0.071,0.012,-1.583,-0.013,0.18,54.97,102.4,40.50198,-3.371644,600.6,4,5,235.2,1.758
55.78,1,-0.012,0.019,0.01,0.019,0.046,0.012,-1.584,-0.013,0.178,54.97,102.4,40.50198,-3.371644,600.6,4,5,235.2,1.758
55.88,1,-0.036,0.018,-0.023,-0.004,0.03,0.003,-1.585,-0.013,0.177,54.97,102.4,40.50198,-3.371644,600.6,4,5,235.2,1.758
55.98,1,-0.08,-0.023,0.032,-0.049,0.009,0.002,-1.586,-0.011,0.176,54.97,102.4,40.50198,-3.371644,600.6,4,5,235.2,1.758
56.08,1,-0.067,-0.053,-0.02,-0.063,-0.026,0.004,-1.587,-0.012,0.175,54.97,102.4,40.50198,-3.371644,600.6,4,5,235.2,1.758
56.19,1,-0.039,0.011,0.009,-0.045,-0.022,0.0,-1.587,-0.018,0.173,54.97,102.4,40.50198,-3.371644,600.6,4,5,235.2,1.758
56.29,1,0.031,0.029,-0.013,-0.019,0.01,-0.001,-1.587,-0.02,0.171,54.97,102.4,40.50198,-3.371644,600.6,4,5,235.2,1.758
56.39,1,-0.02,0.013,0.009,-0.012,0.016,-0.006,-1.589,-0.02,0.169,54.97,102.4,40.50198,-3.371644,600.6,4,5,235.2,1.758
56.48,1,-0.04,0.017,-0.011,-0.018,0.015,-0.0,-1.591,-0.019,0.167,55.95,104.0,40.501827,-3.371927,600.4,3,5,235.2,1.406
56.58,1,0.024,0.018,0.012,-0.005,0.016,0.003,-1.59,-0.021,0.165,55.95,104.0,40.501827,-3.371927,600.4,3,5,235.2,1.406
56.69,1,-0.033,0.014,-0.011,-0.024,0.014,-0.004,-1.587,-0.023,0.163,55.95,104.0,40.501827,-3.371927,600.4,3,5,235.2,1.406
56.78,1,-0.046,0.016,0.0,-0.024,0.02,-0.002,-1.587,-0.025,0.161,55.95,104.0,40.501827,-3.371927,600.4,3,5,235.2,1.406
56.88,1,0.012,0.014,0.008,-0.018,0.013,0.003,-1.589,-0.028,0.159,55.95,104.0,40.501827,-3.371927,600.4,3,5,235.2,1.406
57.09,1,-0.038,-0.027,0.014,-0.019,0.001,0.006,-1.588,-0.03,0.155,55.95,104.0,40.501827,-3.371927,600.4,3,5,235.2,1.406
57.19,1,0.014,-0.007,0.019,-0.017,-0.014,0.018,-1.59,-0.026,0.154,55.95,104.0,40.501827,-3.371927,600.4,3,5,235.2,1.406
57.29,1,-0.015,-0.039,-0.007,-0.01,-0.02,0.004,-1.589,-0.025,0.153,55.95,104.0,40.501827,-3.371927,600.4,3,5,235.2,1.406
57.39,1,0.0,-0.065,0.025,-0.003,-0.043,0.009,-1.587,-0.021,0.153,55.95,104.0,40.501827,-3.371927,600.4,3,5,235.2,1.406
57.49,1,-0.012,-0.034,0.01,-0.008,-0.047,0.015,-1.591,-0.018,0.153,55.95,104.0,40.501827,-3.371927,600.4,3,5,235.2,1.406
57.59,1,-0.003,-0.032,0.01,-0.003,-0.035,0.01,-1.591,-0.016,0.153,56.95,104.9,40.501686,-3.372201,600.7,3,5,235.9,0.703
57.68,1,0.001,-0.036,0.005,-0.002,-0.037,0.012,-1.593,-0.012,0.152,56.95,104.9,40.501686,-3.372201,600.7,3,5,235.9,0.703
57.79,1,0.011,-0.011,-0.026,0.013,-0.025,-0.005,-1.591,-0.011,0.152,56.95,104.9,40.501686,-3.372201,600.7,3,5,235.9,0.703
57.89,1,-0.037,0.022,-0.006,-0.02,-0.005,-0.016,-1.591,-0.014,0.151,56.95,104.9,40.501686,-3.372201,600.7,3,5,235.9,0.703
57.99,1,-0.054,-0.009,0.039,-0.046,0.001,0.008,-1.591,-0.015,0.149,56.95,104.9,40.501686,-3.372201,600.7,3,5,235.9,0.703
58.1,1,-0.021,-0.008,0.015,-0.021,0.001,0.022,-1.594,-0.015,0.148,56.95,104.9,40.501686,-3.372201,600.7,3,5,235.9,0.703
58.19,1,-0.012,0.012,-0.01,-0.023,-0.003,0.008,-1.595,-0.014,0.147,56.95,104.9,40.501686,-3.372201,600.7,3,5,235.9,0.703
58.29,1,-0.042,-0.007,-0.012,-0.028,-0.004,-0.003,-1.594,-0.012,0.146,56.95,104.9,40.501686,-3.372201,600.7,3,5,235.9,0.703
58.39,1,0.003,-0.002,0.012,-0.023,-0.0,-0.002,-1.595,-0.012,0.145,56.95,104.9,40.501686,-3.372201,600.7,3,5,235.9,0.703
58.49,1,0.03,-0.033,0.013,0.002,-0.016,0.006,-1.596,-0.009,0.144,56.95,104.9,40.501686,-3.372201,600.7,3,5,235.9,0.703
58.6,1,-0.035,0.002,-0.017,0.003,-0.008,-0.0,-1.596,-0.01,0.142,57.96,106.9,40.501541,-3.372484,600.8,3,5,236.6,1.406
58.69,1,-0.092,-0.016,-0.016,-0.037,-0.013,-0.003,-1.596,-0.009,0.142,57.96,106.9,40.501541,-3.372484,600.8,3,5,236.6,1.406
58.79,1,0.003,0.023,-0.003,-0.042,0.002,-0.014,-1.596,-0.01,0.141,57.96,106.9,40.501541,-3.372484,600.8,3,5,236.6,1.406
58.89,1,0.042,-0.019,0.04,-0.006,-0.007,0.005,-1.595,-0.008,0.14,57.96,106.9,40.501541,-3.372484,600.8,3,5,236.6,1.406
58.99,1,0.025,-0.021,0.008,0.025,-0.006,0.021,-1.594,-0.007,0.139,57.96,106.9,40.501541,-3.372484,600.8,3,5,236.6,1.406
59.09,1,0.032,0.001,0.008,0.022,-0.004,0.01,-1.592,-0.01,0.138,57.96,106.9,40.501541,-3.372484,600.8,3,5,236.6,1.406
59.19,1,-0.072,0.007,-0.017,-0.001,-0.003,0.003,-1.59,-0.014,0.137,57.96,106.9,40.501541,-3.372484,600.8,3,5,236.6,1.406
59.3,1,-0.053,-0.009,0.012,-0.039,0.001,0.002,-1.592,-0.014,0.137,57.96,106.9,40.501541,-3.372484,600.8,3,5,236.6,1.406
59.4,1,-0.06,-0.0,0.007,-0.05,-0.009,0.004,-1.593,-0.015,0.136,57.96,106.9,40.501541,-3.372484,600.8,3,5,236.6,1.406
59.5,1,-0.028,-0.019,-0.005,-0.052,-0.008,0.001,-1.592,-0.016,0.135,57.96,106.9,40.501541,-3.372484,600.8,3,5,236.6,1.406
59.59,1,0.106,-0.015,0.018,0.013,-0.017,0.01,-1.59,-0.017,0.134,59.13,109.1,40.501247,-3.373082,602.2,3,5,237.0,1.055
59.7,1,0.02,-0.018,-0.001,0.04,-0.018,0.005,-1.591,-0.017,0.133,59.13,109.1,40.501247,-3.373082,602.2,3,5,237.0,1.055
59.79,1,-0.063,0.005,-0.004,-0.003,0.004,-0.009,-1.588,-0.021,0.132,59.13,109.1,40.501247,-3.373082,602.2,3,5,237.0,1.055
59.89,1,-0.053,0.001,0.009,-0.033,0.0,0.007,-1.591,-0.021,0.132,59.13,109.1,40.501247,-3.373082,602.2,3,5,237.0,1.055
59.99,1,-0.035,-0.004,-0.001,-0.046,-0.015,0.008,-1.591,-0.017,0.132,59.13,109.1,40.501247,-3.373082,602.2,3,5,237.0,1.055
60.09,1,-0.031,-0.017,-0.013,-0.032,-0.007,-0.008,-1.59,-0.018,0.132,59.13,109.1,40.501247,-3.373082,602.2,3,5,237.0,1.055
60.2,1,-0.008,-0.012,-0.017,-0.034,-0.006,-0.015,-1.59,-0.019,0.131,59.13,109.1,40.501247,-3.373082,602.2,3,5,237.0,1.055
60.29,1,-0.018,-0.003,-0.004,-0.007,-0.013,-0.007,-1.591,-0.02,0.13,59.13,109.1,40.501247,-3.373082,602.2,3,5,237.0,1.055
60.39,1,-0.029,0.003,-0.008,-0.025,0.001,-0.01,-1.592,-0.019,0.129,59.13,109.1,40.501247,-3.373082,602.2,3,5,237.0,1.055
60.49,1,-0.019,-0.046,0.013,-0.022,-0.016,-0.001,-1.592,-0.009,0.13,59.13,109.1,40.501247,-3.373082,602.2,3,5,237.0,1.055
60.59,1,-0.006,-0.017,0.013,-0.01,-0.021,0.008,-1.591,-0.005,0.13,59.94,109.1,40.501247,-3.373082,602.2,3,5,237.0,0.352
60.7,1,-0.011,0.007,-0.018,-0.003,-0.011,0.005,-1.591,-0.006,0.129,59.94,109.1,40.501247,-3.373082,602.2,3,5,237.0,0.352
60.81,1,-0.049,-0.021,0.001,-0.037,-0.01,-0.011,-1.59,-0.007,0.128,59.94,109.1,40.501247,-3.373082,602.2,3,5,237.0,0.352
60.89,1,0.003,-0.013,-0.009,-0.029,-0.017,-0.008,-1.591,-0.005,0.127,59.94,109.1,40.501247,-3.373082,602.2,3,5,237.0,0.352
60.99,1,-0.009,0.0,0.009,-0.01,-0.012,0.005,-1.592,0.001,0.127,59.94,109.1,40.501247,-3.373082,602.2,3,5,237.0,0.352
61.09,1,0.012,0.023,-0.018,0.007,0.007,-0.009,-1.593,0.008,0.127,59.94,109.1,40.501247,-3.373082,602.2,3,5,237.0,0.352
61.19,1,-0.032,-0.024,0.004,-0.011,0.003,0.0,-1.594,0.011,0.126,59.94,109.1,40.501247,-3.373082,602.2,3,5,237.0,0.352
61.3,1,0.002,-0.006,-0.025,-0.008,-0.011,-0.012,-1.59,0.012,0.126,59.94,109.1,40.501247,-3.373082,602.2,3,5,237.0,0.352
61.4,1,0.005,0.002,-0.018,0.002,-0.002,-0.012,-1.587,0.01,0.125,59.94,109.1,40.501247,-3.373082,602.2,3,5,237.0,0.352
61.49,1,-0.016,-0.008,-0.03,-0.006,-0.006,-0.023,-1.582,0.008,0.126,59.94,109.1,40.501247,-3.373082,602.2,3,5,237.0,0.352
61.6,1,-0.015,-0.054,0.024,-0.017,-0.012,-0.011,-1.58,0.013,0.127,60.96,111.9,40.501091,-3.373388,601.1,3,5,237.0,0.0
61.7,1,0.059,-0.019,0.017,0.004,-0.042,0.017,-1.58,0.014,0.127,60.96,111.9,40.501091,-3.373388,601.1,3,5,237.0,0.0
61.8,1,-0.058,0.034,-0.003,0.006,-0.015,0.001,-1.579,0.012,0.126,60.96,111.9,40.501091,-3.373388,601.1,3,5,237.0,0.0
61.9,1,-0.035,0.014,-0.051,-0.03,0.015,-0.025,-1.579,0.011,0.126,60.96,111.9,40.501091,-3.373388,601.1,3,5,237.0,0.0
62.0,1,-0.041,-0.036,-0.004,-0.039,-0.009,-0.019,-1.58,0.013,0.126,60.96,111.9,40.501091,-3.373388,601.1,3,5,237.0,0.0
62.1,1,0.05,0.002,0.006,-0.0,-0.008,-0.003,-1.58,0.012,0.127,60.96,111.9,40.501091,-3.373388,601.1,3,5,237.0,0.0
62.2,1,0.018,0.001,-0.013,0.024,0.007,-0.005,-1.578,0.01,0.126,60.96,111.9,40.501091,-3.373388,601.1,3,5,237.0,0.0
62.3,1,0.009,0.018,-0.001,0.014,-0.001,-0.001,-1.577,0.006,0.125,60.96,111.9,40.501091,-3.373388,601.1,3,5,237.0,0.0
62.4,1,0.024,-0.004,-0.009,0.018,0.006,-0.009,-1.579,0.004,0.125,60.96,111.9,40.501091,-3.373388,601.1,3,5,237.0,0.0
62.5,1,-0.044,0.004,0.019,-0.007,0.009,0.007,-1.582,0.0,0.125,60.96,111.9,40.501091,-3.373388,601.1,3,5,237.0,0.0
62.61,1,-0.073,-0.003,-0.035,-0.042,0.008,-0.011,-1.583,0.005,0.125,61.95,113.1,40.500938,-3.373698,600.1,3,5,237.3,0.352
62.7,1,-0.003,-0.052,0.028,-0.041,-0.023,0.001,-1.584,0.006,0.125,61.95,113.1,40.500938,-3.373698,600.1,3,5,237.3,0.352
62.8,1,-0.01,-0.021,0.007,-0.017,-0.033,0.015,-1.584,0.005,0.125,61.95,113.1,40.500938,-3.373698,600.1,3,5,237.3,0.352
62.9,1,-0.012,0.028,-0.013,-0.011,0.001,-0.005,-1.584,0.003,0.125,61.95,113.1,40.500938,-3.373698,600.1,3,5,237.3,0.352
63.01,1,-0.034,-0.002,0.018,-0.022,0.008,-0.002,-1.585,0.003,0.126,61.95,113.1,40.500938,-3.373698,600.1,3,5,237.3,0.352
63.1,1,-0.005,-0.008,-0.015,-0.009,-0.01,0.007,-1.581,0.004,0.126,61.95,113.1,40.500938,-3.373698,600.1,3,5,237.3,0.352
63.2,1,-0.036,-0.015,0.001,-0.021,-0.008,-0.002,-1.581,0.009,0.127,61.95,113.1,40.500938,-3.373698,600.1,3,5,237.3,0.352
63.3,1,-0.017,-0.062,0.036,-0.027,-0.032,0.009,-1.583,0.009,0.127,61.95,113.1,40.500938,-3.373698,600.1,3,5,237.3,0.352
63.4,1,0.022,0.004,0.047,0.004,-0.029,0.034,-1.582,0.009,0.126,61.95,113.1,40.500938,-3.373698,600.1,3,5,237.3,0.352
63.5,1,0.02,0.018,0.0,0.006,-0.003,0.021,-1.581,0.009,0.126,61.95,113.1,40.500938,-3.373698,600.1,3,5,237.3,0.352
63.6,1,-0.028,0.004,-0.03,-0.009,0.005,-0.007,-1.581,0.009,0.126,62.95,114.3,40.50079,-3.37401,600.9,3,5,237.7,0.703
63.7,1,-0.014,-0.007,-0.001,-0.018,-0.002,-0.008,-1.584,0.005,0.126,62.95,114.3,40.50079,-3.37401,600.9,3,5,237.7,0.703
63.81,1,-0.016,0.011,0.025,-0.014,0.009,0.007,-1.585,0.005,0.125,62.95,114.3,40.50079,-3.37401,600.9,3,5,237.7,0.703
63.9,1,0.001,-0.023,0.009,-0.007,-0.008,0.022,-1.582,0.009,0.125,62.95,114.3,40.50079,-3.37401,600.9,3,5,237.7,0.703
64.0,1,0.036,0.009,-0.022,0.012,-0.008,-0.002,-1.58,0.012,0.125,62.95,114.3,40.50079,-3.37401,600.9,3,5,237.7,0.703
64.11,1,-0.03,0.017,-0.016,0.005,0.01,-0.014,-1.58,0.007,0.125,62.95,114.3,40.50079,-3.37401,600.9,3,5,237.7,0.703
64.2,1,-0.0,-0.013,0.017,-0.015,0.009,-0.002,-1.581,0.005,0.125,62.95,114.3,40.50079,-3.37401,600.9,3,5,237.7,0.703
64.3,1,-0.005,-0.01,0.042,0.0,-0.004,0.018,-1.577,0.009,0.125,62.95,114.3,40.50079,-3.37401,600.9,3,5,237.7,0.703
64.41,1,0.004,0.02,0.008,0.0,0.004,0.025,-1.577,0.014,0.125,62.95,114.3,40.50079,-3.37401,600.9,3,5,237.7,0.703
64.51,1,-0.072,-0.029,0.009,-0.017,-0.007,0.013,-1.577,0.012,0.125,62.95,114.3,40.50079,-3.37401,600.9,3,5,237.7,0.703
64.61,1,-0.048,0.009,-0.023,-0.054,-0.007,-0.004,-1.577,0.01,0.125,63.97,116.9,40.500629,-3.374323,603.9,3,5,237.3,0.352
64.7,1,-0.013,-0.026,0.008,-0.039,-0.006,-0.002,-1.577,0.01,0.125,63.97,116.9,40.500629,-3.374323,603.9,3,5,237.3,0.352
64.81,1,-0.013,-0.015,0.023,-0.021,-0.017,0.01,-1.58,0.01,0.126,63.97,116.9,40.500629,-3.374323,603.9,3,5,237.3,0.352
64.9,1,-0.007,-0.016,-0.002,-0.021,-0.015,0.005,-1.584,0.009,0.126,63.97,116.9,40.500629,-3.374323,603.9,3,5,237.3,0.352
65.01,1,0.032,-0.004,-0.004,0.011,-0.011,-0.002,-1.585,0.009,0.126,63.97,116.9,40.500629,-3.374323,603.9,3,5,237.3,0.352
65.11,1,0.048,0.033,0.019,0.038,0.009,0.012,-1.588,0.013,0.126,63.97,116.9,40.500629,-3.374323,603.9,3,5,237.3,0.352
65.21,1,0.017,-0.014,-0.023,0.027,0.003,-0.004,-1.587,0.016,0.127,63.97,116.9,40.500629,-3.374323,603.9,3,5,237.3,0.352
65.3,1,0.033,-0.003,-0.005,0.026,-0.003,-0.012,-1.588,0.017,0.127,63.97,116.9,40.500629,-3.374323,603.9,3,5,237.3,0.352
65.4,1,0.034,-0.016,0.01,0.032,-0.007,0.002,-1.592,0.017,0.127,63.97,116.9,40.500629,-3.374323,603.9,3,5,237.3,0.352
65.52,1,-0.036,0.009,-0.005,0.004,-0.006,-0.001,-1.593,0.015,0.127,63.97,116.9,40.500629,-3.374323,603.9,3,5,237.3,0.352
65.61,1,-0.006,-0.003,0.025,-0.004,-0.001,0.015,-1.595,0.012,0.127,65.02,117.3,40.500465,-3.374644,602.7,3,5,237.3,0.352
65.71,1,-0.013,-0.011,0.009,-0.016,-0.002,0.008,-1.591,0.012,0.127,65.02,117.3,40.500465,-3.374644,602.7,3,5,237.3,0.352
65.81,1,-0.0,-0.0,-0.014,-0.008,-0.004,0.002,-1.59,0.013,0.127,65.02,117.3,40.500465,-3.374644,602.7,3,5,237.3,0.352
65.91,1,-0.014,0.003,-0.003,-0.01,0.001,-0.005,-1.586,0.013,0.127,65.02,117.3,40.500465,-3.374644,602.7,3,5,237.3,0.352
66.01,1,-0.021,0.014,-0.004,-0.017,0.008,-0.008,-1.586,0.012,0.127,65.02,117.3,40.500465,-3.374644,602.7,3,5,237.3,0.352
66.11,1,-0.045,0.011,-0.002,-0.028,0.009,-0.004,-1.585,0.011,0.127,65.02,117.3,40.500465,-3.374644,602.7,3,5,237.3,0.352
66.21,1,-0.052,-0.002,0.02,-0.034,0.001,0.01,-1.585,0.01,0.127,65.02,117.3,40.500465,-3.374644,602.7,3,5,237.3,0.352
66.31,1,-0.009,0.007,0.001,-0.032,0.003,0.006,-1.586,0.01,0.127,65.02,117.3,40.500465,-3.374644,602.7,3,5,237.3,0.352
66.41,1,-0.0,0.015,0.025,-0.017,0.009,0.014,-1.586,0.01,0.127,65.02,117.3,40.500465,-3.374644,602.7,3,5,237.3,0.352
66.51,1,-0.025,0.016,-0.003,-0.013,0.015,0.01,-1.585,0.009,0.126,65.02,117.3,40.500465,-3.374644,602.7,3,5,237.3,0.352
66.61,1,-0.017,0.007,0.032,-0.024,0.016,0.016,-1.584,0.007,0.126,65.95,119.2,40.500305,-3.374967,601.2,3,5,237.0,0.352
66.72,1,-0.047,0.006,-0.013,-0.025,0.004,0.012,-1.585,0.005,0.126,65.95,119.2,40.500305,-3.374967,601.2,3,5,237.0,0.352
66.81,1,-0.066,-0.008,-0.016,-0.047,0.002,-0.008,-1.587,0.006,0.126,65.95,119.2,40.500305,-3.374967,601.2,3,5,237.0,0.352
66.92,1,-0.011,-0.02,-0.005,-0.034,-0.012,-0.006,-1.583,0.005,0.127,65.95,119.2,40.500305,-3.374967,601.2,3,5,237.0,0.352
67.11,1,-0.032,-0.002,-0.033,-0.031,-0.014,-0.035,-1.58,0.009,0.127,65.95,119.2,40.500305,-3.374967,601.2,3,5,237.0,0.352
67.21,1,0.022,-0.002,-0.054,-0.009,-0.003,-0.035,-1.577,0.006,0.128,65.95,119.2,40.500305,-3.374967,601.2,3,5,237.0,0.352
67.31,1,-0.029,-0.0,-0.051,-0.004,-0.008,-0.044,-1.574,0.006,0.127,65.95,119.2,40.500305,-3.374967,601.2,3,5,237.0,0.352
67.41,1,0.033,-0.05,-0.01,0.002,-0.017,-0.043,-1.57,0.005,0.127,65.95,119.2,40.500305,-3.374967,601.2,3,5,237.0,0.352
67.51,1,0.069,0.012,-0.003,0.024,-0.016,-0.012,-1.569,0.007,0.127,65.95,119.2,40.500305,-3.374967,601.2,3,5,237.0,0.352
67.62,1,0.013,0.004,-0.022,0.044,-0.001,-0.012,-1.568,0.008,0.127,65.95,119.2,40.500305,-3.374967,601.2,3,5,237.0,0.352
67.71,1,-0.075,-0.017,-0.018,0.001,-0.009,-0.014,-1.563,0.008,0.127,66.95,120.4,40.500134,-3.375293,600.7,3,5,236.6,0.703
67.81,1,-0.041,0.021,-0.008,-0.049,0.004,-0.017,-1.56,0.008,0.127,66.95,120.4,40.500134,-3.375293,600.7,3,5,236.6,0.703
67.91,1,0.011,-0.007,0.007,-0.019,0.002,-0.003,-1.555,0.005,0.127,66.95,120.4,40.500134,-3.375293,600.7,3,5,236.6,0.703
68.01,1,0.008,-0.01,-0.01,-0.007,-0.005,-0.008,-1.553,0.003,0.127,66.95,120.4,40.500134,-3.375293,600.7,3,5,236.6,0.703
68.11,1,0.026,-0.001,-0.019,0.009,-0.004,-0.009,-1.555,0.006,0.127,66.95,120.4,40.500134,-3.375293,600.7,3,5,236.6,0.703
68.21,1,0.019,-0.015,-0.027,0.016,-0.014,-0.021,-1.553,0.01,0.127,66.95,120.4,40.500134,-3.375293,600.7,3,5,236.6,0.703
68.31,1,0.002,-0.009,-0.043,0.017,-0.007,-0.031,-1.549,0.012,0.127,66.95,120.4,40.500134,-3.375293,600.7,3,5,236.6,0.703
68.41,1,-0.001,-0.022,-0.001,0.005,-0.018,-0.017,-1.547,0.015,0.128,66.95,120.4,40.500134,-3.375293,600.7,3,5,236.6,0.703
68.51,1,-0.006,0.023,-0.05,-0.004,-0.004,-0.029,-1.542,0.014,0.128,66.95,120.4,40.500134,-3.375293,600.7,3,5,236.6,0.703
68.62,1,-0.082,0.029,-0.046,-0.035,0.018,-0.044,-1.538,0.013,0.128,66.95,120.4,40.500134,-3.375293,600.7,3,5,236.6,0.703
68.71,1,0.056,0.001,0.019,-0.017,0.016,-0.014,-1.536,0.012,0.128,67.95,120.0,40.499962,-3.375629,600.5,3,5,237.0,0.352
68.83,1,0.029,-0.003,0.032,0.03,0.0,0.008,-1.536,0.011,0.128,67.95,120.0,40.499962,-3.375629,600.5,3,5,237.0,0.352
68.92,1,-0.047,0.002,-0.028,-0.003,0.004,-0.003,-1.536,0.011,0.128,67.95,120.0,40.499962,-3.375629,600.5,3,5,237.0,0.352
69.01,1,-0.062,0.0,-0.011,-0.039,-0.001,-0.004,-1.539,0.01,0.128,67.95,120.0,40.499962,-3.375629,600.5,3,5,237.0,0.352
69.11,1,0.009,-0.015,0.003,-0.024,-0.003,-0.01,-1.538,0.009,0.128,67.95,120.0,40.499962,-3.375629,600.5,3,5,237.0,0.352
69.21,1,-0.102,0.019,-0.012,-0.046,0.003,0.003,-1.539,0.006,0.128,67.95,120.0,40.499962,-3.375629,600.5,3,5,237.0,0.352
69.31,1,0.051,-0.027,0.024,-0.019,-0.004,-0.003,-1.541,0.006,0.129,67.95,120.0,40.499962,-3.375629,600.5,3,5,237.0,0.352
69.41,1,0.022,-0.006,-0.023,0.011,-0.009,-0.004,-1.54,0.011,0.13,67.95,120.0,40.499962,-3.375629,600.5,3,5,237.0,0.352
69.52,1,0.097,0.003,-0.03,0.042,-0.005,-0.017,-1.537,0.014,0.131,67.95,120.0,40.499962,-3.375629,600.5,3,5,237.0,0.352
69.62,1,0.085,0.008,-0.004,0.08,0.002,-0.013,-1.532,0.011,0.131,67.95,120.0,40.499962,-3.375629,600.5,3,5,237.0,0.352
69.72,1,-0.016,0.025,0.028,0.036,0.009,0.001,-1.533,0.01,0.13,68.95,120.2,40.499798,-3.37596,600.0,3,5,237.0,0.352
69.82,1,-0.02,0.019,0.013,0.006,0.015,0.015,-1.534,0.005,0.129,68.95,120.2,40.499798,-3.37596,600.0,3,5,237.0,0.352
69.92,1,-0.058,-0.005,-0.015,-0.015,0.011,-0.002,-1.531,0.005,0.129,68.95,120.2,40.499798,-3.37596,600.0,3,5,237.0,0.352
70.02,1,-0.071,-0.032,-0.005,-0.061,-0.008,-0.007,-1.532,0.004,0.13,68.95,120.2,40.499798,-3.37596,600.0,3,5,237.0,0.352
70.12,1,-0.013,0.004,-0.003,-0.039,-0.011,0.007,-1.532,0.002,0.131,68.95,120.2,40.499798,-3.37596,600.0,3,5,237.0,0.352
70.22,1,0.085,-0.014,0.004,0.008,-0.003,-0.011,-1.532,0.005,0.131,68.95,120.2,40.499798,-3.37596,600.0,3,5,237.0,0.352
70.32,1,0.063,0.001,0.004,0.059,-0.007,0.0,-1.529,0.005,0.131,68.95,120.2,40.499798,-3.37596,600.0,3,5,237.0,0.352
70.42,1,0.014,0.027,-0.043,0.029,0.008,-0.007,-1.525,0.004,0.131,68.95,120.2,40.499798,-3.37596,600.0,3,5,237.0,0.352
70.53,1,-0.028,0.03,0.011,0.01,0.027,-0.015,-1.529,0.006,0.13,68.95,120.2,40.499798,-3.37596,600.0,3,5,237.0,0.352
70.62,1,-0.007,0.015,0.007,0.006,0.015,0.012,-1.53,0.008,0.13,68.95,120.2,40.499798,-3.37596,600.0,3,5,237.0,0.352
70.72,1,-0.091,-0.0,0.012,-0.047,0.012,0.0,-1.529,0.005,0.13,69.96,120.5,40.49963,-3.376286,599.9,3,5,236.2,0.703
70.82,1,-0.028,-0.032,0.009,-0.043,-0.014,0.007,-1.535,0.001,0.13,69.96,120.5,40.49963,-3.376286,599.9,3,5,236.2,0.703
70.92,1,0.023,0.01,-0.029,-0.018,-0.006,-0.006,-1.537,-0.003,0.13,69.96,120.5,40.49963,-3.376286,599.9,3,5,236.2,0.703
71.02,1,0.027,0.012,-0.018,0.006,0.009,-0.021,-1.537,-0.006,0.13,69.96,120.5,40.49963,-3.376286,599.9,3,5,236.2,0.703
71.12,1,0.006,0.011,-0.022,0.018,0.007,-0.015,-1.535,-0.004,0.129,69.96,120.5,40.49963,-3.376286,599.9,3,5,236.2,0.703
71.22,1,0.004,0.007,-0.023,0.006,0.007,-0.021,-1.536,-0.004,0.129,69.96,120.5,40.49963,-3.376286,599.9,3,5,236.2,0.703
71.32,1,-0.014,0.011,0.003,0.001,0.01,-0.011,-1.536,-0.002,0.129,69.96,120.5,40.49963,-3.376286,599.9,3,5,236.2,0.703
71.42,1,-0.005,-0.032,0.019,-0.004,-0.004,0.003,-1.536,0.006,0.129,69.96,120.5,40.49963,-3.376286,599.9,3,5,236.2,0.703
71.52,1,-0.024,0.009,-0.02,-0.014,-0.009,0.001,-1.534,0.007,0.129,69.96,120.5,40.49963,-3.376286,599.9,3,5,236.2,0.703
71.62,1,-0.018,-0.005,-0.018,-0.023,0.008,-0.016,-1.536,-0.001,0.129,69.96,120.5,40.49963,-3.376286,599.9,3,5,236.2,0.703
71.73,1,-0.049,-0.021,-0.023,-0.03,-0.017,-0.016,-1.537,-0.004,0.129,71.1,121.0,40.499298,-3.376943,599.1,3,5,236.2,0.703
71.82,1,-0.067,0.02,-0.001,-0.045,-0.003,-0.016,-1.538,-0.005,0.129,71.1,121.0,40.499298,-3.376943,599.1,3,5,236.2,0.703
71.92,1,0.022,0.029,-0.003,-0.026,0.014,-0.008,-1.537,-0.006,0.128,71.1,121.0,40.499298,-3.376943,599.1,3,5,236.2,0.703
72.02,1,0.039,-0.007,-0.033,0.014,0.017,-0.017,-1.533,-0.009,0.128,71.1,121.0,40.499298,-3.376943,599.1,3,5,236.2,0.703
72.12,1,0.016,-0.033,-0.024,0.011,-0.013,-0.024,-1.531,-0.006,0.127,71.1,121.0,40.499298,-3.376943,599.1,3,5,236.2,0.703
72.22,1,-0.062,0.027,0.004,-0.012,-0.003,-0.009,-1.533,-0.005,0.127,71.1,121.0,40.499298,-3.376943,599.1,3,5,236.2,0.703
72.32,1,-0.025,-0.008,0.015,-0.027,0.004,0.003,-1.535,-0.006,0.126,71.1,121.0,40.499298,-3.376943,599.1,3,5,236.2,0.703
72.42,1,-0.04,-0.001,0.053,-0.042,0.003,0.02,-1.54,-0.003,0.126,71.1,121.0,40.499298,-3.376943,599.1,3,5,236.2,0.703
72.52,1,0.053,-0.02,0.076,-0.005,-0.014,0.058,-1.548,-0.001,0.126,71.1,121.0,40.499298,-3.376943,599.1,3,5,236.2,0.703
72.62,1,-0.026,0.025,0.043,0.005,0.005,0.049,-1.552,0.002,0.126,71.1,121.0,40.499298,-3.376943,599.1,3,5,236.2,0.703
72.73,1,-0.035,-0.017,0.054,-0.017,-0.001,0.054,-1.554,0.002,0.125,71.96,121.0,40.499298,-3.376943,599.1,3,5,236.2,0.0
72.82,1,-0.014,0.001,0.043,-0.025,-0.007,0.044,-1.557,-0.002,0.124,71.96,121.0,40.499298,-3.376943,599.1,3,5,236.2,0.0
72.92,1,0.042,-0.028,0.023,0.002,-0.009,0.038,-1.558,-0.001,0.124,71.96,121.0,40.499298,-3.376943,599.1,3,5,236.2,0.0
73.03,1,0.026,-0.003,0.042,0.028,-0.013,0.038,-1.561,-0.002,0.124,71.96,121.0,40.499298,-3.376943,599.1,3,5,236.2,0.0
73.13,1,-0.006,0.022,0.009,0.017,0.005,0.029,-1.564,-0.005,0.123,71.96,121.0,40.499298,-3.376943,599.1,3,5,236.2,0.0
73.22,1,-0.072,0.021,0.047,-0.017,0.018,0.026,-1.568,-0.005,0.123,71.96,121.0,40.499298,-3.376943,599.1,3,5,236.2,0.0
73.32,1,-0.096,-0.07,0.115,-0.068,-0.022,0.077,-1.57,-0.004,0.124,71.96,121.0,40.499298,-3.376943,599.1,3,5,236.2,0.0
73.43,1,-0.07,-0.002,0.005,-0.063,-0.024,0.05,-1.57,-0.004,0.124,71.96,121.0,40.499298,-3.376943,599.1,3,5,236.2,0.0
73.52,1,-0.019,0.003,0.016,-0.057,-0.006,0.022,-1.571,-0.003,0.124,71.96,121.0,40.499298,-3.376943,599.1,3,5,236.2,0.0
73.64,1,0.059,-0.025,0.009,-0.009,-0.015,0.023,-1.575,0.001,0.124,71.96,121.0,40.499298,-3.376943,599.1,3,5,236.2,0.0
73.73,1,0.034,0.001,-0.025,0.026,-0.005,-0.006,-1.572,0.003,0.123,72.94,120.2,40.499134,-3.37726,599.5,3,5,236.2,0.0
73.84,1,0.002,-0.019,-0.069,0.02,-0.015,-0.032,-1.567,0.002,0.123,72.94,120.2,40.499134,-3.37726,599.5,3,5,236.2,0.0
73.93,1,-0.028,0.015,-0.06,-0.002,-0.001,-0.051,-1.564,0.001,0.122,72.94,120.2,40.499134,-3.37726,599.5,3,5,236.2,0.0
74.03,1,-0.057,-0.003,-0.032,-0.034,0.005,-0.051,-1.563,-0.0,0.122,72.94,120.2,40.499134,-3.37726,599.5,3,5,236.2,0.0
74.13,1,-0.075,0.003,-0.009,-0.055,-0.006,-0.032,-1.563,-0.002,0.122,72.94,120.2,40.499134,-3.37726,599.5,3,5,236.2,0.0
74.23,1,-0.074,0.019,-0.015,-0.071,0.011,-0.011,-1.564,-0.001,0.122,72.94,120.2,40.499134,-3.37726,599.5,3,5,236.2,0.0
74.34,1,0.007,0.002,-0.008,-0.038,0.011,-0.012,-1.563,-0.0,0.121,72.94,120.2,40.499134,-3.37726,599.5,3,5,236.2,0.0
74.45,1,0.066,0.002,-0.017,0.013,0.003,-0.016,-1.557,-0.002,0.121,72.94,120.2,40.499134,-3.37726,599.5,3,5,236.2,0.0
74.53,1,0.046,-0.006,0.008,0.052,0.003,-0.002,-1.554,0.0,0.121,72.94,120.2,40.499134,-3.37726,599.5,3,5,236.2,0.0
74.63,1,-0.02,-0.004,0.036,0.019,-0.006,0.017,-1.551,-0.0,0.12,72.94,120.2,40.499134,-3.37726,599.5,3,5,236.2,0.0
74.73,1,-0.055,0.017,-0.007,-0.028,0.008,0.001,-1.545,-0.002,0.12,73.95,120.3,40.498966,-3.377586,599.8,3,5,236.2,0.0
74.84,1,-0.112,0.0,0.005,-0.067,0.002,0.011,-1.55,-0.002,0.12,73.95,120.3,40.498966,-3.377586,599.8,3,5,236.2,0.0
74.94,1,-0.029,-0.002,0.007,-0.071,0.002,0.002,-1.549,-0.003,0.12,73.95,120.3,40.498966,-3.377586,599.8,3,5,236.2,0.0
75.04,1,0.001,0.001,-0.024,-0.026,0.0,-0.002,-1.55,-0.0,0.12,73.95,120.3,40.498966,-3.377586,599.8,3,5,236.2,0.0
75.14,1,0.077,0.004,0.019,0.023,0.003,-0.0,-1.55,-0.001,0.119,73.95,120.3,40.498966,-3.377586,599.8,3,5,236.2,0.0
75.23,1,0.059,0.0,0.022,0.058,-0.002,0.014,-1.549,-0.001,0.119,73.95,120.3,40.498966,-3.377586,599.8,3,5,236.2,0.0
75.33,1,-0.037,0.002,-0.014,0.011,0.002,0.005,-1.545,-0.002,0.118,73.95,120.3,40.498966,-3.377586,599.8,3,5,236.2,0.0
75.43,1,-0.001,-0.011,0.037,-0.007,-0.004,0.01,-1.545,-0.002,0.118,73.95,120.3,40.498966,-3.377586,599.8,3,5,236.2,0.0
75.53,1,-0.053,0.02,0.058,-0.02,0.001,0.04,-1.55,-0.001,0.118,73.95,120.3,40.498966,-3.377586,599.8,3,5,236.2,0.0
75.64,1,0.039,-0.008,0.034,-0.006,0.007,0.036,-1.558,0.0,0.118,73.95,120.3,40.498966,-3.377586,599.8,3,5,236.2,0.0
75.73,1,0.033,-0.008,0.001,0.023,-0.008,0.027,-1.557,0.002,0.118,74.96,122.1,40.498806,-3.377913,599.1,3,5,236.2,0.0
75.83,1,-0.02,0.011,0.005,0.007,0.003,0.006,-1.557,0.004,0.118,74.96,122.1,40.498806,-3.377913,599.1,3,5,236.2,0.0
75.93,1,-0.018,-0.002,-0.018,-0.008,0.0,-0.001,-1.558,0.007,0.117,74.96,122.1,40.498806,-3.377913,599.1,3,5,236.2,0.0
76.03,1,-0.012,0.012,-0.004,-0.013,0.004,-0.007,-1.559,0.007,0.117,74.96,122.1,40.498806,-3.377913,599.1,3,5,236.2,0.0
76.13,1,0.013,-0.001,-0.017,-0.002,0.008,-0.012,-1.559,0.006,0.117,74.96,122.1,40.498806,-3.377913,599.1,3,5,236.2,0.0
76.23,1,-0.025,0.013,-0.017,-0.011,0.008,-0.016,-1.558,0.004,0.116,74.96,122.1,40.498806,-3.377913,599.1,3,5,236.2,0.0
76.34,1,-0.031,-0.012,0.012,-0.021,0.0,0.002,-1.559,0.003,0.116,74.96,122.1,40.498806,-3.377913,599.1,3,5,236.2,0.0
76.43,1,-0.012,-0.024,0.027,-0.023,-0.012,0.011,-1.559,-0.001,0.117,74.96,122.1,40.498806,-3.377913,599.1,3,5,236.2,0.0
76.53,1,0.051,-0.013,0.029,0.014,-0.015,0.017,-1.561,-0.001,0.117,74.96,122.1,40.498806,-3.377913,599.1,3,5,236.2,0.0
76.63,1,-0.016,-0.013,0.016,0.014,-0.016,0.026,-1.562,0.002,0.117,74.96,122.1,40.498806,-3.377913,599.1,3,5,236.2,0.0
76.75,1,-0.034,-0.012,0.007,-0.016,-0.011,0.015,-1.561,0.004,0.118,75.93,122.9,40.498634,-3.378242,598.4,3,5,236.2,0.0
76.83,1,0.017,0.003,0.012,-0.005,-0.005,0.008,-1.562,0.002,0.118,75.93,122.9,40.498634,-3.378242,598.4,3,5,236.2,0.0
76.94,1,-0.027,-0.005,0.011,-0.0,0.0,0.01,-1.564,0.006,0.119,75.93,122.9,40.498634,-3.378242,598.4,3,5,236.2,0.0
77.05,1,-0.021,-0.012,0.041,-0.028,-0.01,0.025,-1.566,0.005,0.119,75.93,122.9,40.498634,-3.378242,598.4,3,5,236.2,0.0
77.13,1,-0.028,0.021,0.035,-0.024,0.003,0.037,-1.565,0.005,0.119,75.93,122.9,40.498634,-3.378242,598.4,3,5,236.2,0.0
77.23,1,-0.06,0.011,0.009,-0.043,0.014,0.023,-1.565,0.008,0.119,75.93,122.9,40.498634,-3.378242,598.4,3,5,236.2,0.0
77.34,1,0.059,-0.036,0.017,0.002,-0.009,0.015,-1.562,0.009,0.12,75.93,122.9,40.498634,-3.378242,598.4,3,5,236.2,0.0
77.43,1,0.013,-0.024,0.02,0.026,-0.024,0.017,-1.562,0.009,0.12,75.93,122.9,40.498634,-3.378242,598.4,3,5,236.2,0.0
77.55,1,-0.044,0.027,-0.013,-0.018,-0.002,0.007,-1.557,0.009,0.12,75.93,122.9,40.498634,-3.378242,598.4,3,5,236.2,0.0
77.63,1,0.032,-0.019,0.016,-0.0,-0.005,0.006,-1.557,0.01,0.12,75.93,122.9,40.498634,-3.378242,598.4,3,5,236.2,0.0
77.74,1,0.05,0.007,0.026,0.028,-0.005,0.021,-1.556,0.01,0.12,76.95,122.0,40.498466,-3.378574,597.8,3,5,236.6,0.352
77.84,1,-0.017,0.014,0.014,0.017,0.005,0.013,-1.555,0.012,0.119,76.95,122.0,40.498466,-3.378574,597.8,3,5,236.6,0.352
77.94,1,-0.034,0.004,-0.015,-0.022,0.009,0.009,-1.555,0.01,0.119,76.95,122.0,40.498466,-3.378574,597.8,3,5,236.6,0.352
78.04,1,-0.036,0.011,-0.008,-0.021,0.007,-0.004,-1.559,0.012,0.119,76.95,122.0,40.498466,-3.378574,597.8,3,5,236.6,0.352
78.15,1,-0.012,0.037,-0.018,-0.028,0.018,-0.012,-1.564,0.012,0.119,76.95,122.0,40.498466,-3.378574,597.8,3,5,236.6,0.352
78.24,1,0.053,0.005,-0.02,0.017,0.019,-0.017,-1.562,0.012,0.118,76.95,122.0,40.498466,-3.378574,597.8,3,5,236.6,0.352
78.34,1,0.001,-0.01,-0.021,0.015,0.008,-0.023,-1.561,0.014,0.118,76.95,122.0,40.498466,-3.378574,597.8,3,5,236.6,0.352
78.44,1,-0.039,-0.0,-0.039,-0.006,-0.0,-0.022,-1.561,0.014,0.118,76.95,122.0,40.498466,-3.378574,597.8,3,5,236.6,0.352
78.54,1,-0.033,0.02,-0.05,-0.029,0.011,-0.039,-1.561,0.014,0.118,76.95,122.0,40.498466,-3.378574,597.8,3,5,236.6,0.352
78.64,1,-0.019,0.003,-0.085,-0.024,0.004,-0.064,-1.561,0.014,0.118,76.95,122.0,40.498466,-3.378574,597.8,3,5,236.6,0.352
78.74,1,-0.0,0.031,-0.028,-0.013,0.019,-0.052,-1.56,0.013,0.118,77.94,123.2,40.498295,-3.378912,598.4,3,5,236.2,0.352
78.84,1,-0.001,0.01,-0.051,-0.005,0.017,-0.048,-1.56,0.014,0.117,77.94,123.2,40.498295,-3.378912,598.4,3,5,236.2,0.352
78.94,1,0.012,0.026,-0.093,0.001,0.013,-0.064,-1.559,0.014,0.117,77.94,123.2,40.498295,-3.378912,598.4,3,5,236.2,0.352
79.04,1,0.037,0.026,-0.063,0.016,0.031,-0.073,-1.558,0.015,0.117,77.94,123.2,40.498295,-3.378912,598.4,3,5,236.2,0.352
79.15,1,0.032,0.019,-0.013,0.031,0.023,-0.051,-1.552,0.014,0.116,77.94,123.2,40.498295,-3.378912,598.4,3,5,236.2,0.352
79.24,1,0.001,0.028,-0.029,0.019,0.019,-0.029,-1.545,0.017,0.116,77.94,123.2,40.498295,-3.378912,598.4,3,5,236.2,0.352
79.35,1,-0.035,0.04,-0.044,-0.01,0.033,-0.034,-1.542,0.017,0.115,77.94,123.2,40.498295,-3.378912,598.4,3,5,236.2,0.352
79.44,1,-0.024,0.029,-0.097,-0.019,0.029,-0.063,-1.543,0.017,0.115,77.94,123.2,40.498295,-3.378912,598.4,3,5,236.2,0.352
79.54,1,-0.007,0.025,-0.041,-0.013,0.028,-0.06,-1.544,0.018,0.114,77.94,123.2,40.498295,-3.378912,598.4,3,5,236.2,0.352
79.65,1,-0.049,0.045,-0.06,-0.032,0.036,-0.05,-1.544,0.022,0.114,77.94,123.2,40.498295,-3.378912,598.4,3,5,236.2,0.352
79.74,1,-0.051,0.022,-0.047,-0.037,0.036,-0.05,-1.544,0.023,0.115,78.96,124.3,40.498123,-3.37925,598.1,3,5,236.2,0.352
79.85,1,-0.027,0.007,-0.055,-0.045,0.018,-0.059,-1.544,0.023,0.115,78.96,124.3,40.498123,-3.37925,598.1,3,5,236.2,0.352
79.95,1,0.017,0.007,-0.018,-0.011,0.012,-0.044,-1.545,0.023,0.115,78.96,124.3,40.498123,-3.37925,598.1,3,5,236.2,0.352
80.04,1,-0.009,0.02,-0.014,-0.007,0.013,-0.022,-1.545,0.022,0.115,78.96,124.3,40.498123,-3.37925,598.1,3,5,236.2,0.352
80.14,1,0.011,0.003,-0.048,0.0,0.006,-0.03,-1.544,0.022,0.115,78.96,124.3,40.498123,-3.37925,598.1,3,5,236.2,0.352
80.24,1,0.019,0.021,-0.01,0.011,0.018,-0.032,-1.544,0.022,0.115,78.96,124.3,40.498123,-3.37925,598.1,3,5,236.2,0.352
80.34,1,-0.023,0.017,0.028,-0.0,0.015,-0.001,-1.54,0.018,0.115,78.96,124.3,40.498123,-3.37925,598.1,3,5,236.2,0.352
80.44,1,-0.063,0.015,0.018,-0.025,0.015,0.015,-1.544,0.015,0.115,78.96,124.3,40.498123,-3.37925,598.1,3,5,236.2,0.352
80.54,1,-0.086,-0.004,0.022,-0.064,0.01,0.024,-1.548,0.014,0.115,78.96,124.3,40.498123,-3.37925,598.1,3,5,236.2,0.352
80.65,1,-0.059,0.011,0.02,-0.065,0.008,0.013,-1.556,0.012,0.115,78.96,124.3,40.498123,-3.37925,598.1,3,5,236.2,0.352
80.74,1,0.044,-0.007,0.034,-0.012,0.003,0.03,-1.557,0.012,0.116,80.01,123.1,40.497952,-3.379585,598.0,3,5,236.6,0.352
80.85,1,0.005,-0.004,0.007,-0.001,-0.002,0.018,-1.56,0.009,0.115,80.01,123.1,40.497952,-3.379585,598.0,3,5,236.6,0.352
80.94,1,-0.042,0.016,0.028,-0.014,0.003,0.019,-1.565,0.006,0.115,80.01,123.1,40.497952,-3.379585,598.0,3,5,236.6,0.352
81.04,1,-0.027,0.026,0.048,-0.025,0.019,0.035,-1.567,0.003,0.114,80.01,123.1,40.497952,-3.379585,598.0,3,5,236.6,0.352
81.15,1,0.025,0.001,0.044,-0.003,0.011,0.042,-1.567,0.004,0.115,80.01,123.1,40.497952,-3.379585,598.0,3,5,236.6,0.352
81.25,1,0.013,-0.022,0.021,0.005,-0.009,0.034,-1.564,0.003,0.116,80.01,123.1,40.497952,-3.379585,598.0,3,5,236.6,0.352
81.35,1,0.014,-0.008,-0.004,0.014,-0.007,0.01,-1.563,0.007,0.116,80.01,123.1,40.497952,-3.379585,598.0,3,5,236.6,0.352
81.44,1,-0.043,-0.008,0.025,-0.011,-0.008,0.015,-1.565,0.009,0.116,80.01,123.1,40.497952,-3.379585,598.0,3,5,236.6,0.352
81.54,1,-0.056,-0.008,0.028,-0.038,-0.008,0.024,-1.568,0.013,0.116,80.01,123.1,40.497952,-3.379585,598.0,3,5,236.6,0.352
81.64,1,-0.011,-0.019,0.036,-0.027,-0.011,0.031,-1.573,0.017,0.117,80.01,123.1,40.497952,-3.379585,598.0,3,5,236.6,0.352
81.75,1,0.037,-0.026,0.011,0.005,-0.025,0.025,-1.576,0.016,0.117,81.13,123.7,40.497612,-3.380234,597.8,3,5,236.6,0.352
81.85,1,-0.022,-0.01,0.006,-0.002,-0.017,0.015,-1.576,0.017,0.117,81.13,123.7,40.497612,-3.380234,597.8,3,5,236.6,0.352
81.95,1,0.012,-0.021,0.032,-0.008,-0.015,0.015,-1.579,0.018,0.118,81.13,123.7,40.497612,-3.380234,597.8,3,5,236.6,0.352
82.05,1,0.03,-0.006,0.01,0.021,-0.014,0.023,-1.581,0.019,0.118,81.13,123.7,40.497612,-3.380234,597.8,3,5,236.6,0.352
82.15,1,0.037,0.015,0.019,0.026,0.003,0.024,-1.581,0.019,0.119,81.13,123.7,40.497612,-3.380234,597.8,3,5,236.6,0.352
82.25,1,0.011,-0.017,0.029,0.014,-0.008,0.018,-1.584,0.019,0.119,81.13,123.7,40.497612,-3.380234,597.8,3,5,236.6,0.352
82.36,1,-0.043,0.029,0.004,-0.008,0.002,0.008,-1.585,0.017,0.118,81.13,123.7,40.497612,-3.380234,597.8,3,5,236.6,0.352
82.45,1,-0.033,0.008,-0.032,-0.028,0.016,-0.002,-1.589,0.014,0.118,81.13,123.7,40.497612,-3.380234,597.8,3,5,236.6,0.352
82.55,1,-0.011,0.015,-0.001,-0.017,0.015,-0.013,-1.589,0.013,0.118,81.13,123.7,40.497612,-3.380234,597.8,3,5,236.6,0.352
82.65,1,-0.018,0.012,-0.012,-0.023,0.014,-0.015,-1.591,0.015,0.118,81.13,123.7,40.497612,-3.380234,597.8,3,5,236.6,0.352
82.75,1,0.023,0.0,-0.019,0.004,0.004,-0.011,-1.589,0.014,0.118,81.96,123.7,40.497612,-3.380234,597.8,3,5,236.6,0.352
82.85,1,0.045,0.014,0.009,0.023,0.007,-0.008,-1.588,0.015,0.117,81.96,123.7,40.497612,-3.380234,597.8,3,5,236.6,0.352
82.96,1,0.003,-0.0,0.028,0.019,0.007,0.022,-1.585,0.014,0.117,81.96,123.7,40.497612,-3.380234,597.8,3,5,236.6,0.352
83.05,1,-0.038,0.02,-0.03,0.005,0.013,-0.007,-1.582,0.011,0.117,81.96,123.7,40.497612,-3.380234,597.8,3,5,236.6,0.352
83.15,1,-0.041,0.003,-0.006,-0.036,0.011,-0.005,-1.581,0.01,0.117,81.96,123.7,40.497612,-3.380234,597.8,3,5,236.6,0.352
83.25,1,-0.004,0.009,-0.024,-0.022,0.006,-0.017,-1.582,0.012,0.117,81.96,123.7,40.497612,-3.380234,597.8,3,5,236.6,0.352
83.35,1,-0.043,0.014,-0.02,-0.022,0.012,-0.02,-1.582,0.013,0.117,81.96,123.7,40.497612,-3.380234,597.8,3,5,236.6,0.352
83.45,1,0.003,0.001,0.015,-0.019,0.006,-0.007,-1.583,0.012,0.116,81.96,123.7,40.497612,-3.380234,597.8,3,5,236.6,0.352
83.55,1,0.002,0.015,-0.005,-0.01,0.011,0.002,-1.583,0.012,0.116,81.96,123.7,40.497612,-3.380234,597.8,3,5,236.6,0.352
83.65,1,0.014,0.032,0.035,0.008,0.017,0.008,-1.583,0.011,0.116,81.96,123.7,40.497612,-3.380234,597.8,3,5,236.6,0.352
83.76,1,-0.007,0.021,-0.021,0.003,0.022,0.005,-1.581,0.01,0.116,82.93,124.5,40.497437,-3.380583,597.4,3,5,236.2,0.352
83.85,1,-0.015,0.033,-0.045,-0.006,0.032,-0.019,-1.581,0.011,0.116,82.93,124.5,40.497437,-3.380583,597.4,3,5,236.2,0.352
83.95,1,0.004,0.011,-0.031,-0.01,0.02,-0.031,-1.582,0.013,0.116,82.93,124.5,40.497437,-3.380583,597.4,3,5,236.2,0.352
84.05,1,-0.07,-0.005,-0.057,-0.036,0.005,-0.045,-1.582,0.013,0.116,82.93,124.5,40.497437,-3.380583,597.4,3,5,236.2,0.352
84.15,1,-0.067,0.016,-0.069,-0.039,0.008,-0.048,-1.583,0.013,0.116,82.93,124.5,40.497437,-3.380583,597.4,3,5,236.2,0.352
84.26,1,-0.029,0.005,0.04,-0.057,0.012,-0.022,-1.587,0.014,0.116,82.93,124.5,40.497437,-3.380583,597.4,3,5,236.2,0.352
84.36,1,0.042,-0.008,0.007,0.002,-0.0,0.014,-1.595,0.014,0.116,82.93,124.5,40.497437,-3.380583,597.4,3,5,236.2,0.352
84.46,1,-0.016,0.007,-0.017,-0.0,0.0,-0.008,-1.595,0.015,0.117,82.93,124.5,40.497437,-3.380583,597.4,3,5,236.2,0.352
84.55,1,-0.013,-0.0,-0.038,-0.008,0.003,-0.024,-1.597,0.015,0.117,82.93,124.5,40.497437,-3.380583,597.4,3,5,236.2,0.352
84.65,1,-0.056,0.013,-0.032,-0.031,0.006,-0.024,-1.597,0.014,0.117,82.93,124.5,40.497437,-3.380583,597.4,3,5,236.2,0.352
84.75,1,-0.002,0.022,-0.012,-0.025,0.009,-0.02,-1.59,0.016,0.117,83.94,126.0,40.497261,-3.380924,597.1,3,5,236.2,0.352
84.85,1,0.018,-0.007,-0.084,-0.005,0.01,-0.051,-1.589,0.016,0.116,83.94,126.0,40.497261,-3.380924,597.1,3,5,236.2,0.352
84.95,1,0.012,0.005,-0.081,0.017,0.005,-0.068,-1.588,0.015,0.117,83.94,126.0,40.497261,-3.380924,597.1,3,5,236.2,0.352
85.06,1,0.018,-0.001,0.018,0.005,0.003,-0.051,-1.579,0.011,0.117,83.94,126.0,40.497261,-3.380924,597.1,3,5,236.2,0.352
85.16,1,-0.013,0.001,-0.028,0.005,-0.001,-0.012,-1.568,0.008,0.117,83.94,126.0,40.497261,-3.380924,597.1,3,5,236.2,0.352
85.25,1,0.033,-0.01,-0.04,0.008,-0.007,-0.027,-1.56,0.01,0.117,83.94,126.0,40.497261,-3.380924,597.1,3,5,236.2,0.352
85.35,1,-0.052,0.003,-0.035,-0.009,-0.003,-0.045,-1.562,0.007,0.117,83.94,126.0,40.497261,-3.380924,597.1,3,5,236.2,0.352
85.45,1,-0.028,0.013,-0.022,-0.027,0.015,-0.026,-1.569,0.006,0.117,83.94,126.0,40.497261,-3.380924,597.1,3,5,236.2,0.352
85.55,1,0.012,-0.026,-0.026,-0.013,-0.007,-0.021,-1.571,0.007,0.117,83.94,126.0,40.497261,-3.380924,597.1,3,5,236.2,0.352
85.66,1,-0.038,0.017,-0.052,-0.013,-0.007,-0.037,-1.571,0.006,0.117,83.94,126.0,40.497261,-3.380924,597.1,3,5,236.2,0.352
85.76,1,-0.002,0.006,-0.022,-0.013,0.001,-0.035,-1.569,0.005,0.117,84.93,126.4,40.497086,-3.381272,597.1,3,5,236.2,0.0
85.86,1,0.04,-0.018,-0.032,0.006,0.001,-0.026,-1.569,0.009,0.118,84.93,126.4,40.497086,-3.381272,597.1,3,5,236.2,0.0
85.96,1,0.001,-0.026,-0.032,0.012,-0.016,-0.029,-1.566,0.014,0.118,84.93,126.4,40.497086,-3.381272,597.1,3,5,236.2,0.0
86.06,1,-0.036,-0.01,-0.053,0.003,-0.012,-0.041,-1.56,0.021,0.118,84.93,126.4,40.497086,-3.381272,597.1,3,5,236.2,0.0
86.16,1,-0.075,-0.011,-0.027,-0.042,-0.009,-0.038,-1.555,0.024,0.118,84.93,126.4,40.497086,-3.381272,597.1,3,5,236.2,0.0
86.26,1,-0.004,-0.008,-0.0,-0.042,-0.013,-0.031,-1.549,0.02,0.118,84.93,126.4,40.497086,-3.381272,597.1,3,5,236.2,0.0
86.36,1,0.002,-0.006,-0.012,-0.016,-0.01,-0.01,-1.541,0.018,0.118,84.93,126.4,40.497086,-3.381272,597.1,3,5,236.2,0.0
86.46,1,-0.004,0.005,-0.025,-0.003,0.003,-0.023,-1.539,0.017,0.119,84.93,126.4,40.497086,-3.381272,597.1,3,5,236.2,0.0
86.56,1,0.046,0.013,-0.054,0.01,0.003,-0.03,-1.539,0.017,0.119,84.93,126.4,40.497086,-3.381272,597.1,3,5,236.2,0.0
86.66,1,-0.028,-0.004,-0.016,0.01,0.001,-0.036,-1.539,0.017,0.12,84.93,126.4,40.497086,-3.381272,597.1,3,5,236.2,0.0
86.76,1,-0.044,-0.026,-0.025,-0.024,-0.01,-0.017,-1.547,0.019,0.121,85.94,127.4,40.49691,-3.381622,596.6,3,5,236.2,0.0
86.87,1,-0.058,0.006,-0.003,-0.043,-0.01,-0.016,-1.55,0.019,0.121,85.94,127.4,40.49691,-3.381622,596.6,3,5,236.2,0.0
87.06,1,-0.064,0.0,-0.013,-0.053,0.002,-0.003,-1.55,0.02,0.122,85.94,127.4,40.49691,-3.381622,596.6,3,5,236.2,0.0
87.17,1,-0.02,0.005,-0.053,-0.047,0.003,-0.027,-1.55,0.019,0.122,85.94,127.4,40.49691,-3.381622,596.6,3,5,236.2,0.0
87.26,1,-0.004,0.017,-0.04,-0.021,0.011,-0.038,-1.55,0.019,0.123,85.94,127.4,40.49691,-3.381622,596.6,3,5,236.2,0.0
87.37,1,-0.02,-0.03,-0.025,-0.022,-0.006,-0.035,-1.548,0.019,0.123,85.94,127.4,40.49691,-3.381622,596.6,3,5,236.2,0.0
87.46,1,0.002,-0.035,-0.009,-0.01,-0.023,-0.021,-1.548,0.02,0.124,85.94,127.4,40.49691,-3.381622,596.6,3,5,236.2,0.0
87.57,1,0.02,-0.049,0.006,0.001,-0.035,-0.01,-1.547,0.019,0.124,85.94,127.4,40.49691,-3.381622,596.6,3,5,236.2,0.0
87.66,1,0.032,0.021,-0.017,0.026,-0.019,-0.006,-1.544,0.016,0.125,85.94,127.4,40.49691,-3.381622,596.6,3,5,236.2,0.0
87.76,1,-0.002,0.002,-0.024,0.017,0.004,-0.012,-1.543,0.016,0.125,85.94,127.4,40.49691,-3.381622,596.6,3,5,236.2,0.0
87.86,1,-0.013,-0.014,-0.069,0.006,-0.006,-0.033,-1.543,0.016,0.125,86.94,127.7,40.496727,-3.38197,596.5,3,5,236.2,0.0
87.97,1,-0.018,-0.007,-0.039,-0.007,-0.011,-0.048,-1.542,0.012,0.125,86.94,127.7,40.496727,-3.38197,596.5,3,5,236.2,0.0
88.08,1,-0.101,0.014,-0.033,-0.052,0.005,-0.039,-1.539,0.008,0.126,86.94,127.7,40.496727,-3.38197,596.5,3,5,236.2,0.0
88.16,1,-0.044,-0.019,-0.043,-0.067,-0.004,-0.04,-1.539,0.015,0.126,86.94,127.7,40.496727,-3.38197,596.5,3,5,236.2,0.0
88.26,1,0.003,0.016,-0.031,-0.022,-0.004,-0.033,-1.532,0.019,0.127,86.94,127.7,40.496727,-3.38197,596.5,3,5,236.2,0.0
88.37,1,-0.018,-0.002,-0.032,-0.017,0.003,-0.036,-1.532,0.022,0.127,86.94,127.7,40.496727,-3.38197,596.5,3,5,236.2,0.0
88.46,1,-0.009,-0.035,-0.009,-0.013,-0.017,-0.025,-1.533,0.023,0.128,86.94,127.7,40.496727,-3.38197,596.5,3,5,236.2,0.0
88.56,1,-0.038,-0.018,-0.015,-0.032,-0.019,-0.019,-1.534,0.023,0.128,86.94,127.7,40.496727,-3.38197,596.5,3,5,236.2,0.0
88.66,1,-0.033,0.001,-0.065,-0.033,-0.01,-0.039,-1.534,0.023,0.129,86.94,127.7,40.496727,-3.38197,596.5,3,5,236.2,0.0
88.77,1,-0.059,-0.042,-0.019,-0.037,-0.021,-0.033,-1.535,0.023,0.131,86.94,127.7,40.496727,-3.38197,596.5,3,5,236.2,0.0
88.86,1,0.016,-0.049,-0.009,-0.026,-0.039,-0.021,-1.535,0.022,0.132,87.95,126.5,40.496559,-3.382297,596.5,3,5,236.2,0.0
88.96,1,0.0,-0.024,-0.098,0.002,-0.034,-0.047,-1.534,0.021,0.134,87.95,126.5,40.496559,-3.382297,596.5,3,5,236.2,0.0
89.06,1,-0.033,-0.039,-0.057,-0.01,-0.028,-0.064,-1.535,0.023,0.135,87.95,126.5,40.496559,-3.382297,596.5,3,5,236.2,0.0
89.17,1,-0.043,-0.032,-0.017,-0.033,-0.031,-0.044,-1.536,0.024,0.136,87.95,126.5,40.496559,-3.382297,596.5,3,5,236.2,0.0
89.26,1,-0.002,-0.037,0.0,-0.021,-0.04,-0.016,-1.536,0.022,0.137,87.95,126.5,40.496559,-3.382297,596.5,3,5,236.2,0.0
89.36,1,0.022,-0.024,-0.033,-0.005,-0.028,-0.023,-1.536,0.022,0.137,87.95,126.5,40.496559,-3.382297,596.5,3,5,236.2,0.0
89.48,1,0.056,-0.01,-0.056,0.03,-0.024,-0.038,-1.532,0.02,0.138,87.95,126.5,40.496559,-3.382297,596.5,3,5,236.2,0.0
89.58,1,0.002,-0.047,-0.008,0.02,-0.031,-0.031,-1.529,0.021,0.14,87.95,126.5,40.496559,-3.382297,596.5,3,5,236.2,0.0
89.66,1,-0.034,-0.036,0.017,-0.006,-0.037,-0.011,-1.531,0.026,0.141,87.95,126.5,40.496559,-3.382297,596.5,3,5,236.2,0.0
89.76,1,-0.002,-0.028,0.028,-0.018,-0.034,0.017,-1.533,0.024,0.142,87.95,126.5,40.496559,-3.382297,596.5,3,5,236.2,0.0
89.87,1,-0.025,-0.02,0.023,-0.009,-0.026,0.021,-1.537,0.025,0.143,88.94,125.8,40.496387,-3.382638,596.3,3,5,235.9,0.352
89.97,1,-0.01,-0.008,0.014,-0.011,-0.018,0.022,-1.546,0.024,0.144,88.94,125.8,40.496387,-3.382638,596.3,3,5,235.9,0.352
90.07,1,-0.004,0.0,0.016,-0.011,-0.008,0.015,-1.545,0.026,0.144,88.94,125.8,40.496387,-3.382638,596.3,3,5,235.9,0.352
90.17,1,0.006,0.006,0.025,-0.004,-0.002,0.017,-1.55,0.026,0.146,88.94,125.8,40.496387,-3.382638,596.3,3,5,235.9,0.352
90.27,1,-0.002,-0.018,0.027,-0.002,-0.003,0.023,-1.556,0.027,0.147,88.94,125.8,40.496387,-3.382638,596.3,3,5,235.9,0.352
90.37,1,0.014,-0.025,0.022,0.005,-0.017,0.023,-1.558,0.026,0.147,88.94,125.8,40.496387,-3.382638,596.3,3,5,235.9,0.352
90.48,1,-0.004,-0.005,0.0,0.011,-0.014,0.02,-1.555,0.026,0.148,88.94,125.8,40.496387,-3.382638,596.3,3,5,235.9,0.352
90.57,1,-0.017,-0.006,-0.006,-0.016,-0.011,0.001,-1.556,0.03,0.149,88.94,125.8,40.496387,-3.382638,596.3,3,5,235.9,0.352
90.68,1,0.024,-0.036,0.018,0.011,-0.018,0.008,-1.558,0.035,0.151,88.94,125.8,40.496387,-3.382638,596.3,3,5,235.9,0.352
90.77,1,-0.029,-0.029,0.037,-0.007,-0.028,0.019,-1.558,0.036,0.152,88.94,125.8,40.496387,-3.382638,596.3,3,5,235.9,0.352
90.87,1,-0.042,-0.008,-0.013,-0.03,-0.021,0.013,-1.558,0.036,0.154,89.94,123.6,40.496216,-3.382967,596.7,3,5,235.2,1.055
90.97,1,-0.01,-0.021,-0.018,-0.022,-0.016,-0.01,-1.556,0.033,0.155,89.94,123.6,40.496216,-3.382967,596.7,3,5,235.2,1.055
91.07,1,-0.012,-0.024,-0.024,-0.014,-0.026,-0.015,-1.553,0.034,0.156,89.94,123.6,40.496216,-3.382967,596.7,3,5,235.2,1.055
91.18,1,-0.015,-0.031,0.006,-0.017,-0.022,-0.012,-1.551,0.037,0.158,89.94,123.6,40.496216,-3.382967,596.7,3,5,235.2,1.055
91.28,1,-0.047,-0.031,-0.023,-0.025,-0.031,-0.01,-1.551,0.044,0.16,89.94,123.6,40.496216,-3.382967,596.7,3,5,235.2,1.055
91.38,1,-0.023,-0.024,-0.049,-0.036,-0.024,-0.03,-1.55,0.052,0.162,89.94,123.6,40.496216,-3.382967,596.7,3,5,235.2,1.055
91.47,1,0.039,-0.008,-0.053,0.005,-0.02,-0.042,-1.545,0.053,0.163,89.94,123.6,40.496216,-3.382967,596.7,3,5,235.2,1.055
91.57,1,0.031,0.007,-0.049,0.027,-0.005,-0.047,-1.54,0.051,0.163,89.94,123.6,40.496216,-3.382967,596.7,3,5,235.2,1.055
91.67,1,-0.042,0.033,-0.046,-0.006,0.01,-0.052,-1.538,0.052,0.164,89.94,123.6,40.496216,-3.382967,596.7,3,5,235.2,1.055
91.77,1,-0.028,0.019,-0.041,-0.019,0.02,-0.043,-1.538,0.052,0.164,89.94,123.6,40.496216,-3.382967,596.7,3,5,235.2,1.055
91.87,1,0.008,0.045,-0.009,-0.016,0.026,-0.025,-1.536,0.045,0.163,91.09,122.0,40.496044,-3.383289,596.4,3,5,234.5,1.406
91.98,1,-0.026,0.058,-0.012,-0.014,0.045,-0.018,-1.538,0.043,0.161,91.09,122.0,40.496044,-3.383289,596.4,3,5,234.5,1.406
92.07,1,-0.001,0.042,-0.024,-0.012,0.05,-0.019,-1.537,0.044,0.161,91.09,122.0,40.496044,-3.383289,596.4,3,5,234.5,1.406
92.17,1,-0.034,0.035,-0.031,-0.012,0.041,-0.027,-1.536,0.04,0.161,91.09,122.0,40.496044,-3.383289,596.4,3,5,234.5,1.406
92.27,1,-0.035,0.027,-0.024,-0.03,0.035,-0.028,-1.535,0.036,0.16,91.09,122.0,40.496044,-3.383289,596.4,3,5,234.5,1.406
92.38,1,0.007,0.025,-0.012,-0.02,0.031,-0.019,-1.535,0.034,0.16,91.09,122.0,40.496044,-3.383289,596.4,3,5,234.5,1.406
92.47,1,0.001,0.016,0.016,0.002,0.026,-0.004,-1.536,0.032,0.159,91.09,122.0,40.496044,-3.383289,596.4,3,5,234.5,1.406
92.58,1,-0.049,0.044,0.028,-0.03,0.027,0.012,-1.538,0.029,0.159,91.09,122.0,40.496044,-3.383289,596.4,3,5,234.5,1.406
92.68,1,-0.025,0.021,0.053,-0.029,0.028,0.036,-1.545,0.023,0.158,91.09,122.0,40.496044,-3.383289,596.4,3,5,234.5,1.406
92.77,1,-0.006,0.023,0.079,-0.012,0.027,0.056,-1.55,0.022,0.157,91.09,122.0,40.496044,-3.383289,596.4,3,5,234.5,1.406
92.87,1,-0.059,0.03,0.057,-0.026,0.023,0.066,-1.554,0.02,0.157,91.94,122.5,40.495869,-3.383605,596.2,4,5,234.1,1.055
92.97,1,0.028,0.033,0.038,-0.023,0.031,0.049,-1.558,0.018,0.156,91.94,122.5,40.495869,-3.383605,596.2,4,5,234.1,1.055
93.07,1,0.029,0.013,0.031,0.012,0.021,0.04,-1.56,0.015,0.155,91.94,122.5,40.495869,-3.383605,596.2,4,5,234.1,1.055
93.17,1,0.009,0.029,0.024,0.016,0.022,0.032,-1.56,0.01,0.154,91.94,122.5,40.495869,-3.383605,596.2,4,5,234.1,1.055
93.28,1,-0.025,0.051,0.018,-0.005,0.037,0.025,-1.558,0.005,0.153,91.94,122.5,40.495869,-3.383605,596.2,4,5,234.1,1.055
93.38,1,-0.002,0.029,0.005,-0.009,0.039,0.012,-1.558,0.001,0.152,91.94,122.5,40.495869,-3.383605,596.2,4,5,234.1,1.055
93.48,1,-0.014,0.0,0.016,-0.009,0.021,0.013,-1.56,-0.001,0.151,91.94,122.5,40.495869,-3.383605,596.2,4,5,234.1,1.055
93.57,1,0.057,0.009,0.061,0.018,0.011,0.035,-1.563,-0.002,0.151,91.94,122.5,40.495869,-3.383605,596.2,4,5,234.1,1.055
93.67,1,-0.027,-0.009,0.048,0.006,0.002,0.043,-1.566,0.0,0.151,91.94,122.5,40.495869,-3.383605,596.2,4,5,234.1,1.055
93.78,1,0.036,0.01,0.021,0.011,0.002,0.035,-1.57,0.001,0.15,91.94,122.5,40.495869,-3.383605,596.2,4,5,234.1,1.055
93.88,1,0.015,-0.022,-0.013,0.017,-0.006,0.013,-1.573,-0.001,0.149,92.94,121.5,40.495693,-3.383924,596.5,4,5,233.1,1.406
93.98,1,0.03,-0.0,0.007,0.023,-0.007,0.004,-1.57,-0.002,0.148,92.94,121.5,40.495693,-3.383924,596.5,4,5,233.1,1.406
94.08,1,-0.032,-0.01,0.009,0.005,-0.005,0.009,-1.571,-0.0,0.148,92.94,121.5,40.495693,-3.383924,596.5,4,5,233.1,1.406
94.18,1,-0.057,-0.01,0.029,-0.031,-0.008,0.018,-1.572,0.004,0.149,92.94,121.5,40.495693,-3.383924,596.5,4,5,233.1,1.406
94.29,1,-0.013,-0.026,0.015,-0.03,-0.02,0.021,-1.573,0.007,0.149,92.94,121.5,40.495693,-3.383924,596.5,4,5,233.1,1.406
94.38,1,-0.023,0.024,0.023,-0.025,0.003,0.015,-1.571,0.007,0.149,92.94,121.5,40.495693,-3.383924,596.5,4,5,233.1,1.406
94.49,1,0.035,0.004,0.018,-0.002,0.005,0.02,-1.572,0.012,0.148,92.94,121.5,40.495693,-3.383924,596.5,4,5,233.1,1.406
94.58,1,0.02,0.015,-0.008,0.009,0.011,0.008,-1.572,0.013,0.147,92.94,121.5,40.495693,-3.383924,596.5,4,5,233.1,1.406
94.68,1,0.006,0.007,-0.015,0.016,0.009,-0.006,-1.572,0.016,0.147,92.94,121.5,40.495693,-3.383924,596.5,4,5,233.1,1.406
94.79,1,-0.018,-0.001,0.039,0.007,0.006,0.011,-1.576,0.016,0.147,92.94,121.5,40.495693,-3.383924,596.5,4,5,233.1,1.406
94.88,1,0.008,0.008,0.009,-0.002,0.003,0.025,-1.579,0.015,0.146,93.96,120.3,40.49551,-3.384234,596.4,3,5,232.7,1.406
94.99,1,-0.043,-0.01,-0.007,-0.011,-0.0,0.007,-1.574,0.014,0.146,93.96,120.3,40.49551,-3.384234,596.4,3,5,232.7,1.406
95.08,1,-0.051,0.002,-0.015,-0.043,-0.002,-0.016,-1.574,0.014,0.146,93.96,120.3,40.49551,-3.384234,596.4,3,5,232.7,1.406
95.19,1,0.093,-0.042,0.026,0.01,-0.014,0.004,-1.577,0.018,0.147,93.96,120.3,40.49551,-3.384234,596.4,3,5,232.7,1.406
95.28,1,0.042,-0.047,0.005,0.049,-0.04,0.018,-1.579,0.021,0.148,93.96,120.3,40.49551,-3.384234,596.4,3,5,232.7,1.406
95.38,1,0.004,-0.055,-0.007,0.021,-0.047,-0.005,-1.581,0.019,0.149,93.96,120.3,40.49551,-3.384234,596.4,3,5,232.7,1.406
95.48,1,0.01,-0.029,-0.004,0.018,-0.039,-0.003,-1.583,0.022,0.149,93.96,120.3,40.49551,-3.384234,596.4,3,5,232.7,1.406
95.59,1,-0.023,-0.051,-0.066,0.001,-0.037,-0.031,-1.585,0.03,0.15,93.96,120.3,40.49551,-3.384234,596.4,3,5,232.7,1.406
95.68,1,0.062,-0.049,-0.015,0.019,-0.048,-0.03,-1.584,0.029,0.151,93.96,120.3,40.49551,-3.384234,596.4,3,5,232.7,1.406
95.8,1,0.066,-0.021,-0.042,0.048,-0.034,-0.034,-1.581,0.027,0.152,93.96,120.3,40.49551,-3.384234,596.4,3,5,232.7,1.406
95.88,1,0.052,-0.04,-0.039,0.056,-0.042,-0.026,-1.58,0.025,0.152,94.94,119.5,40.495331,-3.384549,596.4,3,5,233.1,0.352
95.98,1,-0.119,-0.005,-0.037,-0.018,-0.023,-0.044,-1.579,0.024,0.153,94.94,119.5,40.495331,-3.384549,596.4,3,5,233.1,0.352
96.09,1,-0.034,-0.045,-0.083,-0.053,-0.03,-0.06,-1.576,0.023,0.154,94.94,119.5,40.495331,-3.384549,596.4,3,5,233.1,0.352
96.19,1,-0.017,-0.007,-0.072,-0.021,-0.02,-0.064,-1.575,0.027,0.155,94.94,119.5,40.495331,-3.384549,596.4,3,5,233.1,0.352
96.28,1,-0.044,-0.017,-0.046,-0.03,-0.011,-0.055,-1.568,0.029,0.156,94.94,119.5,40.495331,-3.384549,596.4,3,5,233.1,0.352
96.38,1,0.053,-0.041,-0.038,-0.004,-0.03,-0.046,-1.561,0.029,0.156,94.94,119.5,40.495331,-3.384549,596.4,3,5,233.1,0.352
96.48,1,0.025,-0.026,-0.074,0.024,-0.029,-0.058,-1.552,0.026,0.156,94.94,119.5,40.495331,-3.384549,596.4,3,5,233.1,0.352
96.58,1,-0.056,-0.013,-0.033,-0.007,-0.025,-0.052,-1.548,0.023,0.156,94.94,119.5,40.495331,-3.384549,596.4,3,5,233.1,0.352
96.68,1,-0.088,-0.016,-0.034,-0.06,-0.016,-0.042,-1.547,0.024,0.156,94.94,119.5,40.495331,-3.384549,596.4,3,5,233.1,0.352
96.8,1,0.019,-0.029,-0.039,-0.031,-0.024,-0.037,-1.543,0.029,0.156,94.94,119.5,40.495331,-3.384549,596.4,3,5,233.1,0.352
96.88,1,0.051,0.007,-0.052,0.01,-0.018,-0.04,-1.542,0.035,0.156,95.97,123.4,40.495144,-3.384859,596.2,3,5,233.1,0.352
97.19,1,0.023,-0.007,-0.003,0.029,-0.009,-0.023,-1.542,0.044,0.157,95.97,123.4,40.495144,-3.384859,596.2,3,5,233.1,0.352
97.28,1,0.027,0.014,-0.064,0.026,0.008,-0.028,-1.542,0.044,0.158,95.97,123.4,40.495144,-3.384859,596.2,3,5,233.1,0.352
97.4,1,-0.057,-0.027,-0.053,-0.009,-0.009,-0.05,-1.543,0.046,0.159,95.97,123.4,40.495144,-3.384859,596.2,3,5,233.1,0.352
97.49,1,-0.002,0.01,-0.01,-0.01,0.001,-0.033,-1.543,0.046,0.161,95.97,123.4,40.495144,-3.384859,596.2,3,5,233.1,0.352
97.58,1,-0.01,0.009,-0.022,-0.012,-0.003,-0.023,-1.543,0.046,0.16,95.97,123.4,40.495144,-3.384859,596.2,3,5,233.1,0.352
97.68,1,0.01,0.018,-0.049,-0.0,0.013,-0.037,-1.545,0.047,0.159,95.97,123.4,40.495144,-3.384859,596.2,3,5,233.1,0.352
97.79,1,-0.003,0.029,-0.014,-0.004,0.016,-0.03,-1.546,0.049,0.158,95.97,123.4,40.495144,-3.384859,596.2,3,5,233.1,0.352
97.88,1,-0.013,0.01,-0.018,-0.004,0.019,-0.023,-1.545,0.049,0.158,95.97,123.4,40.495144,-3.384859,596.2,3,5,233.1,0.352
97.98,1,0.012,0.024,-0.052,-0.007,0.021,-0.037,-1.545,0.049,0.158,95.97,123.4,40.495144,-3.384859,596.2,3,5,233.1,0.352
98.09,1,0.021,0.005,-0.044,0.013,0.012,-0.043,-1.543,0.048,0.158,96.95,123.8,40.494961,-3.385178,596.5,3,5,232.4,0.703
98.19,1,-0.039,0.003,-0.042,-0.005,0.011,-0.033,-1.541,0.045,0.159,96.95,123.8,40.494961,-3.385178,596.5,3,5,232.4,0.703
98.29,1,0.016,0.008,-0.04,-0.008,0.007,-0.045,-1.541,0.045,0.158,96.95,123.8,40.494961,-3.385178,596.5,3,5,232.4,0.703
98.39,1,-0.003,0.006,-0.054,0.002,0.004,-0.043,-1.54,0.05,0.158,96.95,123.8,40.494961,-3.385178,596.5,3,5,232.4,0.703
98.49,1,-0.029,0.035,-0.017,-0.018,0.022,-0.042,-1.54,0.05,0.158,96.95,123.8,40.494961,-3.385178,596.5,3,5,232.4,0.703
98.6,1,-0.019,-0.005,-0.024,-0.014,0.01,-0.028,-1.54,0.05,0.158,96.95,123.8,40.494961,-3.385178,596.5,3,5,232.4,0.703
98.69,1,-0.001,0.048,-0.031,-0.009,0.023,-0.024,-1.541,0.048,0.157,96.95,123.8,40.494961,-3.385178,596.5,3,5,232.4,0.703
98.8,1,-0.021,0.051,-0.051,-0.004,0.042,-0.037,-1.542,0.048,0.156,96.95,123.8,40.494961,-3.385178,596.5,3,5,232.4,0.703
98.9,1,-0.02,0.042,-0.027,-0.018,0.044,-0.038,-1.542,0.052,0.156,96.95,123.8,40.494961,-3.385178,596.5,3,5,232.4,0.703
98.99,1,-0.004,0.032,-0.042,-0.018,0.038,-0.03,-1.544,0.059,0.156,96.95,123.8,40.494961,-3.385178,596.5,3,5,232.4,0.703
99.09,1,0.025,0.009,-0.018,0.015,0.024,-0.036,-1.544,0.058,0.157,97.94,122.9,40.49477,-3.3855,597.2,3,5,232.0,1.055
99.2,1,-0.004,0.015,-0.042,-0.004,0.016,-0.028,-1.539,0.051,0.156,97.94,122.9,40.49477,-3.3855,597.2,3,5,232.0,1.055
99.29,1,0.028,-0.024,0.008,0.008,0.002,-0.023,-1.539,0.049,0.156,97.94,122.9,40.49477,-3.3855,597.2,3,5,232.0,1.055
99.4,1,-0.041,0.017,0.006,-0.005,-0.004,-0.002,-1.543,0.044,0.156,97.94,122.9,40.49477,-3.3855,597.2,3,5,232.0,1.055
99.49,1,-0.08,0.007,0.022,-0.048,0.013,0.007,-1.546,0.037,0.156,97.94,122.9,40.49477,-3.3855,597.2,3,5,232.0,1.055
99.59,1,0.008,0.008,0.056,-0.03,0.006,0.031,-1.55,0.036,0.157,97.94,122.9,40.49477,-3.3855,597.2,3,5,232.0,1.055
99.69,1,0.016,-0.005,0.038,0.0,0.003,0.043,-1.553,0.032,0.157,97.94,122.9,40.49477,-3.3855,597.2,3,5,232.0,1.055
99.79,1,-0.031,-0.011,0.045,-0.011,-0.009,0.048,-1.555,0.033,0.157,97.94,122.9,40.49477,-3.3855,597.2,3,5,232.0,1.055
99.89,1,-0.006,0.01,0.059,-0.017,-0.0,0.045,-1.555,0.031,0.157,97.94,122.9,40.49477,-3.3855,597.2,3,5,232.0,1.055
99.99,1,0.025,0.014,0.03,0.004,0.006,0.047,-1.557,0.031,0.156,97.94,122.9,40.49477,-3.3855,597.2,3,5,232.0,1.055
100.1,1,-0.026,0.004,0.045,-0.002,0.007,0.039,-1.561,0.03,0.156,98.95,122.2,40.494587,-3.385816,597.1,3,5,231.7,0.703
100.19,1,-0.044,0.022,0.017,-0.028,0.015,0.028,-1.564,0.03,0.156,98.95,122.2,40.494587,-3.385816,597.1,3,5,231.7,0.703
100.29,1,-0.005,0.001,0.036,-0.023,0.013,0.03,-1.568,0.027,0.156,98.95,122.2,40.494587,-3.385816,597.1,3,5,231.7,0.703
100.39,1,0.021,0.01,0.002,0.001,0.006,0.024,-1.57,0.028,0.156,98.95,122.2,40.494587,-3.385816,597.1,3,5,231.7,0.703
100.5,1,-0.023,0.004,-0.002,-0.003,0.008,0.002,-1.576,0.03,0.157,98.95,122.2,40.494587,-3.385816,597.1,3,5,231.7,0.703
100.59,1,-0.017,0.002,0.007,-0.01,0.004,0.005,-1.577,0.031,0.156,98.95,122.2,40.494587,-3.385816,597.1,3,5,231.7,0.703
100.69,1,-0.044,0.001,-0.003,-0.029,0.003,0.004,-1.578,0.032,0.156,98.95,122.2,40.494587,-3.385816,597.1,3,5,231.7,0.703
100.8,1,-0.033,-0.003,-0.034,-0.032,-0.003,-0.012,-1.578,0.033,0.156,98.95,122.2,40.494587,-3.385816,597.1,3,5,231.7,0.703
100.89,1,-0.0,0.006,-0.029,-0.023,0.002,-0.03,-1.577,0.034,0.156,98.95,122.2,40.494587,-3.385816,597.1,3,5,231.7,0.703
100.99,1,0.035,-0.009,-0.006,0.006,0.002,-0.013,-1.576,0.034,0.157,98.95,122.2,40.494587,-3.385816,597.1,3,5,231.7,0.703
101.09,1,0.081,-0.01,-0.005,0.042,-0.006,-0.008,-1.578,0.035,0.157,99.96,120.2,40.494385,-3.386123,596.4,3,5,231.0,1.055
101.19,1,-0.024,-0.005,-0.032,0.034,-0.011,-0.017,-1.575,0.035,0.157,99.96,120.2,40.494385,-3.386123,596.4,3,5,231.0,1.055
101.3,1,-0.072,-0.003,-0.029,-0.024,-0.003,-0.029,-1.574,0.034,0.157,99.96,120.2,40.494385,-3.386123,596.4,3,5,231.0,1.055
101.39,1,0.011,0.01,-0.036,-0.021,0.003,-0.03,-1.576,0.035,0.157,99.96,120.2,40.494385,-3.386123,596.4,3,5,231.0,1.055
101.49,1,0.014,0.006,-0.024,-0.001,0.007,-0.032,-1.577,0.036,0.157,99.96,120.2,40.494385,-3.386123,596.4,3,5,231.0,1.055
101.6,1,0.016,0.012,-0.045,0.008,0.01,-0.034,-1.573,0.038,0.157,99.96,120.2,40.494385,-3.386123,596.4,3,5,231.0,1.055
101.69,1,-0.006,0.017,-0.046,0.001,0.015,-0.04,-1.568,0.038,0.156,99.96,120.2,40.494385,-3.386123,596.4,3,5,231.0,1.055
101.8,1,-0.048,0.02,-0.058,-0.011,0.012,-0.05,-1.565,0.036,0.155,99.96,120.2,40.494385,-3.386123,596.4,3,5,231.0,1.055
101.89,1,-0.069,0.047,-0.049,-0.045,0.027,-0.047,-1.563,0.034,0.154,99.96,120.2,40.494385,-3.386123,596.4,3,5,231.0,1.055
102.01,1,-0.029,0.017,-0.054,-0.041,0.031,-0.049,-1.561,0.034,0.153,99.96,120.2,40.494385,-3.386123,596.4,3,5,231.0,1.055
102.1,1,-0.021,0.06,-0.024,-0.035,0.036,-0.045,-1.558,0.035,0.152,100.95,120.8,40.49419,-3.386439,596.3,3,5,230.3,1.406
102.2,1,0.093,0.002,-0.015,0.022,0.028,-0.028,-1.558,0.034,0.151,100.95,120.8,40.49419,-3.386439,596.3,3,5,230.3,1.406
102.3,1,0.04,0.044,-0.026,0.048,0.032,-0.024,-1.556,0.034,0.15,100.95,120.8,40.49419,-3.386439,596.3,3,5,230.3,1.406
102.4,1,0.036,0.022,-0.048,0.046,0.029,-0.033,-1.551,0.034,0.149,100.95,120.8,40.49419,-3.386439,596.3,3,5,230.3,1.406
102.5,1,-0.069,0.033,-0.048,-0.007,0.029,-0.047,-1.548,0.033,0.148,100.95,120.8,40.49419,-3.386439,596.3,3,5,230.3,1.406
102.62,1,-0.008,0.017,-0.018,-0.036,0.028,-0.035,-1.546,0.033,0.148,100.95,120.8,40.49419,-3.386439,596.3,3,5,230.3,1.406
102.7,1,0.027,0.002,-0.015,-0.002,0.012,-0.02,-1.544,0.032,0.147,100.95,120.8,40.49419,-3.386439,596.3,3,5,230.3,1.406
102.81,1,-0.006,0.017,-0.038,0.007,0.014,-0.026,-1.541,0.029,0.147,100.95,120.8,40.49419,-3.386439,596.3,3,5,230.3,1.406
102.9,1,0.004,-0.014,-0.002,0.006,0.002,-0.021,-1.538,0.032,0.147,100.95,120.8,40.49419,-3.386439,596.3,3,5,230.3,1.406
103.01,1,-0.021,0.018,0.011,-0.004,0.004,0.005,-1.537,0.036,0.147,100.95,120.8,40.49419,-3.386439,596.3,3,5,230.3,1.406
103.1,1,0.003,0.015,-0.018,-0.012,0.01,-0.014,-1.535,0.034,0.147,101.95,121.3,40.493996,-3.38675,596.3,4,5,230.3,0.703
103.21,1,0.002,0.001,-0.017,0.001,0.01,-0.013,-1.533,0.031,0.146,101.95,121.3,40.493996,-3.38675,596.3,4,5,230.3,0.703
103.3,1,-0.008,-0.019,-0.007,-0.006,-0.003,-0.004,-1.533,0.031,0.146,101.95,121.3,40.493996,-3.38675,596.3,4,5,230.3,0.703
103.4,1,0.015,-0.01,-0.046,0.006,-0.012,-0.026,-1.528,0.032,0.146,101.95,121.3,40.493996,-3.38675,596.3,4,5,230.3,0.703
103.5,1,-0.0,-0.008,-0.022,0.005,-0.01,-0.034,-1.524,0.029,0.145,101.95,121.3,40.493996,-3.38675,596.3,4,5,230.3,0.703
103.6,1,0.02,0.023,-0.026,0.007,0.0,-0.024,-1.524,0.025,0.144,101.95,121.3,40.493996,-3.38675,596.3,4,5,230.3,0.703
103.7,1,-0.065,0.01,-0.025,-0.02,0.01,-0.028,-1.524,0.027,0.144,101.95,121.3,40.493996,-3.38675,596.3,4,5,230.3,0.703
103.8,1,0.026,0.008,0.025,-0.019,0.012,-0.006,-1.523,0.026,0.144,101.95,121.3,40.493996,-3.38675,596.3,4,5,230.3,0.703
103.9,1,0.019,-0.012,0.027,0.011,0.003,0.013,-1.523,0.03,0.144,101.95,121.3,40.493996,-3.38675,596.3,4,5,230.3,0.703
104.0,1,0.022,-0.016,0.028,0.019,-0.01,0.026,-1.524,0.033,0.144,101.95,121.3,40.493996,-3.38675,596.3,4,5,230.3,0.703
104.1,1,-0.042,0.013,-0.014,-0.002,-0.006,0.015,-1.524,0.035,0.144,102.95,120.5,40.493793,-3.387067,596.0,4,5,229.9,0.352
104.2,1,0.012,0.014,-0.053,-0.015,0.012,-0.025,-1.519,0.038,0.143,102.95,120.5,40.493793,-3.387067,596.0,4,5,229.9,0.352
104.3,1,0.005,-0.01,-0.011,0.015,0.001,-0.022,-1.518,0.04,0.143,102.95,120.5,40.493793,-3.387067,596.0,4,5,229.9,0.352
104.4,1,-0.011,-0.022,0.023,-0.002,-0.013,-0.004,-1.518,0.037,0.143,102.95,120.5,40.493793,-3.387067,596.0,4,5,229.9,0.352
104.5,1,-0.032,-0.003,0.032,-0.015,-0.012,0.018,-1.52,0.035,0.143,102.95,120.5,40.493793,-3.387067,596.0,4,5,229.9,0.352
104.6,1,-0.016,0.009,-0.025,-0.022,0.002,0.007,-1.522,0.035,0.142,102.95,120.5,40.493793,-3.387067,596.0,4,5,229.9,0.352
104.7,1,-0.035,0.044,-0.009,-0.03,0.02,-0.013,-1.523,0.032,0.142,102.95,120.5,40.493793,-3.387067,596.0,4,5,229.9,0.352
104.8,1,0.008,0.037,0.056,-0.012,0.03,0.017,-1.525,0.032,0.141,102.95,120.5,40.493793,-3.387067,596.0,4,5,229.9,0.352
104.91,1,-0.034,0.046,0.075,-0.015,0.044,0.044,-1.526,0.034,0.141,102.95,120.5,40.493793,-3.387067,596.0,4,5,229.9,0.352
105.0,1,-0.029,0.014,0.079,-0.026,0.02,0.076,-1.527,0.035,0.14,102.95,120.5,40.493793,-3.387067,596.0,4,5,229.9,0.352
105.11,1,0.006,0.007,0.077,-0.019,0.022,0.075,-1.529,0.036,0.14,103.96,119.7,40.493599,-3.387372,595.9,4,5,229.6,0.703
105.2,1,0.016,-0.02,0.04,0.004,0.001,0.056,-1.528,0.035,0.139,103.96,119.7,40.493599,-3.387372,595.9,4,5,229.6,0.703
105.3,1,0.001,0.032,0.028,0.009,0.012,0.048,-1.53,0.03,0.139,103.96,119.7,40.493599,-3.387372,595.9,4,5,229.6,0.703
105.4,1,-0.076,0.026,0.032,-0.031,0.022,0.034,-1.53,0.028,0.138,103.96,119.7,40.493599,-3.387372,595.9,4,5,229.6,0.703
105.51,1,-0.025,-0.002,0.064,-0.038,0.012,0.049,-1.536,0.03,0.138,103.96,119.7,40.493599,-3.387372,595.9,4,5,229.6,0.703
105.61,1,0.02,0.031,0.034,-0.01,0.016,0.046,-1.538,0.027,0.138,103.96,119.7,40.493599,-3.387372,595.9,4,5,229.6,0.703
105.72,1,-0.032,0.01,0.044,-0.007,0.02,0.038,-1.542,0.03,0.137,103.96,119.7,40.493599,-3.387372,595.9,4,5,229.6,0.703
105.82,1,-0.01,0.011,0.076,-0.019,0.012,0.058,-1.548,0.034,0.137,103.96,119.7,40.493599,-3.387372,595.9,4,5,229.6,0.703
105.9,1,0.009,0.027,0.036,-0.012,0.021,0.052,-1.552,0.033,0.137,103.96,119.7,40.493599,-3.387372,595.9,4,5,229.6,0.703
106.0,1,0.014,0.021,0.042,0.011,0.017,0.042,-1.555,0.029,0.136,103.96,119.7,40.493599,-3.387372,595.9,4,5,229.6,0.703
106.1,1,-0.028,0.014,0.013,-0.016,0.017,0.027,-1.555,0.026,0.135,104.94,118.4,40.493408,-3.387681,595.8,4,5,229.2,0.703
106.21,1,-0.044,0.006,-0.01,-0.02,0.011,0.008,-1.553,0.026,0.135,104.94,118.4,40.493408,-3.387681,595.8,4,5,229.2,0.703
106.32,1,0.01,0.022,0.021,-0.014,0.019,0.01,-1.554,0.027,0.134,104.94,118.4,40.493408,-3.387681,595.8,4,5,229.2,0.703
106.4,1,0.045,0.02,0.012,0.013,0.022,0.018,-1.554,0.028,0.134,104.94,118.4,40.493408,-3.387681,595.8,4,5,229.2,0.703
106.51,1,0.106,0.024,0.001,0.06,0.017,0.016,-1.552,0.029,0.133,104.94,118.4,40.493408,-3.387681,595.8,4,5,229.2,0.703
106.61,1,0.017,0.036,0.043,0.067,0.028,0.015,-1.553,0.029,0.133,104.94,118.4,40.493408,-3.387681,595.8,4,5,229.2,0.703
106.71,1,-0.11,-0.001,0.022,-0.026,0.016,0.022,-1.556,0.032,0.133,104.94,118.4,40.493408,-3.387681,595.8,4,5,229.2,0.703
106.81,1,-0.047,0.012,0.095,-0.063,0.016,0.047,-1.56,0.033,0.133,104.94,118.4,40.493408,-3.387681,595.8,4,5,229.2,0.703
106.91,1,0.055,-0.009,0.072,-0.008,0.001,0.07,-1.564,0.033,0.134,104.94,118.4,40.493408,-3.387681,595.8,4,5,229.2,0.703
107.11,1,0.038,0.022,-0.027,0.029,0.008,0.01,-1.576,0.031,0.134,104.94,118.4,40.493408,-3.387681,595.8,4,5,229.2,0.703
107.21,1,-0.016,0.013,0.037,0.011,0.018,0.015,-1.578,0.033,0.134,105.95,116.4,40.493214,-3.387965,595.2,4,5,229.2,0.352
107.31,1,0.0,-0.03,0.027,-0.003,-0.004,0.024,-1.58,0.034,0.134,105.95,116.4,40.493214,-3.387965,595.2,4,5,229.2,0.352
107.42,1,0.017,-0.006,0.017,0.001,-0.017,0.017,-1.581,0.033,0.134,105.95,116.4,40.493214,-3.387965,595.2,4,5,229.2,0.352
107.52,1,-0.024,0.006,0.012,0.007,-0.005,0.018,-1.582,0.035,0.134,105.95,116.4,40.493214,-3.387965,595.2,4,5,229.2,0.352
107.62,1,0.003,0.018,0.028,-0.003,0.011,0.022,-1.579,0.033,0.134,105.95,116.4,40.493214,-3.387965,595.2,4,5,229.2,0.352
107.71,1,0.007,-0.011,0.002,0.003,0.002,0.011,-1.573,0.034,0.134,105.95,116.4,40.493214,-3.387965,595.2,4,5,229.2,0.352
107.81,1,-0.009,-0.031,-0.028,-0.002,-0.009,-0.002,-1.574,0.039,0.134,105.95,116.4,40.493214,-3.387965,595.2,4,5,229.2,0.352
107.91,1,-0.029,-0.025,-0.006,-0.017,-0.024,-0.007,-1.576,0.039,0.135,105.95,116.4,40.493214,-3.387965,595.2,4,5,229.2,0.352
108.02,1,0.002,-0.001,0.019,-0.012,-0.015,0.004,-1.576,0.038,0.135,105.95,116.4,40.493214,-3.387965,595.2,4,5,229.2,0.352
108.11,1,-0.007,-0.012,0.03,-0.001,-0.012,0.014,-1.577,0.037,0.135,105.95,116.4,40.493214,-3.387965,595.2,4,5,229.2,0.352
108.22,1,-0.018,-0.005,0.031,-0.021,-0.01,0.019,-1.576,0.037,0.136,106.99,119.3,40.493011,-3.388273,595.3,4,5,228.9,0.352
108.31,1,0.015,-0.01,0.022,0.003,-0.009,0.037,-1.577,0.038,0.136,106.99,119.3,40.493011,-3.388273,595.3,4,5,228.9,0.352
108.41,1,-0.038,0.012,-0.027,-0.006,0.002,0.001,-1.572,0.039,0.135,106.99,119.3,40.493011,-3.388273,595.3,4,5,228.9,0.352
108.51,1,-0.049,-0.016,-0.033,-0.035,-0.004,-0.017,-1.571,0.039,0.136,106.99,119.3,40.493011,-3.388273,595.3,4,5,228.9,0.352
108.61,1,-0.123,-0.037,0.035,-0.073,-0.017,-0.002,-1.578,0.04,0.137,106.99,119.3,40.493011,-3.388273,595.3,4,5,228.9,0.352
108.72,1,-0.026,-0.034,0.033,-0.069,-0.033,0.019,-1.581,0.04,0.137,106.99,119.3,40.493011,-3.388273,595.3,4,5,228.9,0.352
108.83,1,0.033,-0.008,0.015,-0.017,-0.023,0.025,-1.582,0.039,0.138,106.99,119.3,40.493011,-3.388273,595.3,4,5,228.9,0.352
108.92,1,0.047,0.009,-0.012,0.021,-0.008,0.002,-1.576,0.039,0.138,106.99,119.3,40.493011,-3.388273,595.3,4,5,228.9,0.352
109.01,1,0.028,0.007,-0.019,0.031,0.005,-0.014,-1.568,0.039,0.138,106.99,119.3,40.493011,-3.388273,595.3,4,5,228.9,0.352
109.12,1,0.021,-0.024,0.049,0.026,-0.01,0.016,-1.566,0.041,0.139,106.99,119.3,40.493011,-3.388273,595.3,4,5,228.9,0.352
109.22,1,-0.005,-0.027,0.037,0.01,-0.02,0.034,-1.571,0.046,0.14,107.95,120.7,40.492817,-3.388578,595.5,4,5,229.2,0.352
109.32,1,-0.054,0.004,0.004,-0.016,-0.007,0.017,-1.575,0.047,0.14,107.95,120.7,40.492817,-3.388578,595.5,4,5,229.2,0.352
109.42,1,-0.067,0.004,-0.021,-0.05,-0.005,0.004,-1.578,0.046,0.14,107.95,120.7,40.492817,-3.388578,595.5,4,5,229.2,0.352
109.51,1,0.03,0.003,0.005,-0.03,0.007,-0.01,-1.581,0.045,0.14,107.95,120.7,40.492817,-3.388578,595.5,4,5,229.2,0.352
109.61,1,0.033,-0.017,0.015,0.024,-0.009,0.012,-1.58,0.046,0.14,107.95,120.7,40.492817,-3.388578,595.5,4,5,229.2,0.352
109.72,1,-0.02,0.001,-0.02,0.005,-0.005,0.003,-1.574,0.044,0.14,107.95,120.7,40.492817,-3.388578,595.5,4,5,229.2,0.352
109.81,1,-0.037,0.007,-0.055,-0.016,-0.0,-0.034,-1.57,0.041,0.14,107.95,120.7,40.492817,-3.388578,595.5,4,5,229.2,0.352
