Timestamp_Accel,SystemActivated,accelerometerXAxis,accelerometerYAxis,accelerometerZAxis,AccelX_KF,AccelY_KF,AccelZ_KF,gyroscopeXAxis,gyroscopeYAxis,gyroscopeZAxis,Timestamp_GPS,Speed,latitude,longitude,Altitude,VerticalAccuracy,HorizontalAccuracy,Course,Difcourse
20.46,0,0.016,0.018,0.004,-0.009,0.013,-0.0,-1.571,0.015,0.023,20.5,0.0,40.517445,-3.409828,615.2,18,214,-1.0,-1.0
20.56,0,-0.017,0.013,-0.005,-0.005,0.012,0.0,-1.575,0.016,0.023,20.5,0.0,40.517445,-3.409828,615.2,18,214,-1.0,-1.0
20.66,0,0.02,0.011,-0.015,-0.003,0.014,-0.008,-1.574,0.018,0.023,20.5,0.0,40.517445,-3.409828,615.2,18,214,-1.0,-1.0
20.76,0,0.043,-0.006,-0.03,0.033,0.006,-0.02,-1.573,0.019,0.024,20.5,0.0,40.517445,-3.409828,615.2,18,214,-1.0,-1.0
20.88,0,0.019,-0.008,-0.005,0.022,-0.003,-0.018,-1.57,0.021,0.024,20.5,0.0,40.517445,-3.409828,615.2,18,214,-1.0,-1.0
20.96,0,0.024,-0.001,-0.0,0.024,-0.002,-0.009,-1.573,0.022,0.024,20.5,0.0,40.517445,-3.409828,615.2,18,214,-1.0,-1.0
21.08,0,0.002,0.011,-0.014,0.011,0.002,-0.008,-1.571,0.022,0.024,20.5,0.0,40.517445,-3.409828,615.2,18,214,-1.0,-1.0
21.16,0,-0.021,0.019,-0.016,-0.001,0.01,-0.014,-1.568,0.021,0.023,20.5,0.0,40.517445,-3.409828,615.2,18,214,-1.0,-1.0
21.26,0,0.031,-0.006,0.02,0.007,0.005,0.001,-1.568,0.023,0.023,20.5,0.0,40.517445,-3.409828,615.2,18,214,-1.0,-1.0
21.36,0,0.047,0.013,0.005,0.025,0.004,0.007,-1.566,0.023,0.022,20.5,0.0,40.517445,-3.409828,615.2,18,214,-1.0,-1.0
21.46,0,-0.003,0.017,0.005,0.022,0.012,0.004,-1.563,0.023,0.021,21.5,0.0,40.518185,-3.409276,620.0,48,30,319.6,0.0
21.57,1,-0.02,0.019,-0.008,0.001,0.019,0.003,-1.565,0.022,0.021,21.5,0.0,40.518185,-3.409276,620.0,48,30,319.6,0.0
21.66,1,-0.025,0.006,-0.006,-0.012,0.012,-0.002,-1.567,0.023,0.021,21.5,0.0,40.518185,-3.409276,620.0,48,30,319.6,0.0
21.76,1,-0.045,-0.013,0.014,-0.029,0.001,0.001,-1.57,0.026,0.021,21.5,0.0,40.518185,-3.409276,620.0,48,30,319.6,0.0
21.86,1,-0.021,-0.008,0.002,-0.037,-0.007,0.003,-1.572,0.03,0.021,21.5,0.0,40.518185,-3.409276,620.0,48,30,319.6,0.0
21.96,1,0.047,-0.009,0.015,0.002,-0.007,0.012,-1.571,0.033,0.021,21.5,0.0,40.518185,-3.409276,620.0,48,30,319.6,0.0
22.06,1,-0.013,-0.008,-0.023,0.007,-0.007,-0.004,-1.571,0.035,0.02,21.5,0.0,40.518185,-3.409276,620.0,48,30,319.6,0.0
22.16,1,0.002,0.004,-0.01,0.003,-0.004,-0.01,-1.569,0.035,0.02,21.5,0.0,40.518185,-3.409276,620.0,48,30,319.6,0.0
22.27,1,-0.045,0.001,-0.004,-0.015,-0.0,-0.007,-1.569,0.033,0.02,21.5,0.0,40.518185,-3.409276,620.0,48,30,319.6,0.0
22.36,1,-0.022,0.025,-0.01,-0.026,0.011,-0.007,-1.57,0.033,0.019,21.5,0.0,40.518185,-3.409276,620.0,48,30,319.6,0.0
22.46,1,-0.018,0.001,0.003,-0.024,0.009,-0.005,-1.571,0.031,0.019,22.53,82.3,40.518341,-3.409413,625.9,4,5,324.1,35.859
22.56,1,-0.003,-0.001,-0.012,-0.013,0.003,-0.002,-1.573,0.03,0.019,22.53,82.3,40.518341,-3.409413,625.9,4,5,324.1,35.859
22.66,1,0.001,0.001,-0.005,-0.005,0.003,-0.008,-1.572,0.029,0.019,22.53,82.3,40.518341,-3.409413,625.9,4,5,324.1,35.859
22.77,1,-0.006,0.013,-0.023,0.003,0.006,-0.01,-1.571,0.028,0.018,22.53,82.3,40.518341,-3.409413,625.9,4,5,324.1,35.859
22.87,1,-0.033,0.004,-0.015,-0.025,0.005,-0.02,-1.57,0.03,0.019,22.53,82.3,40.518341,-3.409413,625.9,4,5,324.1,35.859
22.97,1,-0.001,0.005,0.019,-0.014,0.005,-0.003,-1.571,0.033,0.02,22.53,82.3,40.518341,-3.409413,625.9,4,5,324.1,35.859
23.06,1,-0.044,-0.018,-0.015,-0.023,-0.002,-0.002,-1.572,0.036,0.02,22.53,82.3,40.518341,-3.409413,625.9,4,5,324.1,35.859
23.16,1,0.002,-0.017,-0.018,-0.017,-0.017,-0.009,-1.569,0.036,0.021,22.53,82.3,40.518341,-3.409413,625.9,4,5,324.1,35.859
23.26,1,0.0,0.013,-0.004,0.001,-0.004,-0.01,-1.567,0.034,0.02,22.53,82.3,40.518341,-3.409413,625.9,4,5,324.1,35.859
23.36,1,-0.018,0.029,0.012,-0.008,0.017,-0.0,-1.566,0.033,0.02,22.53,82.3,40.518341,-3.409413,625.9,4,5,324.1,35.859
23.46,1,0.025,0.036,0.006,-0.003,0.023,0.005,-1.568,0.032,0.02,23.53,84.2,40.518494,-3.409551,623.5,3,5,324.1,4.57
23.57,1,-0.034,0.007,0.008,-0.007,0.022,0.009,-1.567,0.032,0.019,23.53,84.2,40.518494,-3.409551,623.5,3,5,324.1,4.57
23.66,1,-0.019,0.01,0.004,-0.016,0.021,0.004,-1.567,0.03,0.019,23.53,84.2,40.518494,-3.409551,623.5,3,5,324.1,4.57
23.76,1,-0.025,-0.008,-0.023,-0.018,-0.001,-0.006,-1.566,0.028,0.019,23.53,84.2,40.518494,-3.409551,623.5,3,5,324.1,4.57
23.86,1,-0.026,-0.016,0.012,-0.026,-0.01,-0.005,-1.566,0.029,0.019,23.53,84.2,40.518494,-3.409551,623.5,3,5,324.1,4.57
23.97,1,0.019,-0.014,0.018,-0.009,-0.015,0.01,-1.568,0.025,0.018,23.53,84.2,40.518494,-3.409551,623.5,3,5,324.1,4.57
24.07,1,0.036,0.013,-0.026,0.014,-0.001,-0.003,-1.564,0.023,0.018,23.53,84.2,40.518494,-3.409551,623.5,3,5,324.1,4.57
24.18,1,0.004,0.007,0.0,0.019,0.006,-0.006,-1.563,0.021,0.018,23.53,84.2,40.518494,-3.409551,623.5,3,5,324.1,4.57
24.27,1,-0.018,-0.024,0.005,-0.007,-0.002,-0.005,-1.564,0.024,0.019,23.53,84.2,40.518494,-3.409551,623.5,3,5,324.1,4.57
24.37,1,-0.007,-0.039,0.009,-0.022,-0.022,0.004,-1.568,0.03,0.02,23.53,84.2,40.518494,-3.409551,623.5,3,5,324.1,4.57
24.47,1,-0.032,-0.019,-0.024,-0.007,-0.026,-0.005,-1.568,0.031,0.021,24.5,84.3,40.518654,-3.409704,622.7,3,5,324.8,0.703
24.57,1,-0.028,-0.018,-0.036,-0.018,-0.024,-0.023,-1.571,0.031,0.021,24.5,84.3,40.518654,-3.409704,622.7,3,5,324.8,0.703
24.67,1,-0.026,-0.017,-0.021,-0.027,-0.023,-0.019,-1.573,0.035,0.021,24.5,84.3,40.518654,-3.409704,622.7,3,5,324.8,0.703
24.77,1,-0.003,-0.003,-0.016,-0.013,-0.01,-0.022,-1.574,0.037,0.022,24.5,84.3,40.518654,-3.409704,622.7,3,5,324.8,0.703
24.87,1,0.032,0.005,0.006,0.015,-0.003,-0.007,-1.573,0.041,0.022,24.5,84.3,40.518654,-3.409704,622.7,3,5,324.8,0.703
24.97,1,0.031,0.002,-0.031,0.013,-0.001,-0.017,-1.57,0.043,0.022,24.5,84.3,40.518654,-3.409704,622.7,3,5,324.8,0.703
25.07,1,0.04,0.022,0.001,0.029,0.013,-0.019,-1.57,0.045,0.022,24.5,84.3,40.518654,-3.409704,622.7,3,5,324.8,0.703
25.17,1,0.011,0.017,-0.03,0.03,0.012,-0.007,-1.569,0.044,0.021,24.5,84.3,40.518654,-3.409704,622.7,3,5,324.8,0.703
25.28,1,0.037,0.019,-0.017,0.028,0.02,-0.029,-1.563,0.04,0.021,24.5,84.3,40.518654,-3.409704,622.7,3,5,324.8,0.703
25.37,1,-0.041,0.04,-0.037,0.005,0.026,-0.018,-1.562,0.032,0.019,24.5,84.3,40.518654,-3.409704,622.7,3,5,324.8,0.703
25.47,1,-0.079,0.043,-0.007,-0.048,0.039,-0.025,-1.564,0.027,0.018,25.5,84.3,40.518829,-3.409868,623.4,3,5,324.5,0.352
25.57,1,-0.035,0.023,0.003,-0.048,0.035,-0.011,-1.567,0.024,0.017,25.5,84.3,40.518829,-3.409868,623.4,3,5,324.5,0.352
25.67,1,0.063,0.016,-0.024,-0.004,0.024,-0.008,-1.569,0.021,0.016,25.5,84.3,40.518829,-3.409868,623.4,3,5,324.5,0.352
25.77,1,0.028,0.013,-0.06,0.033,0.017,-0.031,-1.566,0.019,0.016,25.5,84.3,40.518829,-3.409868,623.4,3,5,324.5,0.352
25.87,1,-0.023,0.017,-0.03,0.011,0.013,-0.041,-1.561,0.019,0.015,25.5,84.3,40.518829,-3.409868,623.4,3,5,324.5,0.352
25.98,1,0.008,-0.007,-0.032,0.002,0.007,-0.036,-1.56,0.018,0.015,25.5,84.3,40.518829,-3.409868,623.4,3,5,324.5,0.352
26.07,1,-0.008,0.012,-0.026,-0.004,0.011,-0.028,-1.557,0.017,0.015,25.5,84.3,40.518829,-3.409868,623.4,3,5,324.5,0.352
26.17,1,-0.008,0.003,-0.019,-0.005,0.001,-0.023,-1.555,0.018,0.015,25.5,84.3,40.518829,-3.409868,623.4,3,5,324.5,0.352
26.27,1,-0.104,-0.009,-0.078,-0.045,-0.001,-0.044,-1.552,0.017,0.014,25.5,84.3,40.518829,-3.409868,623.4,3,5,324.5,0.352
26.37,1,-0.001,-0.011,0.007,-0.044,-0.004,-0.038,-1.553,0.019,0.014,25.5,84.3,40.518829,-3.409868,623.4,3,5,324.5,0.352
26.47,1,-0.02,-0.041,-0.022,-0.02,-0.02,-0.014,-1.554,0.019,0.015,26.5,84.5,40.519009,-3.410038,622.3,3,5,324.5,0.352
26.57,1,0.018,-0.029,-0.044,-0.009,-0.032,-0.031,-1.55,0.018,0.015,26.5,84.5,40.519009,-3.410038,622.3,3,5,324.5,0.352
26.68,1,0.036,-0.016,-0.042,0.019,-0.025,-0.036,-1.545,0.018,0.015,26.5,84.5,40.519009,-3.410038,622.3,3,5,324.5,0.352
26.77,1,-0.002,-0.023,-0.053,0.015,-0.02,-0.042,-1.537,0.018,0.015,26.5,84.5,40.519009,-3.410038,622.3,3,5,324.5,0.352
26.87,1,0.05,0.001,-0.012,0.027,-0.012,-0.036,-1.534,0.018,0.015,26.5,84.5,40.519009,-3.410038,622.3,3,5,324.5,0.352
26.97,1,0.069,-0.015,-0.004,0.051,-0.01,-0.015,-1.533,0.021,0.015,26.5,84.5,40.519009,-3.410038,622.3,3,5,324.5,0.352
27.08,1,-0.013,-0.037,-0.053,0.022,-0.022,-0.031,-1.526,0.024,0.015,26.5,84.5,40.519009,-3.410038,622.3,3,5,324.5,0.352
27.17,1,-0.011,-0.003,-0.013,-0.002,-0.021,-0.03,-1.527,0.027,0.016,26.5,84.5,40.519009,-3.410038,622.3,3,5,324.5,0.352
27.27,1,-0.062,-0.015,-0.005,-0.025,-0.014,-0.014,-1.528,0.025,0.016,26.5,84.5,40.519009,-3.410038,622.3,3,5,324.5,0.352
27.37,1,-0.066,0.007,-0.011,-0.053,-0.007,-0.011,-1.527,0.024,0.015,26.5,84.5,40.519009,-3.410038,622.3,3,5,324.5,0.352
27.47,1,0.035,0.035,0.004,-0.026,0.014,-0.007,-1.526,0.02,0.013,27.56,83.8,40.519184,-3.410199,623.1,3,5,324.5,0.0
27.57,1,-0.017,0.033,-0.011,-0.001,0.025,0.0,-1.527,0.015,0.011,27.56,83.8,40.519184,-3.410199,623.1,3,5,324.5,0.0
27.67,1,0.012,0.042,-0.024,-0.001,0.036,-0.018,-1.526,0.011,0.01,27.56,83.8,40.519184,-3.410199,623.1,3,5,324.5,0.0
27.78,1,0.062,0.036,0.001,0.025,0.035,-0.007,-1.526,0.008,0.008,27.56,83.8,40.519184,-3.410199,623.1,3,5,324.5,0.0
27.88,1,0.001,0.014,0.02,0.031,0.029,0.004,-1.525,0.007,0.006,27.56,83.8,40.519184,-3.410199,623.1,3,5,324.5,0.0
27.98,1,-0.057,0.005,0.019,-0.016,0.016,0.014,-1.525,0.008,0.005,27.56,83.8,40.519184,-3.410199,623.1,3,5,324.5,0.0
28.08,1,-0.008,-0.007,0.027,-0.019,0.002,0.018,-1.528,0.008,0.003,27.56,83.8,40.519184,-3.410199,623.1,3,5,324.5,0.0
28.18,1,-0.077,-0.003,0.031,-0.039,-0.001,0.028,-1.533,0.009,0.002,27.56,83.8,40.519184,-3.410199,623.1,3,5,324.5,0.0
28.28,1,-0.06,0.006,0.043,-0.061,0.002,0.035,-1.535,0.008,0.001,27.56,83.8,40.519184,-3.410199,623.1,3,5,324.5,0.0
28.38,1,0.004,0.014,0.041,-0.033,0.006,0.038,-1.537,0.008,0.0,27.56,83.8,40.519184,-3.410199,623.1,3,5,324.5,0.0
28.48,1,0.007,-0.02,0.039,-0.007,0.001,0.04,-1.541,0.009,0.0,28.48,82.5,40.519352,-3.410354,624.1,3,5,324.5,0.0
28.58,1,0.033,-0.024,0.026,0.014,-0.013,0.038,-1.545,0.011,0.001,28.48,82.5,40.519352,-3.410354,624.1,3,5,324.5,0.0
28.68,1,0.038,-0.02,0.015,0.026,-0.021,0.021,-1.544,0.013,0.001,28.48,82.5,40.519352,-3.410354,624.1,3,5,324.5,0.0
28.78,1,-0.025,-0.038,0.005,0.008,-0.026,0.011,-1.547,0.015,0.001,28.48,82.5,40.519352,-3.410354,624.1,3,5,324.5,0.0
28.88,1,-0.053,-0.021,0.034,-0.021,-0.032,0.021,-1.55,0.016,0.001,28.48,82.5,40.519352,-3.410354,624.1,3,5,324.5,0.0
28.98,1,-0.0,-0.005,0.03,-0.028,-0.016,0.026,-1.553,0.016,0.002,28.48,82.5,40.519352,-3.410354,624.1,3,5,324.5,0.0
29.09,1,-0.026,-0.01,0.032,-0.013,-0.011,0.033,-1.556,0.017,0.002,28.48,82.5,40.519352,-3.410354,624.1,3,5,324.5,0.0
29.19,1,0.033,-0.011,0.029,-0.001,-0.012,0.031,-1.556,0.019,0.002,28.48,82.5,40.519352,-3.410354,624.1,3,5,324.5,0.0
29.28,1,0.023,-0.043,0.016,0.021,-0.019,0.021,-1.559,0.022,0.003,28.48,82.5,40.519352,-3.410354,624.1,3,5,324.5,0.0
29.38,1,-0.014,-0.015,0.013,0.008,-0.027,0.018,-1.559,0.025,0.003,28.48,82.5,40.519352,-3.410354,624.1,3,5,324.5,0.0
29.48,1,-0.057,-0.016,0.019,-0.024,-0.021,0.016,-1.559,0.025,0.004,29.5,80.5,40.519508,-3.410501,624.5,3,5,324.5,0.0
29.58,1,-0.059,-0.034,0.032,-0.046,-0.021,0.027,-1.563,0.023,0.004,29.5,80.5,40.519508,-3.410501,624.5,3,5,324.5,0.0
29.68,1,-0.028,-0.022,0.034,-0.042,-0.026,0.031,-1.566,0.022,0.005,29.5,80.5,40.519508,-3.410501,624.5,3,5,324.5,0.0
29.78,1,-0.01,-0.005,0.015,-0.032,-0.018,0.023,-1.567,0.022,0.005,29.5,80.5,40.519508,-3.410501,624.5,3,5,324.5,0.0
29.88,1,0.04,-0.023,0.026,0.002,-0.014,0.024,-1.569,0.021,0.006,29.5,80.5,40.519508,-3.410501,624.5,3,5,324.5,0.0
29.98,1,-0.028,-0.034,0.01,0.004,-0.022,0.018,-1.572,0.026,0.008,29.5,80.5,40.519508,-3.410501,624.5,3,5,324.5,0.0
30.08,1,0.002,-0.044,0.001,-0.002,-0.038,0.008,-1.574,0.029,0.009,29.5,80.5,40.519508,-3.410501,624.5,3,5,324.5,0.0
30.19,1,0.023,-0.013,0.009,0.005,-0.03,0.008,-1.574,0.028,0.009,29.5,80.5,40.519508,-3.410501,624.5,3,5,324.5,0.0
30.28,1,-0.02,0.02,0.023,0.003,-0.003,0.016,-1.573,0.025,0.009,29.5,80.5,40.519508,-3.410501,624.5,3,5,324.5,0.0
30.39,1,0.003,-0.001,0.02,-0.011,0.006,0.018,-1.573,0.025,0.01,29.5,80.5,40.519508,-3.410501,624.5,3,5,324.5,0.0
30.48,1,0.026,-0.017,0.013,0.015,-0.009,0.017,-1.572,0.027,0.01,30.5,84.7,40.519688,-3.410669,624.5,3,5,323.4,1.055
30.58,1,0.002,-0.016,0.026,0.011,-0.016,0.018,-1.571,0.029,0.011,30.5,84.7,40.519688,-3.410669,624.5,3,5,323.4,1.055
30.68,1,-0.017,0.017,-0.0,-0.005,-0.0,0.014,-1.572,0.029,0.011,30.5,84.7,40.519688,-3.410669,624.5,3,5,323.4,1.055
30.78,1,-0.022,0.005,0.015,-0.008,0.004,0.014,-1.576,0.028,0.011,30.5,84.7,40.519688,-3.410669,624.5,3,5,323.4,1.055
30.88,1,-0.013,0.015,0.032,-0.021,0.011,0.02,-1.581,0.028,0.011,30.5,84.7,40.519688,-3.410669,624.5,3,5,323.4,1.055
30.98,1,0.02,-0.018,0.012,-0.002,0.002,0.019,-1.58,0.028,0.012,30.5,84.7,40.519688,-3.410669,624.5,3,5,323.4,1.055
31.08,1,-0.005,0.008,-0.017,0.005,-0.003,0.005,-1.58,0.027,0.012,30.5,84.7,40.519688,-3.410669,624.5,3,5,323.4,1.055
31.18,1,-0.034,0.007,0.011,-0.013,0.007,-0.001,-1.581,0.026,0.012,30.5,84.7,40.519688,-3.410669,624.5,3,5,323.4,1.055
31.28,1,0.004,0.002,0.026,-0.01,0.003,0.014,-1.583,0.028,0.013,30.5,84.7,40.519688,-3.410669,624.5,3,5,323.4,1.055
31.39,1,-0.004,-0.015,-0.013,-0.006,-0.003,0.007,-1.582,0.029,0.013,30.5,84.7,40.519688,-3.410669,624.5,3,5,323.4,1.055
31.48,1,-0.022,-0.028,-0.012,-0.014,-0.017,-0.009,-1.58,0.03,0.014,31.5,82.4,40.519852,-3.410825,625.4,3,5,324.5,1.055
31.59,1,-0.006,-0.006,0.028,-0.014,-0.017,0.007,-1.582,0.031,0.014,31.5,82.4,40.519852,-3.410825,625.4,3,5,324.5,1.055
31.69,1,-0.027,-0.001,-0.021,-0.015,-0.009,-0.001,-1.585,0.03,0.014,31.5,82.4,40.519852,-3.410825,625.4,3,5,324.5,1.055
31.79,1,-0.016,0.003,-0.011,-0.024,-0.002,-0.011,-1.584,0.032,0.015,31.5,82.4,40.519852,-3.410825,625.4,3,5,324.5,1.055
31.89,1,0.024,-0.019,0.011,0.002,-0.008,0.002,-1.585,0.035,0.016,31.5,82.4,40.519852,-3.410825,625.4,3,5,324.5,1.055
31.99,1,-0.041,-0.015,-0.014,-0.008,-0.011,-0.003,-1.584,0.035,0.016,31.5,82.4,40.519852,-3.410825,625.4,3,5,324.5,1.055
32.09,1,-0.017,0.011,0.005,-0.023,-0.008,-0.001,-1.585,0.035,0.017,31.5,82.4,40.519852,-3.410825,625.4,3,5,324.5,1.055
32.19,1,-0.01,0.01,0.0,-0.014,0.007,-0.002,-1.587,0.036,0.017,31.5,82.4,40.519852,-3.410825,625.4,3,5,324.5,1.055
32.29,1,-0.031,0.015,-0.011,-0.019,0.011,-0.004,-1.587,0.034,0.017,31.5,82.4,40.519852,-3.410825,625.4,3,5,324.5,1.055
32.39,1,0.019,0.034,0.013,-0.007,0.02,-0.001,-1.587,0.03,0.017,31.5,82.4,40.519852,-3.410825,625.4,3,5,324.5,1.055
32.49,1,-0.02,0.027,-0.032,-0.007,0.027,-0.012,-1.587,0.027,0.015,32.49,82.8,40.52002,-3.41098,626.1,3,5,324.5,1.055
32.59,1,-0.014,0.045,0.015,-0.015,0.037,-0.005,-1.588,0.02,0.013,32.49,82.8,40.52002,-3.41098,626.1,3,5,324.5,1.055
32.69,1,-0.009,0.04,0.007,-0.014,0.035,0.008,-1.588,0.015,0.011,32.49,82.8,40.52002,-3.41098,626.1,3,5,324.5,1.055
32.79,1,0.042,0.074,0.003,0.016,0.056,0.003,-1.586,0.011,0.01,32.49,82.8,40.52002,-3.41098,626.1,3,5,324.5,1.055
32.89,1,-0.02,0.049,0.007,0.004,0.057,0.005,-1.584,0.011,0.008,32.49,82.8,40.52002,-3.41098,626.1,3,5,324.5,1.055
32.99,1,-0.011,0.028,0.013,-0.003,0.044,0.01,-1.585,0.01,0.007,32.49,82.8,40.52002,-3.41098,626.1,3,5,324.5,1.055
33.09,1,-0.026,0.03,-0.007,-0.019,0.034,0.003,-1.584,0.008,0.005,32.49,82.8,40.52002,-3.41098,626.1,3,5,324.5,1.055
33.19,1,-0.102,0.016,0.006,-0.054,0.026,0.004,-1.585,0.007,0.004,32.49,82.8,40.52002,-3.41098,626.1,3,5,324.5,1.055
33.3,1,-0.061,0.008,-0.009,-0.072,0.017,-0.005,-1.586,0.006,0.003,32.49,82.8,40.52002,-3.41098,626.1,3,5,324.5,1.055
33.39,1,-0.068,-0.029,-0.027,-0.059,-0.005,-0.008,-1.587,0.005,0.003,32.49,82.8,40.52002,-3.41098,626.1,3,5,324.5,1.055
33.49,1,-0.023,-0.023,0.014,-0.056,-0.026,-0.016,-1.59,0.002,0.002,33.5,83.7,40.520191,-3.411134,627.1,3,5,324.1,0.352
33.59,1,0.068,0.067,0.037,0.005,0.015,0.02,-1.593,-0.0,0.001,33.5,83.7,40.520191,-3.411134,627.1,3,5,324.1,0.352
33.69,1,0.001,-0.006,-0.065,0.018,0.019,-0.004,-1.588,0.005,0.001,33.5,83.7,40.520191,-3.411134,627.1,3,5,324.1,0.352
33.79,1,-0.048,-0.029,-0.014,-0.004,-0.003,-0.03,-1.589,0.006,0.002,33.5,83.7,40.520191,-3.411134,627.1,3,5,324.1,0.352
33.89,1,-0.07,-0.023,0.043,-0.046,-0.016,0.001,-1.593,0.008,0.002,33.5,83.7,40.520191,-3.411134,627.1,3,5,324.1,0.352
34.0,1,0.076,-0.009,0.021,-0.007,-0.013,0.028,-1.592,0.009,0.002,33.5,83.7,40.520191,-3.411134,627.1,3,5,324.1,0.352
34.1,1,0.022,0.007,-0.032,0.032,-0.006,-0.004,-1.587,0.008,0.001,33.5,83.7,40.520191,-3.411134,627.1,3,5,324.1,0.352
34.19,1,0.028,0.017,-0.014,0.03,0.007,-0.013,-1.586,0.009,0.001,33.5,83.7,40.520191,-3.411134,627.1,3,5,324.1,0.352
34.29,1,0.01,0.021,0.007,0.019,0.013,-0.003,-1.584,0.013,0.002,33.5,83.7,40.520191,-3.411134,627.1,3,5,324.1,0.352
34.39,1,-0.032,-0.02,-0.007,-0.005,0.002,-0.002,-1.583,0.015,0.002,33.5,83.7,40.520191,-3.411134,627.1,3,5,324.1,0.352
34.5,1,-0.088,-0.032,-0.007,-0.041,-0.018,-0.007,-1.582,0.017,0.002,34.49,84.6,40.520363,-3.411289,626.5,3,5,324.5,0.352
34.59,1,-0.07,-0.008,0.01,-0.075,-0.019,-0.001,-1.581,0.016,0.002,34.49,84.6,40.520363,-3.411289,626.5,3,5,324.5,0.352
34.7,1,0.009,0.017,0.04,-0.035,0.002,0.02,-1.583,0.015,0.002,34.49,84.6,40.520363,-3.411289,626.5,3,5,324.5,0.352
34.8,1,0.013,0.003,0.015,-0.005,0.008,0.018,-1.582,0.015,0.002,34.49,84.6,40.520363,-3.411289,626.5,3,5,324.5,0.352
34.89,1,0.091,-0.007,-0.033,0.048,0.001,-0.001,-1.581,0.016,0.002,34.49,84.6,40.520363,-3.411289,626.5,3,5,324.5,0.352
35.0,1,-0.039,-0.02,-0.026,0.024,-0.013,-0.02,-1.579,0.016,0.002,34.49,84.6,40.520363,-3.411289,626.5,3,5,324.5,0.352
35.1,1,-0.141,0.002,-0.011,-0.066,-0.01,-0.015,-1.581,0.014,0.002,34.49,84.6,40.520363,-3.411289,626.5,3,5,324.5,0.352
35.2,1,-0.092,0.021,0.049,-0.104,0.008,0.011,-1.586,0.014,0.002,34.49,84.6,40.520363,-3.411289,626.5,3,5,324.5,0.352
35.31,1,0.01,0.028,0.034,-0.049,0.018,0.031,-1.587,0.015,0.003,34.49,84.6,40.520363,-3.411289,626.5,3,5,324.5,0.352
35.4,1,0.107,0.02,-0.004,0.031,0.027,0.013,-1.582,0.022,0.003,34.49,84.6,40.520363,-3.411289,626.5,3,5,324.5,0.352
35.5,1,0.113,-0.022,-0.022,0.081,0.007,-0.007,-1.576,0.03,0.003,35.51,85.3,40.520538,-3.411452,626.5,3,5,324.8,0.703
35.6,1,0.025,-0.01,-0.021,0.075,-0.015,-0.01,-1.575,0.035,0.003,35.51,85.3,40.520538,-3.411452,626.5,3,5,324.8,0.703
35.7,1,0.01,-0.011,-0.018,0.027,-0.015,-0.022,-1.577,0.033,0.003,35.51,85.3,40.520538,-3.411452,626.5,3,5,324.8,0.703
35.8,1,-0.034,0.005,0.01,-0.002,-0.005,-0.007,-1.581,0.031,0.003,35.51,85.3,40.520538,-3.411452,626.5,3,5,324.8,0.703
35.9,1,-0.078,0.012,-0.011,-0.042,0.009,-0.003,-1.583,0.03,0.003,35.51,85.3,40.520538,-3.411452,626.5,3,5,324.8,0.703
36.0,1,-0.09,-0.003,-0.002,-0.077,0.004,-0.002,-1.584,0.03,0.003,35.51,85.3,40.520538,-3.411452,626.5,3,5,324.8,0.703
36.1,1,-0.027,0.01,0.03,-0.06,0.001,0.012,-1.585,0.03,0.004,35.51,85.3,40.520538,-3.411452,626.5,3,5,324.8,0.703
36.2,1,-0.034,-0.017,0.014,-0.028,0.001,0.012,-1.584,0.03,0.004,35.51,85.3,40.520538,-3.411452,626.5,3,5,324.8,0.703
36.3,1,-0.032,-0.004,-0.007,-0.033,-0.005,0.006,-1.585,0.029,0.004,35.51,85.3,40.520538,-3.411452,626.5,3,5,324.8,0.703
36.4,1,-0.027,-0.022,0.027,-0.031,-0.02,0.015,-1.585,0.029,0.004,35.51,85.3,40.520538,-3.411452,626.5,3,5,324.8,0.703
36.51,1,-0.031,-0.0,-0.007,-0.029,-0.007,0.008,-1.586,0.029,0.004,36.5,86.2,40.520714,-3.411617,626.3,3,5,324.8,0.352
36.6,1,0.009,-0.018,0.041,-0.013,-0.011,0.012,-1.586,0.027,0.004,36.5,86.2,40.520714,-3.411617,626.3,3,5,324.8,0.352
36.7,1,0.001,-0.015,-0.037,-0.003,-0.012,0.006,-1.584,0.025,0.005,36.5,86.2,40.520714,-3.411617,626.3,3,5,324.8,0.352
36.8,1,0.043,-0.029,-0.012,0.017,-0.018,-0.015,-1.581,0.026,0.005,36.5,86.2,40.520714,-3.411617,626.3,3,5,324.8,0.352
36.9,1,0.036,0.017,-0.013,0.02,-0.007,-0.012,-1.58,0.026,0.005,36.5,86.2,40.520714,-3.411617,626.3,3,5,324.8,0.352
37.0,1,0.053,0.0,-0.023,0.049,0.003,-0.017,-1.579,0.025,0.005,36.5,86.2,40.520714,-3.411617,626.3,3,5,324.8,0.352
37.11,1,-0.039,-0.006,-0.056,0.01,-0.006,-0.033,-1.576,0.026,0.005,36.5,86.2,40.520714,-3.411617,626.3,3,5,324.8,0.352
37.21,1,0.007,-0.019,-0.022,-0.008,-0.015,-0.035,-1.575,0.027,0.005,36.5,86.2,40.520714,-3.411617,626.3,3,5,324.8,0.352
37.3,1,-0.042,0.03,-0.018,-0.016,0.008,-0.025,-1.573,0.026,0.005,36.5,86.2,40.520714,-3.411617,626.3,3,5,324.8,0.352
37.4,1,0.0,0.039,0.003,-0.02,0.021,-0.012,-1.572,0.027,0.005,36.5,86.2,40.520714,-3.411617,626.3,3,5,324.8,0.352
37.5,1,-0.016,-0.054,0.004,-0.003,0.001,0.002,-1.575,0.031,0.005,37.51,86.8,40.520889,-3.411779,626.8,3,5,324.5,0.352
37.6,1,-0.022,0.007,0.006,-0.02,-0.016,-0.005,-1.577,0.031,0.005,37.51,86.8,40.520889,-3.411779,626.8,3,5,324.5,0.352
37.7,1,0.006,0.025,-0.008,-0.006,0.015,0.001,-1.578,0.029,0.005,37.51,86.8,40.520889,-3.411779,626.8,3,5,324.5,0.352
37.8,1,-0.033,0.04,0.02,-0.011,0.024,0.013,-1.583,0.025,0.004,37.51,86.8,40.520889,-3.411779,626.8,3,5,324.5,0.352
37.9,1,0.047,0.014,0.03,-0.0,0.031,0.015,-1.58,0.024,0.004,37.51,86.8,40.520889,-3.411779,626.8,3,5,324.5,0.352
38.0,1,0.012,0.013,-0.038,0.016,0.018,-0.01,-1.576,0.026,0.004,37.51,86.8,40.520889,-3.411779,626.8,3,5,324.5,0.352
38.1,1,-0.037,-0.015,-0.019,-0.014,-0.001,-0.011,-1.577,0.027,0.004,37.51,86.8,40.520889,-3.411779,626.8,3,5,324.5,0.352
38.21,1,-0.049,-0.009,0.024,-0.036,-0.007,-0.006,-1.581,0.028,0.003,37.51,86.8,40.520889,-3.411779,626.8,3,5,324.5,0.352
38.32,1,0.047,-0.012,0.017,0.004,-0.01,0.015,-1.582,0.03,0.003,37.51,86.8,40.520889,-3.411779,626.8,3,5,324.5,0.352
38.42,1,-0.004,-0.006,-0.047,0.015,-0.014,-0.007,-1.578,0.027,0.003,37.51,86.8,40.520889,-3.411779,626.8,3,5,324.5,0.352
38.51,1,-0.074,-0.001,-0.013,-0.022,-0.004,-0.023,-1.579,0.025,0.003,38.53,87.5,40.521069,-3.411946,626.8,3,5,324.5,0.352
38.61,1,-0.102,-0.026,-0.007,-0.068,-0.008,-0.012,-1.582,0.025,0.003,38.53,87.5,40.521069,-3.411946,626.8,3,5,324.5,0.352
38.71,1,-0.054,0.003,0.012,-0.078,-0.014,0.001,-1.583,0.026,0.003,38.53,87.5,40.521069,-3.411946,626.8,3,5,324.5,0.352
38.81,1,-0.01,-0.04,0.028,-0.043,-0.019,0.013,-1.583,0.025,0.003,38.53,87.5,40.521069,-3.411946,626.8,3,5,324.5,0.352
38.91,1,0.056,0.006,0.024,0.002,-0.01,0.016,-1.579,0.023,0.003,38.53,87.5,40.521069,-3.411946,626.8,3,5,324.5,0.352
39.01,1,-0.007,0.006,-0.025,0.015,-0.002,0.008,-1.576,0.023,0.003,38.53,87.5,40.521069,-3.411946,626.8,3,5,324.5,0.352
39.11,1,-0.036,0.009,-0.014,-0.014,0.005,-0.012,-1.577,0.022,0.003,38.53,87.5,40.521069,-3.411946,626.8,3,5,324.5,0.352
39.21,1,-0.054,-0.03,0.016,-0.029,-0.003,-0.005,-1.582,0.025,0.004,38.53,87.5,40.521069,-3.411946,626.8,3,5,324.5,0.352
39.31,1,-0.07,-0.027,-0.025,-0.057,-0.026,-0.003,-1.586,0.029,0.004,38.53,87.5,40.521069,-3.411946,626.8,3,5,324.5,0.352
39.42,1,0.043,-0.048,0.037,-0.02,-0.035,0.01,-1.587,0.028,0.003,38.53,87.5,40.521069,-3.411946,626.8,3,5,324.5,0.352
39.62,1,0.059,0.006,-0.029,0.047,0.003,-0.005,-1.584,0.027,0.003,39.49,87.4,40.521244,-3.412113,627.1,3,5,324.5,0.0
39.71,1,-0.026,0.024,-0.032,0.024,0.016,-0.023,-1.582,0.027,0.003,39.49,87.4,40.521244,-3.412113,627.1,3,5,324.5,0.0
39.82,1,-0.087,0.007,0.011,-0.033,0.017,-0.018,-1.584,0.025,0.003,39.49,87.4,40.521244,-3.412113,627.1,3,5,324.5,0.0
39.91,1,-0.01,-0.008,0.034,-0.046,-0.005,0.017,-1.585,0.028,0.002,39.49,87.4,40.521244,-3.412113,627.1,3,5,324.5,0.0
40.01,1,-0.026,0.012,0.007,-0.029,0.007,0.011,-1.584,0.028,0.002,39.49,87.4,40.521244,-3.412113,627.1,3,5,324.5,0.0
40.11,1,0.037,0.004,-0.017,0.002,0.002,0.002,-1.582,0.031,0.001,39.49,87.4,40.521244,-3.412113,627.1,3,5,324.5,0.0
40.21,1,0.026,0.013,0.018,0.023,0.01,0.005,-1.581,0.03,0.001,39.49,87.4,40.521244,-3.412113,627.1,3,5,324.5,0.0
40.31,1,0.028,-0.011,0.016,0.021,0.005,0.01,-1.583,0.029,0.001,39.49,87.4,40.521244,-3.412113,627.1,3,5,324.5,0.0
40.41,1,0.021,-0.007,0.024,0.026,-0.009,0.022,-1.584,0.029,0.001,39.49,87.4,40.521244,-3.412113,627.1,3,5,324.5,0.0
40.52,1,0.006,-0.002,0.016,0.014,-0.001,0.017,-1.584,0.027,0.001,39.49,87.4,40.521244,-3.412113,627.1,3,5,324.5,0.0
40.62,1,-0.021,0.014,-0.036,0.003,0.003,-0.01,-1.583,0.027,0.001,40.51,87.7,40.521423,-3.412281,627.6,3,5,324.5,0.0
40.71,1,-0.083,-0.054,0.018,-0.044,-0.016,-0.003,-1.583,0.031,0.002,40.51,87.7,40.521423,-3.412281,627.6,3,5,324.5,0.0
40.81,1,-0.044,-0.006,-0.004,-0.054,-0.024,-0.0,-1.584,0.034,0.003,40.51,87.7,40.521423,-3.412281,627.6,3,5,324.5,0.0
40.92,1,-0.044,-0.007,-0.024,-0.045,-0.013,-0.008,-1.583,0.034,0.003,40.51,87.7,40.521423,-3.412281,627.6,3,5,324.5,0.0
41.01,1,-0.099,-0.008,-0.013,-0.066,-0.008,-0.02,-1.586,0.033,0.003,40.51,87.7,40.521423,-3.412281,627.6,3,5,324.5,0.0
41.11,1,0.004,0.005,-0.024,-0.042,-0.001,-0.015,-1.588,0.035,0.004,40.51,87.7,40.521423,-3.412281,627.6,3,5,324.5,0.0
41.21,1,0.008,-0.004,-0.01,-0.013,-0.001,-0.017,-1.587,0.036,0.004,40.51,87.7,40.521423,-3.412281,627.6,3,5,324.5,0.0
41.32,1,-0.018,0.007,0.01,-0.003,-0.001,-0.002,-1.587,0.037,0.004,40.51,87.7,40.521423,-3.412281,627.6,3,5,324.5,0.0
41.41,1,-0.05,-0.012,0.003,-0.032,-0.007,0.0,-1.589,0.037,0.005,40.51,87.7,40.521423,-3.412281,627.6,3,5,324.5,0.0
41.51,1,-0.049,0.01,-0.01,-0.045,0.004,-0.003,-1.589,0.036,0.005,40.51,87.7,40.521423,-3.412281,627.6,3,5,324.5,0.0
41.61,1,-0.071,-0.001,-0.002,-0.054,0.001,0.0,-1.59,0.037,0.006,41.48,88.2,40.521599,-3.412445,628.0,3,5,324.8,0.352
41.71,1,0.011,0.0,0.013,-0.041,0.004,-0.002,-1.587,0.04,0.006,41.48,88.2,40.521599,-3.412445,628.0,3,5,324.8,0.352
41.82,1,0.074,0.009,-0.047,0.019,0.0,-0.007,-1.587,0.043,0.007,41.48,88.2,40.521599,-3.412445,628.0,3,5,324.8,0.352
41.92,1,0.011,0.018,0.01,0.037,0.011,-0.017,-1.585,0.043,0.007,41.48,88.2,40.521599,-3.412445,628.0,3,5,324.8,0.352
42.02,1,0.041,0.003,0.003,0.03,0.007,0.0,-1.588,0.042,0.007,41.48,88.2,40.521599,-3.412445,628.0,3,5,324.8,0.352
42.12,1,-0.063,-0.001,0.018,-0.003,0.004,0.009,-1.589,0.041,0.008,41.48,88.2,40.521599,-3.412445,628.0,3,5,324.8,0.352
42.22,1,-0.031,-0.005,-0.007,-0.031,0.004,0.006,-1.589,0.041,0.008,41.48,88.2,40.521599,-3.412445,628.0,3,5,324.8,0.352
42.32,1,-0.007,0.004,0.025,-0.024,-0.002,0.011,-1.59,0.044,0.008,41.48,88.2,40.521599,-3.412445,628.0,3,5,324.8,0.352
42.42,1,-0.05,-0.009,-0.026,-0.026,-0.002,-0.001,-1.59,0.044,0.009,41.48,88.2,40.521599,-3.412445,628.0,3,5,324.8,0.352
42.52,1,-0.074,0.014,-0.026,-0.052,0.002,-0.019,-1.59,0.04,0.009,41.48,88.2,40.521599,-3.412445,628.0,3,5,324.8,0.352
42.62,1,-0.008,-0.005,0.016,-0.042,0.005,-0.01,-1.592,0.039,0.009,42.48,88.5,40.521778,-3.412611,628.2,3,5,324.5,0.352
42.72,1,0.043,0.013,-0.017,0.003,0.0,0.002,-1.591,0.041,0.009,42.48,88.5,40.521778,-3.412611,628.2,3,5,324.5,0.352
42.82,1,0.008,-0.001,-0.009,0.012,0.009,-0.015,-1.588,0.039,0.009,42.48,88.5,40.521778,-3.412611,628.2,3,5,324.5,0.352
42.92,1,-0.021,0.001,0.003,-0.001,-0.001,0.002,-1.592,0.04,0.009,42.48,88.5,40.521778,-3.412611,628.2,3,5,324.5,0.352
43.02,1,-0.034,-0.002,-0.003,-0.013,0.004,-0.007,-1.591,0.041,0.009,42.48,88.5,40.521778,-3.412611,628.2,3,5,324.5,0.352
43.12,1,0.041,0.018,0.001,-0.008,0.004,-0.002,-1.591,0.038,0.009,42.48,88.5,40.521778,-3.412611,628.2,3,5,324.5,0.352
43.22,1,-0.051,0.003,0.012,-0.004,0.008,0.002,-1.592,0.036,0.009,42.48,88.5,40.521778,-3.412611,628.2,3,5,324.5,0.352
43.32,1,-0.044,0.018,-0.011,-0.038,0.007,0.003,-1.592,0.033,0.009,42.48,88.5,40.521778,-3.412611,628.2,3,5,324.5,0.352
43.42,1,-0.028,0.005,0.013,-0.035,0.012,0.001,-1.592,0.031,0.009,42.48,88.5,40.521778,-3.412611,628.2,3,5,324.5,0.352
43.52,1,0.002,0.022,-0.011,-0.021,0.013,0.004,-1.591,0.031,0.009,42.48,88.5,40.521778,-3.412611,628.2,3,5,324.5,0.352
43.62,1,-0.04,0.003,0.025,-0.011,0.015,0.002,-1.591,0.029,0.008,43.54,88.7,40.521957,-3.412782,629.2,3,5,324.5,0.352
43.72,1,-0.067,-0.003,-0.016,-0.041,0.001,0.005,-1.592,0.028,0.008,43.54,88.7,40.521957,-3.412782,629.2,3,5,324.5,0.352
43.82,1,-0.074,0.003,0.043,-0.065,0.005,0.011,-1.59,0.028,0.008,43.54,88.7,40.521957,-3.412782,629.2,3,5,324.5,0.352
43.92,1,-0.005,-0.008,-0.001,-0.048,-0.006,0.02,-1.588,0.027,0.008,43.54,88.7,40.521957,-3.412782,629.2,3,5,324.5,0.352
44.02,1,-0.008,0.021,-0.034,-0.017,0.008,-0.012,-1.586,0.025,0.008,43.54,88.7,40.521957,-3.412782,629.2,3,5,324.5,0.352
44.12,1,-0.013,0.016,0.003,-0.013,0.012,-0.01,-1.587,0.022,0.007,43.54,88.7,40.521957,-3.412782,629.2,3,5,324.5,0.352
44.23,1,0.008,-0.009,-0.003,-0.001,0.007,-0.003,-1.588,0.022,0.007,43.54,88.7,40.521957,-3.412782,629.2,3,5,324.5,0.352
44.32,1,-0.049,-0.04,-0.019,-0.02,-0.018,-0.008,-1.587,0.022,0.007,43.54,88.7,40.521957,-3.412782,629.2,3,5,324.5,0.352
44.43,1,-0.082,-0.019,0.012,-0.054,-0.022,-0.009,-1.586,0.023,0.007,43.54,88.7,40.521957,-3.412782,629.2,3,5,324.5,0.352
44.53,1,-0.037,-0.032,0.022,-0.058,-0.029,0.017,-1.588,0.023,0.008,43.54,88.7,40.521957,-3.412782,629.2,3,5,324.5,0.352
44.62,1,-0.031,-0.011,-0.036,-0.037,-0.019,-0.005,-1.588,0.021,0.009,44.51,89.0,40.522137,-3.412954,629.7,3,5,324.1,0.352
44.72,1,-0.075,-0.04,0.005,-0.052,-0.022,-0.012,-1.59,0.02,0.01,44.51,89.0,40.522137,-3.412954,629.7,3,5,324.1,0.352
44.82,1,0.012,-0.015,0.022,-0.03,-0.027,0.004,-1.591,0.022,0.011,44.51,89.0,40.522137,-3.412954,629.7,3,5,324.1,0.352
44.93,1,-0.018,-0.044,0.017,-0.013,-0.032,0.019,-1.591,0.022,0.012,44.51,89.0,40.522137,-3.412954,629.7,3,5,324.1,0.352
45.02,1,0.031,0.006,0.01,-0.004,-0.02,0.012,-1.592,0.02,0.013,44.51,89.0,40.522137,-3.412954,629.7,3,5,324.1,0.352
45.13,1,0.017,0.004,0.023,0.022,0.001,0.017,-1.593,0.019,0.015,44.51,89.0,40.522137,-3.412954,629.7,3,5,324.1,0.352
45.23,1,0.011,-0.009,-0.014,0.006,-0.002,0.005,-1.59,0.018,0.016,44.51,89.0,40.522137,-3.412954,629.7,3,5,324.1,0.352
45.33,1,-0.013,-0.029,-0.014,0.009,-0.015,-0.005,-1.589,0.019,0.019,44.51,89.0,40.522137,-3.412954,629.7,3,5,324.1,0.352
45.43,1,-0.059,-0.055,0.012,-0.026,-0.035,-0.001,-1.592,0.024,0.02,44.51,89.0,40.522137,-3.412954,629.7,3,5,324.1,0.352
45.53,1,0.009,-0.009,-0.007,-0.019,-0.024,-0.002,-1.594,0.025,0.022,44.51,89.0,40.522137,-3.412954,629.7,3,5,324.1,0.352
45.64,1,-0.025,-0.026,0.016,-0.026,-0.028,0.002,-1.595,0.029,0.023,45.51,90.1,40.522324,-3.413128,629.9,3,5,324.8,0.703
45.73,1,0.126,-0.009,0.02,0.038,-0.018,0.021,-1.594,0.03,0.025,45.51,90.1,40.522324,-3.413128,629.9,3,5,324.8,0.703
45.83,1,0.029,-0.012,-0.032,0.066,-0.016,-0.009,-1.591,0.032,0.027,45.51,90.1,40.522324,-3.413128,629.9,3,5,324.8,0.703
45.93,1,-0.059,-0.019,-0.008,0.004,-0.012,-0.014,-1.59,0.032,0.028,45.51,90.1,40.522324,-3.413128,629.9,3,5,324.8,0.703
46.03,1,-0.036,-0.04,0.04,-0.035,-0.026,0.014,-1.592,0.031,0.03,45.51,90.1,40.522324,-3.413128,629.9,3,5,324.8,0.703
46.14,1,0.024,-0.014,-0.005,-0.002,-0.028,0.014,-1.594,0.03,0.031,45.51,90.1,40.522324,-3.413128,629.9,3,5,324.8,0.703
46.23,1,-0.028,-0.006,-0.01,-0.009,-0.015,-0.005,-1.592,0.027,0.032,45.51,90.1,40.522324,-3.413128,629.9,3,5,324.8,0.703
46.33,1,-0.066,0.014,-0.006,-0.04,0.001,-0.005,-1.593,0.025,0.034,45.51,90.1,40.522324,-3.413128,629.9,3,5,324.8,0.703
46.43,1,0.009,-0.007,0.011,-0.03,0.002,-0.001,-1.594,0.025,0.036,45.51,90.1,40.522324,-3.413128,629.9,3,5,324.8,0.703
46.53,1,-0.045,-0.035,0.016,-0.024,-0.017,0.011,-1.595,0.027,0.038,45.51,90.1,40.522324,-3.413128,629.9,3,5,324.8,0.703
46.63,1,0.035,-0.033,0.01,-0.011,-0.027,0.01,-1.595,0.028,0.041,46.5,88.1,40.522499,-3.413295,630.8,3,5,323.8,1.055
46.73,1,-0.017,-0.027,-0.013,0.008,-0.031,0.003,-1.593,0.029,0.043,46.5,88.1,40.522499,-3.413295,630.8,3,5,323.8,1.055
46.83,1,-0.021,-0.01,-0.015,-0.012,-0.021,-0.012,-1.593,0.031,0.046,46.5,88.1,40.522499,-3.413295,630.8,3,5,323.8,1.055
46.93,1,-0.023,-0.049,0.038,-0.02,-0.027,0.007,-1.596,0.033,0.049,46.5,88.1,40.522499,-3.413295,630.8,3,5,323.8,1.055
47.03,1,-0.018,-0.04,-0.02,-0.02,-0.043,0.006,-1.596,0.035,0.051,46.5,88.1,40.522499,-3.413295,630.8,3,5,323.8,1.055
47.13,1,-0.021,-0.007,-0.013,-0.02,-0.025,-0.012,-1.592,0.034,0.054,46.5,88.1,40.522499,-3.413295,630.8,3,5,323.8,1.055
47.23,1,0.017,-0.031,0.031,-0.006,-0.021,0.009,-1.595,0.034,0.057,46.5,88.1,40.522499,-3.413295,630.8,3,5,323.8,1.055
47.34,1,-0.003,-0.025,-0.011,0.002,-0.028,0.005,-1.593,0.034,0.06,46.5,88.1,40.522499,-3.413295,630.8,3,5,323.8,1.055
47.43,1,0.015,-0.031,-0.004,-0.0,-0.027,-0.003,-1.59,0.035,0.064,46.5,88.1,40.522499,-3.413295,630.8,3,5,323.8,1.055
47.54,1,0.011,-0.017,-0.007,0.018,-0.026,-0.004,-1.591,0.038,0.067,46.5,88.1,40.522499,-3.413295,630.8,3,5,323.8,1.055
47.63,1,-0.051,-0.025,0.007,-0.016,-0.021,0.0,-1.591,0.04,0.07,47.5,87.7,40.522671,-3.413468,631.5,3,5,323.1,1.758
47.73,1,-0.074,-0.015,-0.008,-0.045,-0.021,-0.001,-1.592,0.041,0.073,47.5,87.7,40.522671,-3.413468,631.5,3,5,323.1,1.758
47.83,1,0.007,-0.022,0.024,-0.032,-0.016,0.004,-1.594,0.039,0.076,47.5,87.7,40.522671,-3.413468,631.5,3,5,323.1,1.758
47.93,1,0.02,-0.025,-0.003,-0.004,-0.026,0.011,-1.595,0.041,0.08,47.5,87.7,40.522671,-3.413468,631.5,3,5,323.1,1.758
48.03,1,0.027,-0.004,-0.019,0.019,-0.015,-0.009,-1.593,0.04,0.083,47.5,87.7,40.522671,-3.413468,631.5,3,5,323.1,1.758
48.14,1,-0.062,-0.011,0.013,-0.016,-0.012,0.001,-1.594,0.037,0.086,47.5,87.7,40.522671,-3.413468,631.5,3,5,323.1,1.758
48.23,1,-0.003,-0.003,0.006,-0.019,-0.007,0.003,-1.594,0.036,0.089,47.5,87.7,40.522671,-3.413468,631.5,3,5,323.1,1.758
48.33,1,-0.086,-0.033,0.003,-0.038,-0.015,0.006,-1.593,0.037,0.092,47.5,87.7,40.522671,-3.413468,631.5,3,5,323.1,1.758
48.43,1,-0.024,-0.003,-0.002,-0.056,-0.017,-0.001,-1.591,0.034,0.095,47.5,87.7,40.522671,-3.413468,631.5,3,5,323.1,1.758
48.53,1,0.026,-0.014,-0.015,-0.004,-0.012,-0.004,-1.591,0.032,0.098,47.5,87.7,40.522671,-3.413468,631.5,3,5,323.1,1.758
48.64,1,0.057,0.008,-0.013,0.018,-0.004,-0.009,-1.588,0.03,0.101,48.49,89.9,40.522846,-3.413646,632.0,3,5,321.7,2.109
48.74,1,-0.023,0.01,0.001,0.021,0.005,-0.01,-1.588,0.029,0.104,48.49,89.9,40.522846,-3.413646,632.0,3,5,321.7,2.109
48.84,1,-0.025,-0.027,0.013,-0.017,-0.004,0.006,-1.59,0.03,0.108,48.49,89.9,40.522846,-3.413646,632.0,3,5,321.7,2.109
48.93,1,0.018,-0.015,-0.01,-0.007,-0.015,0.001,-1.591,0.03,0.111,48.49,89.9,40.522846,-3.413646,632.0,3,5,321.7,2.109
49.04,1,-0.064,-0.018,0.03,-0.029,-0.017,0.011,-1.59,0.029,0.114,48.49,89.9,40.522846,-3.413646,632.0,3,5,321.7,2.109
49.14,1,-0.014,0.0,-0.008,-0.027,-0.012,0.004,-1.589,0.026,0.117,48.49,89.9,40.522846,-3.413646,632.0,3,5,321.7,2.109
49.24,1,0.001,0.011,0.016,-0.009,0.003,0.011,-1.588,0.02,0.121,48.49,89.9,40.522846,-3.413646,632.0,3,5,321.7,2.109
49.34,1,-0.008,0.01,0.004,-0.006,0.009,0.008,-1.588,0.017,0.124,48.49,89.9,40.522846,-3.413646,632.0,3,5,321.7,2.109
49.44,1,0.02,-0.045,0.026,0.003,-0.008,0.012,-1.591,0.02,0.129,48.49,89.9,40.522846,-3.413646,632.0,3,5,321.7,2.109
49.54,1,-0.099,-0.062,-0.014,-0.033,-0.043,0.008,-1.592,0.022,0.133,48.49,89.9,40.522846,-3.413646,632.0,3,5,321.7,2.109
49.74,1,0.069,-0.036,-0.01,0.001,-0.058,0.004,-1.591,0.022,0.142,49.53,89.8,40.52301,-3.413834,633.3,3,5,319.9,3.164
49.85,1,0.1,-0.003,-0.019,0.063,-0.029,-0.004,-1.59,0.02,0.146,49.53,89.8,40.52301,-3.413834,633.3,3,5,319.9,3.164
49.94,1,0.105,-0.037,-0.033,0.087,-0.019,-0.024,-1.59,0.021,0.151,49.53,89.8,40.52301,-3.413834,633.3,3,5,319.9,3.164
50.04,1,-0.061,-0.057,-0.026,0.034,-0.043,-0.029,-1.591,0.026,0.155,49.53,89.8,40.52301,-3.413834,633.3,3,5,319.9,3.164
50.14,1,-0.121,-0.034,-0.013,-0.052,-0.045,-0.019,-1.592,0.028,0.159,49.53,89.8,40.52301,-3.413834,633.3,3,5,319.9,3.164
50.24,1,-0.141,0.034,0.013,-0.106,-0.013,-0.01,-1.596,0.029,0.162,49.53,89.8,40.52301,-3.413834,633.3,3,5,319.9,3.164
50.35,1,-0.042,0.001,0.041,-0.105,0.009,0.023,-1.601,0.03,0.166,49.53,89.8,40.52301,-3.413834,633.3,3,5,319.9,3.164
50.44,1,0.058,-0.019,-0.04,-0.007,-0.009,0.002,-1.599,0.032,0.169,49.53,89.8,40.52301,-3.413834,633.3,3,5,319.9,3.164
50.55,1,0.063,0.004,-0.005,0.038,-0.002,-0.016,-1.598,0.033,0.173,49.53,89.8,40.52301,-3.413834,633.3,3,5,319.9,3.164
50.64,1,0.128,-0.015,0.008,0.077,-0.005,-0.001,-1.594,0.036,0.176,49.53,89.8,40.52301,-3.413834,633.3,3,5,319.9,3.164
50.74,1,0.07,-0.003,-0.034,0.093,-0.011,-0.01,-1.594,0.036,0.18,50.5,89.6,40.52317,-3.414037,634.5,3,5,317.8,3.867
50.84,1,-0.09,0.004,-0.029,0.008,0.0,-0.027,-1.592,0.035,0.183,50.5,89.6,40.52317,-3.414037,634.5,3,5,317.8,3.867
50.94,1,-0.118,-0.002,0.02,-0.068,0.001,-0.011,-1.592,0.035,0.187,50.5,89.6,40.52317,-3.414037,634.5,3,5,317.8,3.867
51.04,1,-0.085,-0.007,0.031,-0.086,-0.006,0.023,-1.592,0.034,0.19,50.5,89.6,40.52317,-3.414037,634.5,3,5,317.8,3.867
51.14,1,-0.023,0.019,-0.057,-0.069,0.0,-0.015,-1.59,0.034,0.194,50.5,89.6,40.52317,-3.414037,634.5,3,5,317.8,3.867
51.25,1,0.047,-0.022,0.024,-0.009,-0.001,-0.005,-1.592,0.032,0.197,50.5,89.6,40.52317,-3.414037,634.5,3,5,317.8,3.867
51.34,1,0.017,0.025,-0.039,0.023,0.005,-0.014,-1.59,0.028,0.2,50.5,89.6,40.52317,-3.414037,634.5,3,5,317.8,3.867
51.44,1,0.043,0.003,0.023,0.025,0.012,-0.009,-1.588,0.028,0.203,50.5,89.6,40.52317,-3.414037,634.5,3,5,317.8,3.867
51.54,1,-0.035,0.023,-0.004,0.012,0.012,0.004,-1.59,0.03,0.206,50.5,89.6,40.52317,-3.414037,634.5,3,5,317.8,3.867
51.64,1,-0.012,0.007,0.0,-0.013,0.014,-0.001,-1.589,0.027,0.209,50.5,89.6,40.52317,-3.414037,634.5,3,5,317.8,3.867
51.75,1,-0.014,0.011,-0.012,-0.016,0.009,-0.006,-1.588,0.024,0.211,51.57,89.6,40.523335,-3.414246,635.4,3,5,315.7,4.219
51.84,1,-0.026,0.033,0.014,-0.015,0.021,0.002,-1.587,0.02,0.213,51.57,89.6,40.523335,-3.414246,635.4,3,5,315.7,4.219
51.94,1,-0.036,0.012,0.008,-0.024,0.019,0.008,-1.589,0.016,0.216,51.57,89.6,40.523335,-3.414246,635.4,3,5,315.7,4.219
52.04,1,0.005,0.026,-0.026,-0.019,0.018,-0.006,-1.588,0.013,0.218,51.57,89.6,40.523335,-3.414246,635.4,3,5,315.7,4.219
52.14,1,0.012,0.018,0.009,0.006,0.023,-0.005,-1.587,0.008,0.22,51.57,89.6,40.523335,-3.414246,635.4,3,5,315.7,4.219
52.24,1,-0.054,0.008,-0.004,-0.024,0.013,0.002,-1.588,0.008,0.222,51.57,89.6,40.523335,-3.414246,635.4,3,5,315.7,4.219
52.34,1,-0.018,-0.012,-0.034,-0.028,0.002,-0.016,-1.588,0.005,0.224,51.57,89.6,40.523335,-3.414246,635.4,3,5,315.7,4.219
52.44,1,0.013,0.022,-0.005,-0.006,0.007,-0.017,-1.584,0.004,0.226,51.57,89.6,40.523335,-3.414246,635.4,3,5,315.7,4.219
52.55,1,0.052,0.005,0.011,0.016,0.015,-0.002,-1.583,0.005,0.228,51.57,89.6,40.523335,-3.414246,635.4,3,5,315.7,4.219
52.64,1,0.029,0.012,-0.005,0.04,0.005,0.001,-1.583,0.005,0.229,51.57,89.6,40.523335,-3.414246,635.4,3,5,315.7,4.219
52.75,1,-0.006,0.044,0.011,0.014,0.03,-0.001,-1.582,0.001,0.231,52.49,89.6,40.523491,-3.41446,636.1,3,5,313.2,4.57
52.84,1,-0.037,0.017,0.029,-0.016,0.024,0.016,-1.58,-0.0,0.234,52.49,89.6,40.523491,-3.41446,636.1,3,5,313.2,4.57
52.95,1,-0.029,0.006,-0.005,-0.027,0.013,0.009,-1.577,-0.0,0.236,52.49,89.6,40.523491,-3.41446,636.1,3,5,313.2,4.57
53.05,1,-0.033,0.011,0.019,-0.028,0.014,0.01,-1.579,-0.001,0.238,52.49,89.6,40.523491,-3.41446,636.1,3,5,313.2,4.57
53.15,1,0.056,-0.007,0.002,0.003,0.004,0.013,-1.581,-0.001,0.24,52.49,89.6,40.523491,-3.41446,636.1,3,5,313.2,4.57
53.26,1,0.008,-0.005,-0.004,0.029,-0.003,0.004,-1.579,-0.001,0.242,52.49,89.6,40.523491,-3.41446,636.1,3,5,313.2,4.57
53.35,1,-0.002,0.003,-0.004,-0.002,-0.001,-0.007,-1.576,0.001,0.244,52.49,89.6,40.523491,-3.41446,636.1,3,5,313.2,4.57
53.45,1,-0.0,-0.004,0.065,0.008,0.001,0.026,-1.577,0.005,0.246,52.49,89.6,40.523491,-3.41446,636.1,3,5,313.2,4.57
53.55,1,-0.027,-0.019,-0.022,-0.015,-0.016,0.018,-1.576,0.009,0.249,52.49,89.6,40.523491,-3.41446,636.1,3,5,313.2,4.57
53.65,1,-0.017,0.011,0.003,-0.03,-0.0,-0.005,-1.575,0.009,0.251,52.49,89.6,40.523491,-3.41446,636.1,3,5,313.2,4.57
53.76,1,0.017,-0.028,0.022,-0.003,-0.01,0.017,-1.58,0.011,0.253,53.48,89.7,40.523636,-3.414681,637.0,3,5,311.1,4.57
53.85,1,0.021,0.025,-0.015,0.024,0.001,0.002,-1.58,0.011,0.255,53.48,89.7,40.523636,-3.414681,637.0,3,5,311.1,4.57
53.95,1,0.025,0.006,-0.001,0.014,0.01,-0.001,-1.576,0.013,0.258,53.48,89.7,40.523636,-3.414681,637.0,3,5,311.1,4.57
54.05,1,0.11,0.017,0.038,0.057,0.011,0.016,-1.575,0.018,0.26,53.48,89.7,40.523636,-3.414681,637.0,3,5,311.1,4.57
54.15,1,-0.052,0.014,-0.015,0.017,0.012,0.006,-1.57,0.019,0.263,53.48,89.7,40.523636,-3.414681,637.0,3,5,311.1,4.57
54.25,1,-0.014,0.007,0.022,0.003,0.014,0.008,-1.57,0.019,0.265,53.48,89.7,40.523636,-3.414681,637.0,3,5,311.1,4.57
54.36,1,-0.038,-0.001,0.002,-0.02,0.004,0.009,-1.573,0.02,0.267,53.48,89.7,40.523636,-3.414681,637.0,3,5,311.1,4.57
54.46,1,-0.024,-0.012,0.056,-0.024,-0.006,0.023,-1.575,0.021,0.27,53.48,89.7,40.523636,-3.414681,637.0,3,5,311.1,4.57
54.55,1,0.065,0.011,-0.004,0.016,0.001,0.031,-1.577,0.021,0.273,53.48,89.7,40.523636,-3.414681,637.0,3,5,311.1,4.57
54.65,1,-0.001,0.006,-0.022,0.021,0.005,-0.01,-1.572,0.021,0.275,53.48,89.7,40.523636,-3.414681,637.0,3,5,311.1,4.57
54.75,1,0.002,-0.003,0.002,0.003,0.001,-0.006,-1.573,0.024,0.278,54.51,89.9,40.523785,-3.414909,637.8,3,5,309.7,3.516
54.85,1,0.02,0.002,-0.002,0.007,0.004,0.001,-1.574,0.026,0.281,54.51,89.9,40.523785,-3.414909,637.8,3,5,309.7,3.516
54.97,1,-0.023,-0.016,0.018,0.003,-0.003,0.004,-1.573,0.028,0.283,54.51,89.9,40.523785,-3.414909,637.8,3,5,309.7,3.516
55.05,1,0.001,0.021,0.039,-0.005,-0.003,0.024,-1.572,0.026,0.286,54.51,89.9,40.523785,-3.414909,637.8,3,5,309.7,3.516
55.15,1,0.012,0.016,-0.023,0.001,0.014,0.008,-1.571,0.024,0.287,54.51,89.9,40.523785,-3.414909,637.8,3,5,309.7,3.516
55.26,1,-0.023,0.016,0.03,-0.001,0.016,0.011,-1.575,0.021,0.289,54.51,89.9,40.523785,-3.414909,637.8,3,5,309.7,3.516
55.36,1,-0.027,0.03,-0.005,-0.022,0.023,0.008,-1.574,0.019,0.291,54.51,89.9,40.523785,-3.414909,637.8,3,5,309.7,3.516
55.45,1,-0.009,0.001,0.022,-0.022,0.016,0.006,-1.575,0.017,0.293,54.51,89.9,40.523785,-3.414909,637.8,3,5,309.7,3.516
55.56,1,0.033,-0.033,0.036,0.009,-0.011,0.027,-1.577,0.022,0.295,54.51,89.9,40.523785,-3.414909,637.8,3,5,309.7,3.516
55.66,1,-0.02,0.006,-0.028,0.004,-0.009,0.003,-1.573,0.02,0.297,54.51,89.9,40.523785,-3.414909,637.8,3,5,309.7,3.516
55.75,1,0.022,0.031,0.027,0.002,0.013,0.006,-1.575,0.017,0.299,55.55,90.3,40.523918,-3.415156,638.5,3,5,307.6,3.516
55.85,1,0.017,0.002,0.041,0.013,0.012,0.029,-1.578,0.02,0.301,55.55,90.3,40.523918,-3.415156,638.5,3,5,307.6,3.516
55.95,1,0.027,0.029,-0.019,0.02,0.015,0.01,-1.578,0.02,0.303,55.55,90.3,40.523918,-3.415156,638.5,3,5,307.6,3.516
56.05,1,-0.03,-0.013,-0.007,0.007,0.009,-0.006,-1.576,0.022,0.305,55.55,90.3,40.523918,-3.415156,638.5,3,5,307.6,3.516
56.16,1,-0.028,0.015,0.0,-0.022,0.004,-0.003,-1.577,0.021,0.307,55.55,90.3,40.523918,-3.415156,638.5,3,5,307.6,3.516
56.26,1,-0.02,0.014,0.012,-0.012,0.008,0.012,-1.579,0.019,0.309,55.55,90.3,40.523918,-3.415156,638.5,3,5,307.6,3.516
56.36,1,0.051,-0.002,0.012,-0.003,0.013,0.004,-1.578,0.018,0.31,55.55,90.3,40.523918,-3.415156,638.5,3,5,307.6,3.516
56.46,1,0.068,-0.006,0.005,0.051,-0.0,0.012,-1.577,0.017,0.312,55.55,90.3,40.523918,-3.415156,638.5,3,5,307.6,3.516
56.56,1,0.002,0.006,0.008,0.029,0.001,0.006,-1.576,0.017,0.313,55.55,90.3,40.523918,-3.415156,638.5,3,5,307.6,3.516
56.66,1,-0.046,0.0,-0.002,-0.005,-0.002,0.005,-1.578,0.017,0.315,55.55,90.3,40.523918,-3.415156,638.5,3,5,307.6,3.516
56.77,1,-0.047,-0.014,0.028,-0.039,-0.003,0.008,-1.58,0.017,0.317,56.59,91.9,40.524178,-3.415664,639.1,3,5,303.0,4.57
56.87,1,0.067,-0.004,0.001,0.004,-0.008,0.015,-1.581,0.016,0.32,56.59,91.9,40.524178,-3.415664,639.1,3,5,303.0,4.57
56.96,1,0.035,-0.009,-0.034,0.03,-0.004,-0.012,-1.58,0.016,0.322,56.59,91.9,40.524178,-3.415664,639.1,3,5,303.0,4.57
57.06,1,0.01,-0.021,-0.01,0.026,-0.015,-0.015,-1.579,0.019,0.324,56.59,91.9,40.524178,-3.415664,639.1,3,5,303.0,4.57
57.16,1,0.016,0.007,0.014,0.018,-0.008,-0.001,-1.58,0.021,0.326,56.59,91.9,40.524178,-3.415664,639.1,3,5,303.0,4.57
57.26,1,0.003,-0.006,-0.012,0.009,-0.004,-0.001,-1.582,0.023,0.328,56.59,91.9,40.524178,-3.415664,639.1,3,5,303.0,4.57
57.37,1,-0.019,-0.012,0.025,-0.001,-0.004,0.001,-1.584,0.025,0.33,56.59,91.9,40.524178,-3.415664,639.1,3,5,303.0,4.57
57.46,1,-0.004,0.004,0.01,-0.006,-0.006,0.016,-1.583,0.025,0.332,56.59,91.9,40.524178,-3.415664,639.1,3,5,303.0,4.57
57.56,1,-0.01,0.014,-0.016,-0.01,0.006,-0.002,-1.58,0.025,0.334,56.59,91.9,40.524178,-3.415664,639.1,3,5,303.0,4.57
57.66,1,0.1,0.011,-0.019,0.042,0.008,-0.009,-1.577,0.026,0.335,56.59,91.9,40.524178,-3.415664,639.1,3,5,303.0,4.57
57.76,1,-0.02,-0.016,-0.007,0.031,-0.0,-0.011,-1.577,0.029,0.337,57.5,91.9,40.524178,-3.415664,639.1,3,5,303.0,4.57
57.86,1,-0.046,0.02,0.013,-0.012,0.006,-0.0,-1.578,0.028,0.339,57.5,91.9,40.524178,-3.415664,639.1,3,5,303.0,4.57
57.96,1,-0.096,-0.004,-0.009,-0.054,0.005,-0.006,-1.579,0.027,0.34,57.5,91.9,40.524178,-3.415664,639.1,3,5,303.0,4.57
58.06,1,-0.009,-0.003,-0.013,-0.051,-0.003,-0.005,-1.577,0.029,0.342,57.5,91.9,40.524178,-3.415664,639.1,3,5,303.0,4.57
58.16,1,-0.01,-0.002,0.006,-0.028,-0.0,-0.004,-1.576,0.031,0.344,57.5,91.9,40.524178,-3.415664,639.1,3,5,303.0,4.57
58.26,1,0.04,0.013,0.007,0.009,0.002,0.002,-1.576,0.028,0.345,57.5,91.9,40.524178,-3.415664,639.1,3,5,303.0,4.57
58.36,1,-0.0,0.004,0.005,0.014,0.005,0.005,-1.576,0.026,0.347,57.5,91.9,40.524178,-3.415664,639.1,3,5,303.0,4.57
58.47,1,-0.057,0.01,-0.021,-0.02,0.007,-0.003,-1.575,0.024,0.348,57.5,91.9,40.524178,-3.415664,639.1,3,5,303.0,4.57
58.57,1,-0.013,0.001,-0.021,-0.025,0.006,-0.019,-1.575,0.023,0.35,57.5,91.9,40.524178,-3.415664,639.1,3,5,303.0,4.57
58.66,1,0.034,-0.023,0.022,0.004,-0.006,0.001,-1.574,0.024,0.352,57.5,91.9,40.524178,-3.415664,639.1,3,5,303.0,4.57
58.77,1,-0.055,0.011,0.004,-0.014,-0.004,0.006,-1.574,0.026,0.353,58.49,92.1,40.524303,-3.415932,639.5,3,5,300.2,4.219
58.86,1,0.018,-0.007,-0.001,-0.018,-0.004,0.002,-1.572,0.028,0.354,58.49,92.1,40.524303,-3.415932,639.5,3,5,300.2,4.219
58.96,1,0.045,0.003,-0.025,0.022,-0.0,-0.01,-1.57,0.027,0.355,58.49,92.1,40.524303,-3.415932,639.5,3,5,300.2,4.219
59.06,1,-0.009,0.011,-0.001,0.019,0.004,-0.01,-1.571,0.021,0.356,58.49,92.1,40.524303,-3.415932,639.5,3,5,300.2,4.219
59.16,1,-0.035,0.065,0.005,-0.011,0.029,-0.003,-1.572,0.015,0.356,58.49,92.1,40.524303,-3.415932,639.5,3,5,300.2,4.219
59.28,1,-0.041,0.014,0.002,-0.033,0.033,0.009,-1.572,0.014,0.356,58.49,92.1,40.524303,-3.415932,639.5,3,5,300.2,4.219
59.36,1,0.006,0.018,-0.014,-0.02,0.026,-0.008,-1.571,0.015,0.357,58.49,92.1,40.524303,-3.415932,639.5,3,5,300.2,4.219
59.46,1,0.026,0.014,-0.002,0.011,0.017,-0.004,-1.573,0.018,0.358,58.49,92.1,40.524303,-3.415932,639.5,3,5,300.2,4.219
59.56,1,-0.024,-0.008,0.01,-0.01,0.007,0.001,-1.573,0.018,0.359,58.49,92.1,40.524303,-3.415932,639.5,3,5,300.2,4.219
59.67,1,-0.051,0.004,-0.022,-0.024,0.0,-0.008,-1.57,0.02,0.36,58.49,92.1,40.524303,-3.415932,639.5,3,5,300.2,4.219
59.78,1,-0.004,0.012,-0.02,-0.025,0.008,-0.014,-1.569,0.023,0.361,59.57,93.0,40.524429,-3.416215,639.8,3,5,298.5,4.57
59.87,1,0.033,-0.021,-0.028,0.006,-0.002,-0.022,-1.568,0.023,0.362,59.57,93.0,40.524429,-3.416215,639.8,3,5,298.5,4.57
59.97,1,-0.023,0.0,-0.02,0.006,-0.007,-0.023,-1.566,0.023,0.364,59.57,93.0,40.524429,-3.416215,639.8,3,5,298.5,4.57
60.07,1,-0.087,-0.024,-0.024,-0.036,-0.009,-0.022,-1.566,0.021,0.366,59.57,93.0,40.524429,-3.416215,639.8,3,5,298.5,4.57
60.17,1,-0.028,-0.03,0.003,-0.053,-0.021,-0.015,-1.569,0.02,0.368,59.57,93.0,40.524429,-3.416215,639.8,3,5,298.5,4.57
60.28,1,-0.034,-0.033,-0.003,-0.028,-0.03,-0.004,-1.57,0.019,0.37,59.57,93.0,40.524429,-3.416215,639.8,3,5,298.5,4.57
60.37,1,0.077,-0.004,-0.029,-0.007,-0.02,-0.014,-1.568,0.022,0.372,59.57,93.0,40.524429,-3.416215,639.8,3,5,298.5,4.57
60.48,1,0.079,-0.006,-0.036,0.064,-0.009,-0.027,-1.566,0.024,0.373,59.57,93.0,40.524429,-3.416215,639.8,3,5,298.5,4.57
60.57,1,-0.001,0.009,-0.015,0.032,-0.007,-0.025,-1.567,0.022,0.375,59.57,93.0,40.524429,-3.416215,639.8,3,5,298.5,4.57
60.67,1,-0.074,0.003,-0.017,-0.012,0.005,-0.018,-1.567,0.022,0.377,59.57,93.0,40.524429,-3.416215,639.8,3,5,298.5,4.57
60.77,1,0.013,-0.014,-0.016,-0.022,-0.002,-0.017,-1.567,0.019,0.379,60.48,93.4,40.52454,-3.416472,640.6,3,5,296.4,3.867
60.88,1,0.024,-0.039,-0.024,0.008,-0.025,-0.018,-1.563,0.022,0.381,60.48,93.4,40.52454,-3.416472,640.6,3,5,296.4,3.867
60.98,1,0.009,-0.017,-0.002,0.016,-0.017,-0.015,-1.56,0.024,0.383,60.48,93.4,40.52454,-3.416472,640.6,3,5,296.4,3.867
61.07,1,-0.015,-0.012,-0.044,-0.002,-0.023,-0.023,-1.558,0.024,0.385,60.48,93.4,40.52454,-3.416472,640.6,3,5,296.4,3.867
61.17,1,-0.019,-0.022,-0.041,-0.013,-0.015,-0.036,-1.555,0.026,0.386,60.48,93.4,40.52454,-3.416472,640.6,3,5,296.4,3.867
61.27,1,0.024,-0.047,0.009,-0.0,-0.032,-0.021,-1.554,0.029,0.388,60.48,93.4,40.52454,-3.416472,640.6,3,5,296.4,3.867
61.37,1,0.012,0.007,-0.043,0.009,-0.016,-0.027,-1.55,0.033,0.39,60.48,93.4,40.52454,-3.416472,640.6,3,5,296.4,3.867
61.48,1,0.081,-0.029,-0.028,0.042,-0.019,-0.023,-1.547,0.036,0.392,60.48,93.4,40.52454,-3.416472,640.6,3,5,296.4,3.867
61.57,1,0.014,-0.02,-0.041,0.041,-0.02,-0.038,-1.539,0.038,0.393,60.48,93.4,40.52454,-3.416472,640.6,3,5,296.4,3.867
61.68,1,0.008,-0.01,-0.024,0.021,-0.018,-0.033,-1.536,0.038,0.394,60.48,93.4,40.52454,-3.416472,640.6,3,5,296.4,3.867
61.77,1,-0.009,-0.008,-0.026,0.013,-0.01,-0.025,-1.535,0.036,0.396,61.5,95.5,40.524639,-3.416746,640.1,3,5,294.6,3.867
61.87,1,0.01,-0.016,0.005,-0.004,-0.011,-0.016,-1.533,0.035,0.397,61.5,95.5,40.524639,-3.416746,640.1,3,5,294.6,3.867
61.97,1,0.042,0.029,-0.065,0.023,0.002,-0.027,-1.527,0.035,0.398,61.5,95.5,40.524639,-3.416746,640.1,3,5,294.6,3.867
62.07,1,0.023,0.051,0.006,0.023,0.029,-0.026,-1.526,0.035,0.398,61.5,95.5,40.524639,-3.416746,640.1,3,5,294.6,3.867
62.18,1,-0.107,0.051,-0.029,-0.022,0.041,-0.022,-1.528,0.033,0.398,61.5,95.5,40.524639,-3.416746,640.1,3,5,294.6,3.867
62.28,1,-0.027,0.011,0.015,-0.056,0.033,-0.006,-1.527,0.034,0.398,61.5,95.5,40.524639,-3.416746,640.1,3,5,294.6,3.867
62.38,1,0.049,0.035,0.007,-0.001,0.025,0.006,-1.527,0.033,0.398,61.5,95.5,40.524639,-3.416746,640.1,3,5,294.6,3.867
62.48,1,0.043,0.023,-0.0,0.032,0.031,0.003,-1.523,0.03,0.397,61.5,95.5,40.524639,-3.416746,640.1,3,5,294.6,3.867
62.57,1,0.002,0.041,-0.004,0.017,0.033,-0.001,-1.522,0.03,0.396,61.5,95.5,40.524639,-3.416746,640.1,3,5,294.6,3.867
62.67,1,-0.014,0.022,0.008,0.011,0.031,0.004,-1.523,0.027,0.395,61.5,95.5,40.524639,-3.416746,640.1,3,5,294.6,3.867
62.77,1,-0.067,0.056,0.021,-0.034,0.039,0.008,-1.526,0.024,0.395,62.52,93.5,40.524734,-3.417025,640.1,3,5,291.8,4.57
62.88,1,-0.056,0.035,0.034,-0.048,0.042,0.023,-1.531,0.022,0.394,62.52,93.5,40.524734,-3.417025,640.1,3,5,291.8,4.57
62.97,1,0.083,0.019,0.078,-0.0,0.03,0.054,-1.53,0.022,0.393,62.52,93.5,40.524734,-3.417025,640.1,3,5,291.8,4.57
63.08,1,0.202,-0.004,-0.008,0.107,0.015,0.029,-1.526,0.022,0.392,62.52,93.5,40.524734,-3.417025,640.1,3,5,291.8,4.57
63.18,1,0.045,0.05,0.03,0.102,0.021,0.024,-1.523,0.02,0.39,62.52,93.5,40.524734,-3.417025,640.1,3,5,291.8,4.57
63.28,1,-0.014,0.047,0.015,0.042,0.038,0.018,-1.521,0.02,0.389,62.52,93.5,40.524734,-3.417025,640.1,3,5,291.8,4.57
63.38,1,-0.109,-0.012,0.012,-0.034,0.023,0.017,-1.525,0.017,0.388,62.52,93.5,40.524734,-3.417025,640.1,3,5,291.8,4.57
63.49,1,-0.177,-0.021,0.033,-0.112,-0.005,0.017,-1.532,0.018,0.388,62.52,93.5,40.524734,-3.417025,640.1,3,5,291.8,4.57
63.59,1,-0.099,-0.041,0.047,-0.13,-0.021,0.041,-1.536,0.018,0.387,62.52,93.5,40.524734,-3.417025,640.1,3,5,291.8,4.57
63.69,1,-0.003,-0.008,0.024,-0.066,-0.022,0.026,-1.54,0.015,0.387,62.52,93.5,40.524734,-3.417025,640.1,3,5,291.8,4.57
63.78,1,0.091,-0.004,0.023,0.014,-0.015,0.033,-1.543,0.014,0.387,63.49,93.1,40.524815,-3.417304,639.9,3,5,290.0,4.57
63.88,1,0.029,-0.018,-0.014,0.039,-0.013,0.006,-1.54,0.017,0.386,63.49,93.1,40.524815,-3.417304,639.9,3,5,290.0,4.57
63.98,1,-0.034,-0.017,-0.019,-0.006,-0.02,-0.012,-1.539,0.019,0.386,63.49,93.1,40.524815,-3.417304,639.9,3,5,290.0,4.57
64.08,1,0.009,0.001,0.013,0.004,-0.006,0.002,-1.542,0.018,0.385,63.49,93.1,40.524815,-3.417304,639.9,3,5,290.0,4.57
64.18,1,-0.061,0.007,0.001,-0.016,0.004,0.002,-1.544,0.019,0.384,63.49,93.1,40.524815,-3.417304,639.9,3,5,290.0,4.57
64.28,1,-0.0,-0.021,-0.006,-0.026,-0.007,-0.001,-1.547,0.017,0.383,63.49,93.1,40.524815,-3.417304,639.9,3,5,290.0,4.57
64.38,1,-0.03,0.031,0.006,-0.013,0.004,0.002,-1.547,0.017,0.382,63.49,93.1,40.524815,-3.417304,639.9,3,5,290.0,4.57
64.48,1,-0.094,0.02,-0.003,-0.056,0.015,0.002,-1.548,0.016,0.381,63.49,93.1,40.524815,-3.417304,639.9,3,5,290.0,4.57
64.59,1,-0.023,0.039,0.025,-0.049,0.028,0.009,-1.552,0.013,0.38,63.49,93.1,40.524815,-3.417304,639.9,3,5,290.0,4.57
64.68,1,-0.006,0.038,0.001,-0.026,0.036,0.008,-1.548,0.012,0.378,63.49,93.1,40.524815,-3.417304,639.9,3,5,290.0,4.57
64.79,1,0.002,0.008,0.008,-0.011,0.026,0.007,-1.547,0.015,0.376,64.5,94.3,40.524887,-3.417592,639.4,3,5,289.3,2.461
64.88,1,0.027,0.012,0.014,0.006,0.013,0.008,-1.55,0.016,0.374,64.5,94.3,40.524887,-3.417592,639.4,3,5,289.3,2.461
64.98,1,0.032,0.005,-0.002,0.024,0.012,0.006,-1.549,0.017,0.372,64.5,94.3,40.524887,-3.417592,639.4,3,5,289.3,2.461
65.08,1,0.01,0.02,0.008,0.022,0.011,0.011,-1.55,0.018,0.371,64.5,94.3,40.524887,-3.417592,639.4,3,5,289.3,2.461
65.18,1,-0.047,0.045,-0.027,-0.01,0.023,-0.009,-1.547,0.018,0.369,64.5,94.3,40.524887,-3.417592,639.4,3,5,289.3,2.461
65.28,1,-0.02,0.027,0.002,-0.023,0.036,-0.011,-1.544,0.017,0.367,64.5,94.3,40.524887,-3.417592,639.4,3,5,289.3,2.461
65.38,1,-0.045,-0.006,-0.031,-0.036,0.018,-0.014,-1.541,0.016,0.365,64.5,94.3,40.524887,-3.417592,639.4,3,5,289.3,2.461
65.48,1,-0.007,0.02,-0.001,-0.022,0.008,-0.015,-1.541,0.015,0.363,64.5,94.3,40.524887,-3.417592,639.4,3,5,289.3,2.461
65.58,1,-0.059,0.005,0.011,-0.04,0.014,-0.001,-1.542,0.016,0.362,64.5,94.3,40.524887,-3.417592,639.4,3,5,289.3,2.461
65.68,1,0.019,-0.004,0.014,-0.019,0.0,0.009,-1.545,0.018,0.36,64.5,94.3,40.524887,-3.417592,639.4,3,5,289.3,2.461
65.8,1,-0.001,0.018,0.013,0.002,0.009,0.014,-1.546,0.018,0.358,65.49,97.1,40.524963,-3.417886,638.6,3,5,288.3,1.758
65.89,1,0.03,0.009,0.02,0.008,0.016,0.014,-1.547,0.018,0.356,65.49,97.1,40.524963,-3.417886,638.6,3,5,288.3,1.758
65.98,1,0.013,0.001,0.01,0.029,0.003,0.013,-1.547,0.019,0.354,65.49,97.1,40.524963,-3.417886,638.6,3,5,288.3,1.758
66.09,1,-0.039,0.019,0.059,-0.009,0.01,0.034,-1.548,0.02,0.352,65.49,97.1,40.524963,-3.417886,638.6,3,5,288.3,1.758
66.18,1,0.04,0.023,0.005,0.009,0.021,0.031,-1.548,0.022,0.35,65.49,97.1,40.524963,-3.417886,638.6,3,5,288.3,1.758
66.29,1,0.028,-0.008,0.017,0.015,0.006,0.016,-1.548,0.025,0.348,65.49,97.1,40.524963,-3.417886,638.6,3,5,288.3,1.758
66.39,1,-0.021,0.03,0.019,0.003,0.015,0.013,-1.548,0.025,0.346,65.49,97.1,40.524963,-3.417886,638.6,3,5,288.3,1.758
66.49,1,-0.018,-0.008,0.008,-0.013,0.011,0.017,-1.551,0.028,0.344,65.49,97.1,40.524963,-3.417886,638.6,3,5,288.3,1.758
66.59,1,-0.053,0.037,-0.004,-0.026,0.013,0.005,-1.554,0.03,0.341,65.49,97.1,40.524963,-3.417886,638.6,3,5,288.3,1.758
66.69,1,-0.057,0.029,-0.026,-0.053,0.03,-0.012,-1.555,0.031,0.339,65.49,97.1,40.524963,-3.417886,638.6,3,5,288.3,1.758
66.79,1,0.063,0.002,0.013,-0.015,0.016,-0.002,-1.556,0.032,0.336,66.49,96.3,40.52504,-3.41819,638.5,3,5,286.5,2.812
66.89,1,0.014,0.032,-0.067,0.027,0.011,-0.024,-1.55,0.03,0.333,66.49,96.3,40.52504,-3.41819,638.5,3,5,286.5,2.812
66.99,1,0.011,0.091,-0.044,0.011,0.054,-0.04,-1.544,0.028,0.329,66.49,96.3,40.52504,-3.41819,638.5,3,5,286.5,2.812
67.09,1,-0.025,0.019,-0.044,0.019,0.053,-0.043,-1.544,0.026,0.325,66.49,96.3,40.52504,-3.41819,638.5,3,5,286.5,2.812
67.19,1,-0.041,0.054,-0.026,-0.035,0.043,-0.04,-1.543,0.024,0.321,66.49,96.3,40.52504,-3.41819,638.5,3,5,286.5,2.812
67.3,1,0.042,0.043,-0.017,-0.001,0.048,-0.025,-1.54,0.02,0.316,66.49,96.3,40.52504,-3.41819,638.5,3,5,286.5,2.812
67.39,1,-0.016,0.028,-0.025,0.004,0.033,-0.025,-1.538,0.017,0.312,66.49,96.3,40.52504,-3.41819,638.5,3,5,286.5,2.812
67.49,1,0.001,0.027,-0.01,-0.009,0.035,-0.018,-1.537,0.014,0.307,66.49,96.3,40.52504,-3.41819,638.5,3,5,286.5,2.812
67.59,1,-0.007,0.039,-0.074,0.009,0.033,-0.042,-1.533,0.009,0.303,66.49,96.3,40.52504,-3.41819,638.5,3,5,286.5,2.812
67.7,1,0.014,0.08,-0.018,0.005,0.053,-0.037,-1.529,0.004,0.299,66.49,96.3,40.52504,-3.41819,638.5,3,5,286.5,2.812
67.79,1,-0.107,0.026,-0.03,-0.039,0.053,-0.032,-1.529,0.005,0.297,67.49,96.5,40.525105,-3.418491,637.4,3,5,285.8,2.461
67.89,1,-0.096,-0.033,-0.009,-0.082,0.009,-0.021,-1.529,0.009,0.295,67.49,96.5,40.525105,-3.418491,637.4,3,5,285.8,2.461
67.99,1,0.062,-0.042,0.003,-0.037,-0.021,-0.011,-1.529,0.015,0.293,67.49,96.5,40.525105,-3.418491,637.4,3,5,285.8,2.461
68.09,1,0.032,-0.013,-0.062,0.024,-0.025,-0.02,-1.526,0.019,0.29,67.49,96.5,40.525105,-3.418491,637.4,3,5,285.8,2.461
68.19,1,-0.051,-0.009,-0.042,-0.008,-0.006,-0.046,-1.522,0.02,0.288,67.49,96.5,40.525105,-3.418491,637.4,3,5,285.8,2.461
68.29,1,0.002,-0.002,0.0,-0.008,-0.014,-0.025,-1.522,0.019,0.285,67.49,96.5,40.525105,-3.418491,637.4,3,5,285.8,2.461
68.4,1,-0.04,0.009,-0.029,-0.012,-0.004,-0.021,-1.521,0.021,0.282,67.49,96.5,40.525105,-3.418491,637.4,3,5,285.8,2.461
68.5,1,-0.039,-0.003,-0.044,-0.04,0.004,-0.031,-1.518,0.022,0.279,67.49,96.5,40.525105,-3.418491,637.4,3,5,285.8,2.461
68.59,1,0.098,-0.021,-0.015,0.023,-0.01,-0.028,-1.517,0.027,0.276,67.49,96.5,40.525105,-3.418491,637.4,3,5,285.8,2.461
68.7,1,-0.012,-0.027,-0.054,0.009,-0.018,-0.04,-1.515,0.029,0.273,67.49,96.5,40.525105,-3.418491,637.4,3,5,285.8,2.461
68.79,1,0.051,0.002,-0.01,0.041,-0.018,-0.027,-1.514,0.029,0.269,68.5,97.6,40.525166,-3.418785,637.0,3,5,286.5,0.703
68.9,1,-0.059,0.022,-0.058,0.006,0.007,-0.035,-1.515,0.029,0.266,68.5,97.6,40.525166,-3.418785,637.0,3,5,286.5,0.703
68.99,1,-0.061,-0.016,-0.019,-0.049,0.006,-0.034,-1.514,0.03,0.263,68.5,97.6,40.525166,-3.418785,637.0,3,5,286.5,0.703
69.09,1,-0.007,0.01,-0.024,-0.03,-0.003,-0.024,-1.512,0.029,0.259,68.5,97.6,40.525166,-3.418785,637.0,3,5,286.5,0.703
69.19,1,0.055,0.011,0.0,0.023,0.007,-0.017,-1.51,0.027,0.255,68.5,97.6,40.525166,-3.418785,637.0,3,5,286.5,0.703
69.29,1,-0.012,0.033,-0.048,-0.006,0.018,-0.023,-1.507,0.027,0.252,68.5,97.6,40.525166,-3.418785,637.0,3,5,286.5,0.703
69.4,1,0.079,0.026,-0.023,0.034,0.024,-0.032,-1.505,0.027,0.248,68.5,97.6,40.525166,-3.418785,637.0,3,5,286.5,0.703
69.5,1,0.03,0.022,0.007,0.042,0.026,-0.012,-1.502,0.031,0.244,68.5,97.6,40.525166,-3.418785,637.0,3,5,286.5,0.703
69.6,1,-0.052,0.01,-0.059,0.009,0.019,-0.026,-1.497,0.032,0.239,68.5,97.6,40.525166,-3.418785,637.0,3,5,286.5,0.703
69.7,1,-0.061,0.035,-0.014,-0.043,0.022,-0.032,-1.496,0.032,0.234,68.5,97.6,40.525166,-3.418785,637.0,3,5,286.5,0.703
69.79,1,0.037,0.064,-0.008,-0.014,0.042,-0.017,-1.498,0.03,0.229,69.5,96.5,40.525242,-3.419089,636.2,4,5,286.5,0.703
69.89,1,-0.073,0.048,-0.015,-0.016,0.051,-0.012,-1.499,0.027,0.223,69.5,96.5,40.525242,-3.419089,636.2,4,5,286.5,0.703
69.99,1,-0.06,0.041,-0.002,-0.055,0.043,-0.01,-1.498,0.025,0.218,69.5,96.5,40.525242,-3.419089,636.2,4,5,286.5,0.703
70.1,1,0.036,0.055,-0.013,-0.015,0.051,-0.007,-1.498,0.022,0.213,69.5,96.5,40.525242,-3.419089,636.2,4,5,286.5,0.703
70.2,1,0.011,0.053,0.011,0.01,0.049,-0.004,-1.495,0.021,0.207,69.5,96.5,40.525242,-3.419089,636.2,4,5,286.5,0.703
70.31,1,-0.021,0.035,-0.019,-0.004,0.047,-0.005,-1.495,0.019,0.202,69.5,96.5,40.525242,-3.419089,636.2,4,5,286.5,0.703
70.41,1,-0.051,0.035,-0.028,-0.028,0.04,-0.022,-1.493,0.014,0.196,69.5,96.5,40.525242,-3.419089,636.2,4,5,286.5,0.703
70.5,1,-0.018,0.028,-0.014,-0.04,0.036,-0.018,-1.495,0.011,0.19,69.5,96.5,40.525242,-3.419089,636.2,4,5,286.5,0.703
70.6,1,0.066,0.008,0.0,0.02,0.024,-0.006,-1.496,0.009,0.185,69.5,96.5,40.525242,-3.419089,636.2,4,5,286.5,0.703
70.71,1,0.02,0.028,-0.018,0.027,0.016,-0.016,-1.493,0.008,0.18,69.5,96.5,40.525242,-3.419089,636.2,4,5,286.5,0.703
70.8,1,0.0,-0.004,-0.03,0.013,0.009,-0.017,-1.492,0.008,0.175,70.54,94.7,40.525318,-3.419397,635.5,4,5,286.5,0.0
70.91,1,-0.152,0.003,-0.026,-0.054,0.008,-0.032,-1.496,0.01,0.171,70.54,94.7,40.525318,-3.419397,635.5,4,5,286.5,0.0
71.0,1,-0.046,0.018,0.024,-0.097,0.008,-0.0,-1.501,0.011,0.166,70.54,94.7,40.525318,-3.419397,635.5,4,5,286.5,0.0
71.1,1,0.149,0.054,0.001,0.039,0.029,0.008,-1.499,0.008,0.16,70.54,94.7,40.525318,-3.419397,635.5,4,5,286.5,0.0
71.2,1,0.019,0.015,-0.041,0.056,0.031,-0.018,-1.494,0.004,0.155,70.54,94.7,40.525318,-3.419397,635.5,4,5,286.5,0.0
71.3,1,-0.031,0.02,0.001,0.008,0.022,-0.013,-1.495,0.004,0.15,70.54,94.7,40.525318,-3.419397,635.5,4,5,286.5,0.0
71.4,1,-0.061,0.009,-0.02,-0.02,0.016,-0.011,-1.496,0.004,0.144,70.54,94.7,40.525318,-3.419397,635.5,4,5,286.5,0.0
71.51,1,-0.046,0.013,-0.009,-0.055,0.015,-0.016,-1.496,0.001,0.138,70.54,94.7,40.525318,-3.419397,635.5,4,5,286.5,0.0
71.61,1,0.049,0.032,-0.006,-0.002,0.016,-0.007,-1.496,0.003,0.133,70.54,94.7,40.525318,-3.419397,635.5,4,5,286.5,0.0
71.7,1,-0.036,0.026,-0.021,-0.004,0.029,-0.015,-1.495,0.002,0.127,70.54,94.7,40.525318,-3.419397,635.5,4,5,286.5,0.0
71.8,1,-0.081,0.043,-0.013,-0.044,0.035,-0.017,-1.496,0.002,0.121,71.5,93.0,40.525387,-3.419682,634.6,4,5,288.3,1.758
71.9,1,-0.046,0.002,0.005,-0.061,0.022,-0.005,-1.499,0.004,0.115,71.5,93.0,40.525387,-3.419682,634.6,4,5,288.3,1.758
72.0,1,0.017,0.024,-0.021,-0.015,0.016,-0.008,-1.499,0.003,0.11,71.5,93.0,40.525387,-3.419682,634.6,4,5,288.3,1.758
72.1,1,-0.011,0.021,0.003,-0.011,0.02,-0.006,-1.499,0.0,0.104,71.5,93.0,40.525387,-3.419682,634.6,4,5,288.3,1.758
72.2,1,0.011,0.024,0.005,0.001,0.022,-0.003,-1.5,0.001,0.098,71.5,93.0,40.525387,-3.419682,634.6,4,5,288.3,1.758
72.3,1,-0.023,0.024,-0.018,-0.01,0.023,-0.002,-1.5,-0.0,0.091,71.5,93.0,40.525387,-3.419682,634.6,4,5,288.3,1.758
72.4,1,-0.014,0.026,-0.013,-0.016,0.023,-0.013,-1.5,-0.004,0.085,71.5,93.0,40.525387,-3.419682,634.6,4,5,288.3,1.758
72.5,1,0.006,-0.008,-0.009,-0.004,0.014,-0.012,-1.5,-0.008,0.079,71.5,93.0,40.525387,-3.419682,634.6,4,5,288.3,1.758
72.61,1,-0.011,0.03,-0.016,-0.005,0.017,-0.012,-1.5,-0.012,0.072,71.5,93.0,40.525387,-3.419682,634.6,4,5,288.3,1.758
72.7,1,-0.017,0.024,-0.005,-0.012,0.021,-0.01,-1.499,-0.016,0.066,71.5,93.0,40.525387,-3.419682,634.6,4,5,288.3,1.758
72.81,1,-0.033,0.039,-0.012,-0.018,0.031,-0.009,-1.501,-0.02,0.059,72.5,93.6,40.525459,-3.419973,634.0,4,5,289.7,3.164
72.9,1,-0.065,0.017,-0.044,-0.041,0.024,-0.022,-1.501,-0.021,0.054,72.5,93.6,40.525459,-3.419973,634.0,4,5,289.7,3.164
73.0,1,-0.072,0.02,0.006,-0.059,0.022,-0.025,-1.504,-0.024,0.047,72.5,93.6,40.525459,-3.419973,634.0,4,5,289.7,3.164
73.1,1,-0.03,-0.007,0.019,-0.053,0.009,0.01,-1.507,-0.025,0.041,72.5,93.6,40.525459,-3.419973,634.0,4,5,289.7,3.164
73.2,1,0.048,0.007,-0.018,-0.004,0.006,-0.003,-1.503,-0.028,0.035,72.5,93.6,40.525459,-3.419973,634.0,4,5,289.7,3.164
73.3,1,0.028,-0.005,-0.022,0.022,0.001,-0.012,-1.499,-0.03,0.029,72.5,93.6,40.525459,-3.419973,634.0,4,5,289.7,3.164
73.4,1,-0.008,0.035,-0.035,0.007,0.014,-0.03,-1.496,-0.032,0.023,72.5,93.6,40.525459,-3.419973,634.0,4,5,289.7,3.164
73.51,1,0.002,-0.04,0.005,-0.002,0.0,-0.013,-1.499,-0.033,0.018,72.5,93.6,40.525459,-3.419973,634.0,4,5,289.7,3.164
73.61,1,-0.05,-0.032,-0.024,-0.019,-0.024,-0.013,-1.499,-0.029,0.013,72.5,93.6,40.525459,-3.419973,634.0,4,5,289.7,3.164
73.71,1,-0.063,-0.081,0.003,-0.045,-0.049,-0.009,-1.5,-0.024,0.01,72.5,93.6,40.525459,-3.419973,634.0,4,5,289.7,3.164
73.81,1,-0.001,-0.066,0.001,-0.02,-0.063,-0.001,-1.5,-0.015,0.008,73.51,90.8,40.525543,-3.420257,633.0,4,5,291.4,3.164
73.91,1,-0.026,-0.103,-0.008,-0.021,-0.078,-0.006,-1.499,-0.01,0.006,73.51,90.8,40.525543,-3.420257,633.0,4,5,291.4,3.164
74.01,1,0.032,-0.07,-0.015,-0.006,-0.084,-0.009,-1.495,-0.004,0.003,73.51,90.8,40.525543,-3.420257,633.0,4,5,291.4,3.164
74.11,1,-0.019,-0.071,-0.027,-0.004,-0.072,-0.013,-1.493,-0.002,0.001,73.51,90.8,40.525543,-3.420257,633.0,4,5,291.4,3.164
74.21,1,-0.037,-0.059,0.008,-0.022,-0.07,-0.019,-1.491,0.0,-0.001,73.51,90.8,40.525543,-3.420257,633.0,4,5,291.4,3.164
74.31,1,0.019,-0.07,0.036,-0.009,-0.068,0.023,-1.493,0.002,-0.003,73.51,90.8,40.525543,-3.420257,633.0,4,5,291.4,3.164
74.41,1,0.052,-0.03,-0.006,0.026,-0.051,0.007,-1.494,0.005,-0.005,73.51,90.8,40.525543,-3.420257,633.0,4,5,291.4,3.164
74.51,1,-0.007,-0.06,-0.011,0.023,-0.053,-0.002,-1.494,0.012,-0.008,73.51,90.8,40.525543,-3.420257,633.0,4,5,291.4,3.164
74.62,1,-0.039,-0.053,-0.029,-0.016,-0.051,-0.015,-1.492,0.012,-0.01,73.51,90.8,40.525543,-3.420257,633.0,4,5,291.4,3.164
74.71,1,-0.071,-0.04,-0.031,-0.039,-0.044,-0.033,-1.495,0.012,-0.013,73.51,90.8,40.525543,-3.420257,633.0,4,5,291.4,3.164
74.81,1,-0.134,-0.063,-0.019,-0.087,-0.053,-0.014,-1.503,0.015,-0.016,74.56,89.1,40.525631,-3.420519,632.3,4,5,293.6,3.867
74.91,1,-0.219,0.004,-0.039,-0.141,-0.038,-0.028,-1.508,0.012,-0.019,74.56,89.1,40.525631,-3.420519,632.3,4,5,293.6,3.867
75.01,1,-0.076,0.042,0.028,-0.142,0.002,-0.016,-1.512,0.008,-0.023,74.56,89.1,40.525631,-3.420519,632.3,4,5,293.6,3.867
75.11,1,0.01,0.046,-0.014,-0.056,0.034,0.002,-1.512,0.008,-0.027,74.56,89.1,40.525631,-3.420519,632.3,4,5,293.6,3.867
75.21,1,0.019,-0.006,-0.011,-0.03,0.025,-0.011,-1.508,0.009,-0.031,74.56,89.1,40.525631,-3.420519,632.3,4,5,293.6,3.867
75.31,1,0.085,0.01,-0.023,0.025,0.008,-0.014,-1.502,0.006,-0.035,74.56,89.1,40.525631,-3.420519,632.3,4,5,293.6,3.867
75.41,1,0.052,0.024,-0.037,0.062,0.016,-0.026,-1.496,0.003,-0.04,74.56,89.1,40.525631,-3.420519,632.3,4,5,293.6,3.867
75.51,1,0.015,0.012,-0.029,0.043,0.019,-0.025,-1.495,-0.002,-0.045,74.56,89.1,40.525631,-3.420519,632.3,4,5,293.6,3.867
75.61,1,-0.02,-0.008,0.003,0.012,0.001,-0.014,-1.497,-0.006,-0.05,74.56,89.1,40.525631,-3.420519,632.3,4,5,293.6,3.867
75.72,1,-0.038,0.026,0.002,-0.021,0.011,-0.011,-1.498,-0.01,-0.054,74.56,89.1,40.525631,-3.420519,632.3,4,5,293.6,3.867
75.82,1,-0.051,0.032,0.016,-0.041,0.022,0.008,-1.5,-0.016,-0.058,75.49,87.6,40.525719,-3.420784,631.9,4,5,294.6,3.164
75.91,1,-0.019,0.029,0.008,-0.028,0.032,0.007,-1.502,-0.018,-0.062,75.49,87.6,40.525719,-3.420784,631.9,4,5,294.6,3.164
76.01,1,0.076,-0.01,0.031,0.02,0.011,0.021,-1.503,-0.019,-0.066,75.49,87.6,40.525719,-3.420784,631.9,4,5,294.6,3.164
76.11,1,-0.071,-0.033,0.012,-0.014,-0.006,0.016,-1.502,-0.021,-0.07,75.49,87.6,40.525719,-3.420784,631.9,4,5,294.6,3.164
76.21,1,-0.023,-0.0,0.015,-0.034,-0.019,0.015,-1.502,-0.02,-0.074,75.49,87.6,40.525719,-3.420784,631.9,4,5,294.6,3.164
76.31,1,-0.034,0.012,0.033,-0.021,-0.002,0.022,-1.505,-0.025,-0.079,75.49,87.6,40.525719,-3.420784,631.9,4,5,294.6,3.164
76.42,1,-0.051,0.017,0.017,-0.04,0.012,0.023,-1.509,-0.027,-0.084,75.49,87.6,40.525719,-3.420784,631.9,4,5,294.6,3.164
76.51,1,-0.017,0.014,0.023,-0.032,0.017,0.02,-1.509,-0.031,-0.09,75.49,87.6,40.525719,-3.420784,631.9,4,5,294.6,3.164
76.61,1,-0.053,0.035,0.003,-0.03,0.022,0.016,-1.509,-0.034,-0.096,75.49,87.6,40.525719,-3.420784,631.9,4,5,294.6,3.164
76.71,1,-0.014,0.031,0.025,-0.043,0.027,0.009,-1.511,-0.036,-0.103,75.49,87.6,40.525719,-3.420784,631.9,4,5,294.6,3.164
76.81,1,-0.018,0.028,0.024,-0.016,0.028,0.022,-1.512,-0.038,-0.109,76.49,88.0,40.525814,-3.421036,630.8,4,5,297.1,3.516
76.92,1,-0.031,0.028,0.018,-0.032,0.025,0.024,-1.518,-0.042,-0.114,76.49,88.0,40.525814,-3.421036,630.8,4,5,297.1,3.516
77.01,1,-0.017,-0.023,0.01,-0.024,0.009,0.018,-1.518,-0.044,-0.12,76.49,88.0,40.525814,-3.421036,630.8,4,5,297.1,3.516
77.12,1,-0.034,-0.019,0.001,-0.024,-0.005,0.01,-1.521,-0.044,-0.126,76.49,88.0,40.525814,-3.421036,630.8,4,5,297.1,3.516
77.22,1,-0.067,-0.021,-0.004,-0.037,-0.016,-0.001,-1.522,-0.046,-0.132,76.49,88.0,40.525814,-3.421036,630.8,4,5,297.1,3.516
77.32,1,-0.011,0.028,0.002,-0.041,0.004,-0.006,-1.524,-0.05,-0.138,76.49,88.0,40.525814,-3.421036,630.8,4,5,297.1,3.516
77.42,1,-0.012,0.038,0.03,-0.021,0.019,0.019,-1.524,-0.049,-0.144,76.49,88.0,40.525814,-3.421036,630.8,4,5,297.1,3.516
77.52,1,0.056,-0.016,0.02,0.01,0.011,0.021,-1.523,-0.048,-0.149,76.49,88.0,40.525814,-3.421036,630.8,4,5,297.1,3.516
77.62,1,-0.073,0.002,-0.004,0.003,-0.0,0.012,-1.521,-0.05,-0.154,76.49,88.0,40.525814,-3.421036,630.8,4,5,297.1,3.516
77.72,1,0.014,-0.023,0.026,-0.03,-0.01,0.012,-1.524,-0.051,-0.159,76.49,88.0,40.525814,-3.421036,630.8,4,5,297.1,3.516
77.82,1,0.004,0.011,0.027,0.007,-0.003,0.019,-1.524,-0.053,-0.165,77.52,86.1,40.525921,-3.421279,630.8,6,5,298.8,4.219
77.92,1,0.032,-0.01,-0.012,0.012,-0.003,0.007,-1.522,-0.054,-0.17,77.52,86.1,40.525921,-3.421279,630.8,6,5,298.8,4.219
78.02,1,0.009,-0.004,-0.003,0.018,-0.004,-0.001,-1.522,-0.053,-0.175,77.52,86.1,40.525921,-3.421279,630.8,6,5,298.8,4.219
78.12,1,-0.027,-0.002,0.008,-0.021,-0.007,0.001,-1.525,-0.052,-0.181,77.52,86.1,40.525921,-3.421279,630.8,6,5,298.8,4.219
78.22,1,0.037,-0.012,-0.014,0.005,-0.009,-0.003,-1.526,-0.049,-0.186,77.52,86.1,40.525921,-3.421279,630.8,6,5,298.8,4.219
78.33,1,-0.013,-0.0,-0.006,0.015,-0.007,-0.003,-1.525,-0.051,-0.191,77.52,86.1,40.525921,-3.421279,630.8,6,5,298.8,4.219
78.43,1,-0.016,-0.014,-0.015,-0.003,-0.004,-0.009,-1.527,-0.054,-0.197,77.52,86.1,40.525921,-3.421279,630.8,6,5,298.8,4.219
78.52,1,-0.013,0.001,0.005,-0.025,-0.004,-0.011,-1.528,-0.056,-0.201,77.52,86.1,40.525921,-3.421279,630.8,6,5,298.8,4.219
78.62,1,-0.06,-0.047,-0.004,-0.024,-0.019,-0.003,-1.529,-0.057,-0.205,77.52,86.1,40.525921,-3.421279,630.8,6,5,298.8,4.219
78.72,1,-0.056,-0.031,-0.013,-0.044,-0.032,-0.004,-1.531,-0.056,-0.209,77.52,86.1,40.525921,-3.421279,630.8,6,5,298.8,4.219
78.82,1,-0.004,-0.019,-0.007,-0.037,-0.027,-0.007,-1.533,-0.054,-0.213,78.5,86.3,40.526024,-3.421522,630.6,4,5,302.3,5.273
78.93,1,0.014,-0.088,-0.01,-0.004,-0.053,-0.005,-1.533,-0.047,-0.217,78.5,86.3,40.526024,-3.421522,630.6,4,5,302.3,5.273
79.02,1,-0.018,-0.036,-0.017,-0.008,-0.054,-0.012,-1.532,-0.043,-0.22,78.5,86.3,40.526024,-3.421522,630.6,4,5,302.3,5.273
79.12,1,0.025,-0.042,0.007,0.013,-0.036,-0.006,-1.533,-0.037,-0.223,78.5,86.3,40.526024,-3.421522,630.6,4,5,302.3,5.273
79.22,1,-0.048,-0.022,-0.016,-0.013,-0.036,-0.008,-1.531,-0.038,-0.226,78.5,86.3,40.526024,-3.421522,630.6,4,5,302.3,5.273
79.33,1,0.005,-0.017,-0.017,-0.023,-0.024,-0.016,-1.531,-0.04,-0.23,78.5,86.3,40.526024,-3.421522,630.6,4,5,302.3,5.273
79.42,1,-0.028,-0.023,0.006,-0.005,-0.028,-0.004,-1.532,-0.039,-0.233,78.5,86.3,40.526024,-3.421522,630.6,4,5,302.3,5.273
79.53,1,0.013,0.009,-0.017,-0.01,-0.009,-0.006,-1.53,-0.042,-0.237,78.5,86.3,40.526024,-3.421522,630.6,4,5,302.3,5.273
79.72,1,0.045,0.001,-0.004,0.021,0.001,-0.01,-1.528,-0.046,-0.246,78.5,86.3,40.526024,-3.421522,630.6,4,5,302.3,5.273
79.82,1,-0.081,-0.026,-0.023,-0.017,-0.008,-0.016,-1.531,-0.046,-0.25,78.5,86.3,40.526024,-3.421522,630.6,4,5,302.3,5.273
79.92,1,-0.025,-0.021,-0.006,-0.033,-0.015,-0.016,-1.536,-0.043,-0.253,79.58,86.0,40.526302,-3.421998,629.4,6,5,308.0,7.031
80.02,1,-0.017,-0.043,-0.012,-0.03,-0.029,-0.014,-1.539,-0.038,-0.257,79.58,86.0,40.526302,-3.421998,629.4,6,5,308.0,7.031
80.12,1,0.057,-0.025,-0.014,0.006,-0.037,-0.006,-1.539,-0.037,-0.26,79.58,86.0,40.526302,-3.421998,629.4,6,5,308.0,7.031
80.22,1,-0.036,-0.032,-0.005,0.008,-0.029,-0.008,-1.538,-0.039,-0.263,79.58,86.0,40.526302,-3.421998,629.4,6,5,308.0,7.031
80.32,1,0.016,-0.025,-0.007,-0.002,-0.024,-0.007,-1.537,-0.039,-0.267,79.58,86.0,40.526302,-3.421998,629.4,6,5,308.0,7.031
80.43,1,-0.027,-0.034,-0.007,-0.008,-0.029,-0.01,-1.539,-0.039,-0.27,79.58,86.0,40.526302,-3.421998,629.4,6,5,308.0,7.031
80.52,1,-0.049,-0.041,-0.0,-0.028,-0.035,-0.004,-1.539,-0.039,-0.273,79.58,86.0,40.526302,-3.421998,629.4,6,5,308.0,7.031
80.63,1,0.026,-0.021,0.0,-0.012,-0.033,-0.001,-1.537,-0.036,-0.276,79.58,86.0,40.526302,-3.421998,629.4,6,5,308.0,7.031
80.73,1,-0.065,-0.051,-0.014,-0.021,-0.036,-0.007,-1.538,-0.036,-0.279,79.58,86.0,40.526302,-3.421998,629.4,6,5,308.0,7.031
80.83,1,-0.025,-0.028,-0.034,-0.034,-0.036,-0.022,-1.537,-0.034,-0.283,79.58,86.0,40.526302,-3.421998,629.4,6,5,308.0,7.031
80.93,1,-0.018,-0.023,-0.008,-0.027,-0.031,-0.015,-1.537,-0.033,-0.286,80.48,86.0,40.526302,-3.421998,629.4,6,5,308.0,5.625
81.03,1,0.014,-0.039,0.001,-0.012,-0.033,-0.007,-1.535,-0.031,-0.289,80.48,86.0,40.526302,-3.421998,629.4,6,5,308.0,5.625
81.13,1,0.021,0.003,-0.015,0.012,-0.019,-0.008,-1.535,-0.033,-0.293,80.48,86.0,40.526302,-3.421998,629.4,6,5,308.0,5.625
81.23,1,-0.043,-0.013,-0.022,-0.004,-0.009,-0.019,-1.536,-0.034,-0.296,80.48,86.0,40.526302,-3.421998,629.4,6,5,308.0,5.625
81.33,1,-0.03,0.002,-0.005,-0.028,-0.004,-0.013,-1.538,-0.035,-0.3,80.48,86.0,40.526302,-3.421998,629.4,6,5,308.0,5.625
81.44,1,-0.032,-0.014,-0.001,-0.032,-0.009,-0.005,-1.54,-0.034,-0.304,80.48,86.0,40.526302,-3.421998,629.4,6,5,308.0,5.625
81.53,1,-0.045,-0.014,-0.014,-0.037,-0.012,-0.01,-1.54,-0.033,-0.307,80.48,86.0,40.526302,-3.421998,629.4,6,5,308.0,5.625
81.63,1,-0.043,-0.009,0.002,-0.048,-0.014,-0.002,-1.538,-0.031,-0.311,80.48,86.0,40.526302,-3.421998,629.4,6,5,308.0,5.625
81.73,1,-0.051,-0.018,0.001,-0.043,-0.013,0.002,-1.537,-0.031,-0.314,80.48,86.0,40.526302,-3.421998,629.4,6,5,308.0,5.625
81.83,1,-0.021,-0.028,0.02,-0.034,-0.019,0.005,-1.541,-0.03,-0.316,80.48,86.0,40.526302,-3.421998,629.4,6,5,308.0,5.625
81.93,1,-0.02,-0.041,-0.011,-0.023,-0.028,0.001,-1.542,-0.03,-0.319,81.58,85.6,40.526573,-3.422426,629.1,4,5,312.5,4.57
82.03,1,-0.061,-0.032,-0.005,-0.04,-0.035,-0.007,-1.54,-0.031,-0.321,81.58,85.6,40.526573,-3.422426,629.1,4,5,312.5,4.57
82.13,1,0.057,-0.017,-0.007,-0.006,-0.03,-0.003,-1.541,-0.031,-0.324,81.58,85.6,40.526573,-3.422426,629.1,4,5,312.5,4.57
82.23,1,-0.028,-0.008,0.011,-0.004,-0.019,0.002,-1.539,-0.028,-0.327,81.58,85.6,40.526573,-3.422426,629.1,4,5,312.5,4.57
82.33,1,-0.056,-0.0,-0.001,-0.027,-0.006,0.006,-1.538,-0.027,-0.329,81.58,85.6,40.526573,-3.422426,629.1,4,5,312.5,4.57
82.44,1,-0.012,-0.026,0.013,-0.023,-0.014,0.006,-1.537,-0.026,-0.332,81.58,85.6,40.526573,-3.422426,629.1,4,5,312.5,4.57
82.53,1,-0.042,-0.017,0.014,-0.033,-0.02,0.011,-1.539,-0.025,-0.336,81.58,85.6,40.526573,-3.422426,629.1,4,5,312.5,4.57
82.63,1,-0.002,-0.011,0.016,-0.021,-0.011,0.015,-1.54,-0.025,-0.339,81.58,85.6,40.526573,-3.422426,629.1,4,5,312.5,4.57
82.73,1,-0.017,0.013,0.015,-0.01,-0.0,0.012,-1.542,-0.028,-0.342,81.58,85.6,40.526573,-3.422426,629.1,4,5,312.5,4.57
82.83,1,-0.028,0.012,-0.006,-0.032,0.005,0.008,-1.544,-0.03,-0.346,81.58,85.6,40.526573,-3.422426,629.1,4,5,312.5,4.57
82.93,1,0.004,0.018,0.013,-0.002,0.01,0.008,-1.543,-0.031,-0.349,82.51,85.6,40.526573,-3.422426,629.1,4,5,312.5,4.57
83.04,1,-0.05,-0.022,-0.003,-0.028,-0.0,0.003,-1.542,-0.028,-0.353,82.51,85.6,40.526573,-3.422426,629.1,4,5,312.5,4.57
83.13,1,-0.034,-0.026,-0.013,-0.038,-0.015,-0.006,-1.543,-0.027,-0.356,82.51,85.6,40.526573,-3.422426,629.1,4,5,312.5,4.57
83.24,1,-0.034,-0.014,0.023,-0.033,-0.015,0.003,-1.543,-0.028,-0.358,82.51,85.6,40.526573,-3.422426,629.1,4,5,312.5,4.57
83.33,1,0.004,-0.004,0.012,-0.016,-0.009,0.011,-1.543,-0.029,-0.361,82.51,85.6,40.526573,-3.422426,629.1,4,5,312.5,4.57
83.44,1,0.004,0.004,-0.001,-0.004,-0.008,0.005,-1.542,-0.029,-0.364,82.51,85.6,40.526573,-3.422426,629.1,4,5,312.5,4.57
83.53,1,-0.026,-0.001,-0.016,-0.011,-0.002,-0.003,-1.541,-0.031,-0.367,82.51,85.6,40.526573,-3.422426,629.1,4,5,312.5,4.57
83.64,1,-0.008,0.0,0.0,-0.014,0.0,-0.004,-1.542,-0.032,-0.37,82.51,85.6,40.526573,-3.422426,629.1,4,5,312.5,4.57
83.74,1,-0.033,-0.021,0.007,-0.017,-0.006,0.002,-1.542,-0.031,-0.373,82.51,85.6,40.526573,-3.422426,629.1,4,5,312.5,4.57
83.84,1,0.014,-0.03,0.004,-0.013,-0.02,-0.001,-1.544,-0.03,-0.376,82.51,85.6,40.526573,-3.422426,629.1,4,5,312.5,4.57
83.93,1,-0.03,-0.012,-0.009,-0.008,-0.021,0.003,-1.545,-0.031,-0.379,83.5,85.8,40.526718,-3.422643,628.7,4,5,315.0,4.57
84.04,1,-0.041,-0.01,-0.01,-0.028,-0.013,-0.007,-1.545,-0.03,-0.381,83.5,85.8,40.526718,-3.422643,628.7,4,5,315.0,4.57
84.14,1,-0.002,0.007,-0.008,-0.025,-0.001,-0.006,-1.547,-0.031,-0.384,83.5,85.8,40.526718,-3.422643,628.7,4,5,315.0,4.57
84.24,1,-0.007,-0.004,-0.011,-0.009,-0.001,-0.009,-1.549,-0.03,-0.387,83.5,85.8,40.526718,-3.422643,628.7,4,5,315.0,4.57
84.34,1,0.034,-0.004,0.002,0.005,-0.004,-0.008,-1.548,-0.03,-0.389,83.5,85.8,40.526718,-3.422643,628.7,4,5,315.0,4.57
84.44,1,-0.01,0.003,-0.03,0.013,-0.002,-0.014,-1.547,-0.031,-0.392,83.5,85.8,40.526718,-3.422643,628.7,4,5,315.0,4.57
84.54,1,-0.022,-0.029,-0.016,-0.012,-0.011,-0.017,-1.546,-0.03,-0.394,83.5,85.8,40.526718,-3.422643,628.7,4,5,315.0,4.57
84.64,1,0.024,-0.021,0.007,-0.004,-0.018,-0.009,-1.548,-0.027,-0.396,83.5,85.8,40.526718,-3.422643,628.7,4,5,315.0,4.57
84.74,1,0.036,-0.017,-0.011,0.03,-0.018,-0.006,-1.548,-0.026,-0.399,83.5,85.8,40.526718,-3.422643,628.7,4,5,315.0,4.57
84.84,1,0.003,-0.031,-0.005,0.017,-0.03,-0.009,-1.545,-0.026,-0.402,83.5,85.8,40.526718,-3.422643,628.7,4,5,315.0,4.57
84.94,1,-0.034,-0.004,0.002,-0.008,-0.015,-0.002,-1.544,-0.028,-0.404,84.5,86.2,40.526871,-3.422845,627.9,4,5,317.1,4.57
85.05,1,-0.024,0.007,0.033,-0.017,-0.001,0.014,-1.545,-0.029,-0.407,84.5,86.2,40.526871,-3.422845,627.9,4,5,317.1,4.57
85.15,1,-0.005,-0.009,-0.003,-0.014,-0.002,0.01,-1.543,-0.03,-0.41,84.5,86.2,40.526871,-3.422845,627.9,4,5,317.1,4.57
85.24,1,-0.047,0.006,0.012,-0.029,-0.005,0.011,-1.541,-0.031,-0.412,84.5,86.2,40.526871,-3.422845,627.9,4,5,317.1,4.57
85.34,1,-0.012,-0.025,0.016,-0.032,-0.008,0.009,-1.539,-0.032,-0.415,84.5,86.2,40.526871,-3.422845,627.9,4,5,317.1,4.57
85.44,1,-0.067,0.015,-0.008,-0.033,-0.0,0.007,-1.541,-0.032,-0.418,84.5,86.2,40.526871,-3.422845,627.9,4,5,317.1,4.57
85.55,1,0.017,-0.008,0.011,-0.026,-0.001,0.006,-1.544,-0.033,-0.421,84.5,86.2,40.526871,-3.422845,627.9,4,5,317.1,4.57
85.65,1,-0.02,0.006,-0.005,-0.01,-0.002,0.002,-1.543,-0.033,-0.424,84.5,86.2,40.526871,-3.422845,627.9,4,5,317.1,4.57
85.74,1,-0.043,0.003,-0.003,-0.023,0.001,-0.004,-1.544,-0.033,-0.426,84.5,86.2,40.526871,-3.422845,627.9,4,5,317.1,4.57
85.84,1,-0.013,0.02,-0.013,-0.028,0.014,-0.009,-1.545,-0.036,-0.429,84.5,86.2,40.526871,-3.422845,627.9,4,5,317.1,4.57
85.94,1,0.03,-0.009,-0.017,0.006,0.005,-0.013,-1.546,-0.037,-0.432,85.5,87.3,40.527035,-3.423037,627.5,4,5,319.9,4.922
86.04,1,-0.036,-0.008,-0.031,-0.009,-0.007,-0.019,-1.545,-0.036,-0.435,85.5,87.3,40.527035,-3.423037,627.5,4,5,319.9,4.922
86.14,1,-0.02,-0.004,-0.023,-0.02,-0.004,-0.024,-1.544,-0.037,-0.437,85.5,87.3,40.527035,-3.423037,627.5,4,5,319.9,4.922
86.24,1,0.018,-0.013,-0.032,-0.012,-0.01,-0.024,-1.543,-0.035,-0.44,85.5,87.3,40.527035,-3.423037,627.5,4,5,319.9,4.922
86.34,1,0.001,-0.014,-0.006,0.004,-0.01,-0.022,-1.543,-0.033,-0.443,85.5,87.3,40.527035,-3.423037,627.5,4,5,319.9,4.922
86.44,1,-0.017,-0.021,-0.025,-0.007,-0.014,-0.02,-1.542,-0.033,-0.445,85.5,87.3,40.527035,-3.423037,627.5,4,5,319.9,4.922
86.55,1,0.022,0.002,0.014,-0.003,-0.01,-0.006,-1.543,-0.033,-0.448,85.5,87.3,40.527035,-3.423037,627.5,4,5,319.9,4.922
86.64,1,-0.04,-0.007,0.02,-0.009,-0.008,0.011,-1.543,-0.033,-0.45,85.5,87.3,40.527035,-3.423037,627.5,4,5,319.9,4.922
86.75,1,-0.023,-0.007,0.014,-0.02,-0.006,0.013,-1.544,-0.035,-0.453,85.5,87.3,40.527035,-3.423037,627.5,4,5,319.9,4.922
86.84,1,0.075,0.004,-0.005,0.017,-0.008,0.004,-1.545,-0.037,-0.455,85.5,87.3,40.527035,-3.423037,627.5,4,5,319.9,4.922
86.95,1,0.055,0.002,-0.019,0.05,0.001,-0.006,-1.545,-0.039,-0.457,86.51,86.9,40.527203,-3.423213,627.5,4,5,321.7,4.57
87.05,1,0.004,-0.011,-0.033,0.037,0.0,-0.024,-1.544,-0.038,-0.459,86.51,86.9,40.527203,-3.423213,627.5,4,5,321.7,4.57
87.14,1,-0.032,-0.027,-0.034,-0.009,-0.016,-0.028,-1.544,-0.034,-0.461,86.51,86.9,40.527203,-3.423213,627.5,4,5,321.7,4.57
87.25,1,0.015,-0.025,-0.016,-0.015,-0.026,-0.02,-1.542,-0.03,-0.463,86.51,86.9,40.527203,-3.423213,627.5,4,5,321.7,4.57
87.34,1,0.052,-0.027,-0.047,0.039,-0.021,-0.032,-1.542,-0.032,-0.465,86.51,86.9,40.527203,-3.423213,627.5,4,5,321.7,4.57
87.44,1,0.012,0.018,0.005,0.019,-0.005,-0.025,-1.539,-0.034,-0.467,86.51,86.9,40.527203,-3.423213,627.5,4,5,321.7,4.57
87.55,1,0.06,-0.022,-0.02,0.04,-0.005,-0.011,-1.539,-0.036,-0.469,86.51,86.9,40.527203,-3.423213,627.5,4,5,321.7,4.57
87.65,1,-0.015,-0.013,-0.012,0.018,-0.011,-0.014,-1.538,-0.037,-0.471,86.51,86.9,40.527203,-3.423213,627.5,4,5,321.7,4.57
87.74,1,0.014,0.003,-0.003,0.018,-0.008,-0.011,-1.537,-0.036,-0.473,86.51,86.9,40.527203,-3.423213,627.5,4,5,321.7,4.57
87.84,1,-0.015,0.019,0.005,-0.005,0.008,-0.002,-1.534,-0.033,-0.474,86.51,86.9,40.527203,-3.423213,627.5,4,5,321.7,4.57
87.95,1,-0.093,-0.016,0.01,-0.037,-0.003,0.005,-1.534,-0.032,-0.476,87.5,87.3,40.527374,-3.423369,626.8,4,5,324.5,4.57
88.05,1,-0.043,-0.014,0.019,-0.054,-0.011,0.014,-1.533,-0.032,-0.477,87.5,87.3,40.527374,-3.423369,626.8,4,5,324.5,4.57
88.16,1,-0.055,0.009,0.006,-0.046,-0.002,0.009,-1.531,-0.032,-0.479,87.5,87.3,40.527374,-3.423369,626.8,4,5,324.5,4.57
88.26,1,-0.052,-0.026,0.022,-0.055,-0.011,0.014,-1.531,-0.031,-0.48,87.5,87.3,40.527374,-3.423369,626.8,4,5,324.5,4.57
88.35,1,-0.023,-0.032,0.002,-0.037,-0.026,0.013,-1.532,-0.028,-0.481,87.5,87.3,40.527374,-3.423369,626.8,4,5,324.5,4.57
88.45,1,-0.049,-0.006,-0.013,-0.038,-0.018,-0.007,-1.53,-0.029,-0.483,87.5,87.3,40.527374,-3.423369,626.8,4,5,324.5,4.57
88.55,1,-0.041,-0.018,-0.002,-0.046,-0.016,-0.001,-1.529,-0.03,-0.484,87.5,87.3,40.527374,-3.423369,626.8,4,5,324.5,4.57
88.65,1,-0.004,-0.036,-0.005,-0.03,-0.019,-0.003,-1.531,-0.032,-0.486,87.5,87.3,40.527374,-3.423369,626.8,4,5,324.5,4.57
88.75,1,-0.0,-0.024,-0.018,-0.008,-0.027,-0.011,-1.53,-0.031,-0.487,87.5,87.3,40.527374,-3.423369,626.8,4,5,324.5,4.57
88.85,1,0.019,-0.029,-0.022,0.002,-0.029,-0.012,-1.528,-0.033,-0.488,87.5,87.3,40.527374,-3.423369,626.8,4,5,324.5,4.57
88.95,1,0.017,-0.013,-0.023,0.009,-0.02,-0.024,-1.524,-0.032,-0.489,88.5,87.6,40.527569,-3.423527,626.6,4,5,327.0,5.273
89.05,1,-0.007,-0.022,-0.011,0.009,-0.022,-0.017,-1.521,-0.034,-0.49,88.5,87.6,40.527569,-3.423527,626.6,4,5,327.0,5.273
89.15,1,0.01,-0.017,-0.014,0.003,-0.021,-0.015,-1.523,-0.036,-0.491,88.5,87.6,40.527569,-3.423527,626.6,4,5,327.0,5.273
89.26,1,0.003,-0.035,0.004,0.002,-0.022,-0.006,-1.524,-0.038,-0.492,88.5,87.6,40.527569,-3.423527,626.6,4,5,327.0,5.273
89.35,1,0.006,-0.014,-0.023,0.015,-0.023,-0.008,-1.522,-0.038,-0.493,88.5,87.6,40.527569,-3.423527,626.6,4,5,327.0,5.273
89.45,1,-0.027,-0.03,-0.011,-0.011,-0.021,-0.021,-1.52,-0.036,-0.493,88.5,87.6,40.527569,-3.423527,626.6,4,5,327.0,5.273
89.65,1,-0.034,-0.057,0.011,-0.02,-0.04,0.003,-1.521,-0.027,-0.492,88.5,87.6,40.527569,-3.423527,626.6,4,5,327.0,5.273
89.75,1,0.006,-0.031,0.0,-0.014,-0.04,0.003,-1.519,-0.026,-0.492,88.5,87.6,40.527569,-3.423527,626.6,4,5,327.0,5.273
89.86,1,0.002,-0.016,0.033,-0.003,-0.031,0.014,-1.521,-0.027,-0.491,88.5,87.6,40.527569,-3.423527,626.6,4,5,327.0,5.273
89.95,1,-0.019,-0.053,0.025,-0.007,-0.035,0.022,-1.522,-0.027,-0.491,88.5,87.6,40.527569,-3.423527,626.6,4,5,327.0,5.273
90.05,1,0.006,-0.044,0.022,-0.003,-0.045,0.02,-1.524,-0.027,-0.49,89.5,87.7,40.527756,-3.423677,626.2,4,5,329.1,4.57
90.15,1,-0.001,-0.014,0.026,-0.007,-0.032,0.024,-1.527,-0.025,-0.49,89.5,87.7,40.527756,-3.423677,626.2,4,5,329.1,4.57
90.25,1,0.002,-0.043,0.02,0.003,-0.032,0.026,-1.531,-0.023,-0.489,89.5,87.7,40.527756,-3.423677,626.2,4,5,329.1,4.57
90.35,1,-0.048,-0.042,0.031,-0.018,-0.036,0.021,-1.533,-0.02,-0.488,89.5,87.7,40.527756,-3.423677,626.2,4,5,329.1,4.57
90.45,1,0.002,-0.041,0.013,-0.036,-0.043,0.02,-1.535,-0.018,-0.486,89.5,87.7,40.527756,-3.423677,626.2,4,5,329.1,4.57
90.55,1,0.049,-0.051,0.043,0.026,-0.046,0.033,-1.535,-0.018,-0.485,89.5,87.7,40.527756,-3.423677,626.2,4,5,329.1,4.57
90.66,1,-0.044,-0.047,0.022,-0.001,-0.044,0.028,-1.534,-0.019,-0.484,89.5,87.7,40.527756,-3.423677,626.2,4,5,329.1,4.57
90.75,1,0.032,-0.01,0.029,-0.007,-0.033,0.023,-1.534,-0.018,-0.483,89.5,87.7,40.527756,-3.423677,626.2,4,5,329.1,4.57
90.85,1,0.04,-0.027,0.025,0.043,-0.027,0.035,-1.533,-0.018,-0.481,89.5,87.7,40.527756,-3.423677,626.2,4,5,329.1,4.57
90.95,1,-0.046,-0.031,0.027,-0.006,-0.025,0.026,-1.535,-0.016,-0.48,89.5,87.7,40.527756,-3.423677,626.2,4,5,329.1,4.57
91.06,1,0.02,-0.042,0.021,0.001,-0.035,0.021,-1.537,-0.015,-0.478,90.5,88.2,40.527946,-3.423816,625.6,4,5,331.2,4.219
91.16,1,-0.038,-0.044,0.029,-0.014,-0.04,0.026,-1.539,-0.013,-0.477,90.5,88.2,40.527946,-3.423816,625.6,4,5,331.2,4.219
91.26,1,-0.003,-0.038,0.024,-0.016,-0.039,0.03,-1.539,-0.013,-0.475,90.5,88.2,40.527946,-3.423816,625.6,4,5,331.2,4.219
91.36,1,-0.012,-0.032,-0.001,-0.003,-0.038,0.012,-1.54,-0.014,-0.474,90.5,88.2,40.527946,-3.423816,625.6,4,5,331.2,4.219
91.46,1,-0.005,-0.05,0.027,-0.017,-0.04,0.014,-1.54,-0.014,-0.472,90.5,88.2,40.527946,-3.423816,625.6,4,5,331.2,4.219
91.56,1,-0.04,-0.026,0.015,-0.019,-0.035,0.012,-1.538,-0.013,-0.47,90.5,88.2,40.527946,-3.423816,625.6,4,5,331.2,4.219
91.66,1,0.005,-0.026,0.027,-0.016,-0.032,0.027,-1.538,-0.013,-0.468,90.5,88.2,40.527946,-3.423816,625.6,4,5,331.2,4.219
91.76,1,0.018,-0.007,0.015,-0.0,-0.019,0.015,-1.54,-0.013,-0.467,90.5,88.2,40.527946,-3.423816,625.6,4,5,331.2,4.219
91.87,1,-0.01,-0.02,0.031,0.004,-0.021,0.027,-1.543,-0.013,-0.465,90.5,88.2,40.527946,-3.423816,625.6,4,5,331.2,4.219
91.96,1,-0.004,-0.023,0.034,-0.009,-0.015,0.031,-1.548,-0.012,-0.463,90.5,88.2,40.527946,-3.423816,625.6,4,5,331.2,4.219
92.06,1,0.01,-0.021,0.03,0.008,-0.022,0.034,-1.549,-0.012,-0.462,91.5,87.6,40.528145,-3.423953,625.2,4,5,332.2,3.164
92.16,1,-0.016,-0.015,0.051,0.0,-0.017,0.036,-1.55,-0.012,-0.46,91.5,87.6,40.528145,-3.423953,625.2,4,5,332.2,3.164
92.26,1,0.009,-0.004,0.027,-0.004,-0.013,0.038,-1.554,-0.013,-0.459,91.5,87.6,40.528145,-3.423953,625.2,4,5,332.2,3.164
92.36,1,-0.015,-0.008,0.03,-0.002,-0.009,0.033,-1.556,-0.012,-0.457,91.5,87.6,40.528145,-3.423953,625.2,4,5,332.2,3.164
92.46,1,-0.025,-0.008,0.027,-0.024,-0.008,0.028,-1.557,-0.012,-0.456,91.5,87.6,40.528145,-3.423953,625.2,4,5,332.2,3.164
92.57,1,0.015,-0.005,0.017,-0.0,-0.009,0.023,-1.555,-0.014,-0.454,91.5,87.6,40.528145,-3.423953,625.2,4,5,332.2,3.164
92.67,1,-0.022,0.006,0.039,-0.004,-0.001,0.03,-1.558,-0.015,-0.453,91.5,87.6,40.528145,-3.423953,625.2,4,5,332.2,3.164
92.76,1,-0.031,-0.012,0.007,-0.02,-0.003,0.017,-1.558,-0.016,-0.451,91.5,87.6,40.528145,-3.423953,625.2,4,5,332.2,3.164
92.86,1,-0.06,-0.014,0.034,-0.036,-0.01,0.026,-1.561,-0.018,-0.449,91.5,87.6,40.528145,-3.423953,625.2,4,5,332.2,3.164
92.96,1,-0.049,-0.013,0.013,-0.051,-0.011,0.024,-1.561,-0.02,-0.447,91.5,87.6,40.528145,-3.423953,625.2,4,5,332.2,3.164
93.07,1,-0.022,-0.009,0.013,-0.044,-0.011,0.016,-1.562,-0.021,-0.446,92.5,89.9,40.528339,-3.424087,624.7,4,5,333.3,2.109
93.16,1,0.031,-0.024,0.024,-0.009,-0.013,0.018,-1.563,-0.02,-0.444,92.5,89.9,40.528339,-3.424087,624.7,4,5,333.3,2.109
93.26,1,-0.028,-0.032,-0.001,0.004,-0.03,0.012,-1.564,-0.021,-0.442,92.5,89.9,40.528339,-3.424087,624.7,4,5,333.3,2.109
93.36,1,-0.023,-0.011,0.022,-0.021,-0.018,0.014,-1.564,-0.022,-0.44,92.5,89.9,40.528339,-3.424087,624.7,4,5,333.3,2.109
93.46,1,-0.064,-0.026,0.046,-0.032,-0.021,0.028,-1.567,-0.022,-0.438,92.5,89.9,40.528339,-3.424087,624.7,4,5,333.3,2.109
93.56,1,0.008,-0.031,0.03,-0.043,-0.026,0.033,-1.57,-0.025,-0.436,92.5,89.9,40.528339,-3.424087,624.7,4,5,333.3,2.109
93.66,1,0.021,-0.018,-0.008,0.005,-0.026,0.018,-1.568,-0.028,-0.433,92.5,89.9,40.528339,-3.424087,624.7,4,5,333.3,2.109
93.78,1,0.031,-0.034,0.012,0.02,-0.024,0.007,-1.567,-0.029,-0.431,92.5,89.9,40.528339,-3.424087,624.7,4,5,333.3,2.109
93.87,1,-0.001,-0.024,-0.026,0.017,-0.027,-0.003,-1.564,-0.029,-0.429,92.5,89.9,40.528339,-3.424087,624.7,4,5,333.3,2.109
93.96,1,-0.036,-0.053,0.011,-0.012,-0.035,-0.005,-1.561,-0.028,-0.426,92.5,89.9,40.528339,-3.424087,624.7,4,5,333.3,2.109
94.06,1,0.018,-0.064,-0.029,-0.007,-0.053,-0.01,-1.56,-0.028,-0.423,93.52,90.0,40.528542,-3.424223,624.5,4,5,333.3,1.055
94.16,1,0.008,-0.03,-0.017,0.017,-0.049,-0.015,-1.557,-0.026,-0.419,93.52,90.0,40.528542,-3.424223,624.5,4,5,333.3,1.055
94.26,1,-0.001,-0.046,0.015,0.005,-0.038,-0.005,-1.556,-0.024,-0.417,93.52,90.0,40.528542,-3.424223,624.5,4,5,333.3,1.055
94.36,1,-0.08,-0.028,-0.009,-0.031,-0.035,-0.006,-1.556,-0.02,-0.414,93.52,90.0,40.528542,-3.424223,624.5,4,5,333.3,1.055
94.46,1,-0.074,-0.022,0.013,-0.067,-0.033,0.002,-1.56,-0.017,-0.411,93.52,90.0,40.528542,-3.424223,624.5,4,5,333.3,1.055
94.56,1,-0.027,-0.031,-0.018,-0.059,-0.028,-0.0,-1.56,-0.017,-0.408,93.52,90.0,40.528542,-3.424223,624.5,4,5,333.3,1.055
94.67,1,0.008,-0.023,-0.019,-0.017,-0.029,-0.009,-1.557,-0.017,-0.405,93.52,90.0,40.528542,-3.424223,624.5,4,5,333.3,1.055
94.77,1,-0.037,-0.04,-0.017,-0.023,-0.031,-0.018,-1.554,-0.017,-0.402,93.52,90.0,40.528542,-3.424223,624.5,4,5,333.3,1.055
94.87,1,0.003,-0.024,-0.016,-0.012,-0.027,-0.017,-1.551,-0.015,-0.399,93.52,90.0,40.528542,-3.424223,624.5,4,5,333.3,1.055
94.97,1,-0.027,-0.034,-0.034,-0.012,-0.031,-0.024,-1.547,-0.014,-0.396,93.52,90.0,40.528542,-3.424223,624.5,4,5,333.3,1.055
95.08,1,-0.009,-0.031,-0.012,-0.015,-0.032,-0.023,-1.544,-0.014,-0.393,94.55,91.5,40.528751,-3.424351,624.2,3,5,333.6,0.352
95.16,1,0.024,-0.005,-0.011,0.001,-0.018,-0.012,-1.542,-0.013,-0.39,94.55,91.5,40.528751,-3.424351,624.2,3,5,333.6,0.352
95.27,1,-0.042,-0.027,-0.028,-0.002,-0.021,-0.019,-1.535,-0.012,-0.387,94.55,91.5,40.528751,-3.424351,624.2,3,5,333.6,0.352
95.37,1,-0.012,-0.003,-0.028,-0.031,-0.018,-0.028,-1.533,-0.011,-0.384,94.55,91.5,40.528751,-3.424351,624.2,3,5,333.6,0.352
95.47,1,0.006,-0.018,-0.001,-0.017,-0.014,-0.014,-1.531,-0.011,-0.381,94.55,91.5,40.528751,-3.424351,624.2,3,5,333.6,0.352
95.57,1,0.015,-0.024,-0.041,0.016,-0.021,-0.022,-1.528,-0.009,-0.378,94.55,91.5,40.528751,-3.424351,624.2,3,5,333.6,0.352
95.67,1,-0.008,-0.031,-0.014,0.002,-0.023,-0.023,-1.526,-0.008,-0.374,94.55,91.5,40.528751,-3.424351,624.2,3,5,333.6,0.352
95.77,1,-0.02,-0.043,-0.019,-0.006,-0.034,-0.018,-1.527,-0.006,-0.37,94.55,91.5,40.528751,-3.424351,624.2,3,5,333.6,0.352
95.87,1,-0.014,-0.04,-0.013,-0.015,-0.035,-0.019,-1.526,-0.005,-0.366,94.55,91.5,40.528751,-3.424351,624.2,3,5,333.6,0.352
95.97,1,0.006,-0.002,-0.017,-0.005,-0.025,-0.016,-1.525,-0.002,-0.362,94.55,91.5,40.528751,-3.424351,624.2,3,5,333.6,0.352
96.07,1,-0.056,-0.053,-0.034,-0.018,-0.029,-0.019,-1.523,-0.0,-0.358,95.5,92.8,40.52895,-3.424484,624.0,3,5,333.6,0.352
96.17,1,-0.119,-0.076,-0.059,-0.07,-0.061,-0.045,-1.525,-0.002,-0.354,95.5,92.8,40.52895,-3.424484,624.0,3,5,333.6,0.352
96.28,1,-0.027,0.019,0.016,-0.072,-0.031,-0.025,-1.529,-0.007,-0.35,95.5,92.8,40.52895,-3.424484,624.0,3,5,333.6,0.352
96.37,1,0.074,0.026,0.025,-0.005,0.01,0.011,-1.528,-0.008,-0.347,95.5,92.8,40.52895,-3.424484,624.0,3,5,333.6,0.352
96.47,1,0.109,-0.005,-0.03,0.072,0.005,-0.003,-1.522,-0.007,-0.342,95.5,92.8,40.52895,-3.424484,624.0,3,5,333.6,0.352
96.57,1,0.069,-0.033,-0.041,0.078,-0.015,-0.03,-1.516,-0.007,-0.338,95.5,92.8,40.52895,-3.424484,624.0,3,5,333.6,0.352
96.68,1,-0.076,-0.024,-0.039,0.016,-0.023,-0.038,-1.512,-0.005,-0.335,95.5,92.8,40.52895,-3.424484,624.0,3,5,333.6,0.352
96.77,1,-0.063,-0.019,0.007,-0.044,-0.021,-0.013,-1.514,-0.005,-0.331,95.5,92.8,40.52895,-3.424484,624.0,3,5,333.6,0.352
96.88,1,-0.014,-0.027,-0.01,-0.041,-0.021,-0.008,-1.515,-0.006,-0.327,95.5,92.8,40.52895,-3.424484,624.0,3,5,333.6,0.352
96.98,1,0.058,-0.028,-0.021,0.009,-0.023,-0.013,-1.511,-0.003,-0.323,95.5,92.8,40.52895,-3.424484,624.0,3,5,333.6,0.352
97.07,1,0.029,-0.04,-0.022,0.031,-0.035,-0.018,-1.507,0.001,-0.319,96.51,92.9,40.529167,-3.424628,623.8,3,5,333.3,0.352
97.17,1,0.055,-0.02,-0.021,0.043,-0.024,-0.023,-1.504,-0.0,-0.315,96.51,92.9,40.529167,-3.424628,623.8,3,5,333.3,0.352
97.27,1,0.029,-0.009,-0.021,0.037,-0.02,-0.023,-1.5,0.002,-0.311,96.51,92.9,40.529167,-3.424628,623.8,3,5,333.3,0.352
97.37,1,0.025,0.009,-0.011,0.032,-0.005,-0.013,-1.5,0.004,-0.307,96.51,92.9,40.529167,-3.424628,623.8,3,5,333.3,0.352
97.48,1,-0.067,-0.014,-0.07,-0.007,-0.007,-0.042,-1.497,0.005,-0.304,96.51,92.9,40.529167,-3.424628,623.8,3,5,333.3,0.352
97.57,1,-0.108,-0.043,-0.019,-0.059,-0.024,-0.038,-1.5,0.005,-0.3,96.51,92.9,40.529167,-3.424628,623.8,3,5,333.3,0.352
97.67,1,-0.19,0.002,-0.062,-0.131,-0.024,-0.041,-1.506,0.003,-0.295,96.51,92.9,40.529167,-3.424628,623.8,3,5,333.3,0.352
97.77,1,-0.117,0.025,0.065,-0.145,0.007,-0.014,-1.514,0.004,-0.291,96.51,92.9,40.529167,-3.424628,623.8,3,5,333.3,0.352
97.88,1,0.216,-0.049,0.018,0.004,-0.017,0.029,-1.512,0.007,-0.287,96.51,92.9,40.529167,-3.424628,623.8,3,5,333.3,0.352
97.98,1,0.15,-0.021,0.018,0.145,-0.019,0.025,-1.505,0.008,-0.283,96.51,92.9,40.529167,-3.424628,623.8,3,5,333.3,0.352
98.08,1,0.027,0.01,-0.056,0.07,-0.004,-0.011,-1.5,0.008,-0.279,97.51,91.4,40.529362,-3.424765,623.5,3,5,332.2,1.406
98.18,1,0.044,-0.001,-0.037,0.067,-0.005,-0.033,-1.497,0.011,-0.276,97.51,91.4,40.529362,-3.424765,623.5,3,5,332.2,1.406
98.27,1,-0.057,0.011,-0.025,0.009,0.004,-0.031,-1.497,0.012,-0.272,97.51,91.4,40.529362,-3.424765,623.5,3,5,332.2,1.406
98.37,1,-0.08,-0.011,-0.015,-0.044,-0.001,-0.026,-1.495,0.014,-0.269,97.51,91.4,40.529362,-3.424765,623.5,3,5,332.2,1.406
98.47,1,-0.056,0.026,-0.015,-0.061,0.011,-0.019,-1.496,0.01,-0.266,97.51,91.4,40.529362,-3.424765,623.5,3,5,332.2,1.406
98.57,1,0.027,0.008,0.012,-0.031,0.013,-0.004,-1.497,0.01,-0.262,97.51,91.4,40.529362,-3.424765,623.5,3,5,332.2,1.406
98.69,1,-0.004,0.01,-0.009,0.002,0.009,-0.001,-1.492,0.011,-0.259,97.51,91.4,40.529362,-3.424765,623.5,3,5,332.2,1.406
98.77,1,-0.035,0.007,-0.013,-0.022,0.012,-0.011,-1.491,0.009,-0.256,97.51,91.4,40.529362,-3.424765,623.5,3,5,332.2,1.406
98.88,1,-0.022,-0.01,0.01,-0.023,-0.001,-0.004,-1.495,0.008,-0.253,97.51,91.4,40.529362,-3.424765,623.5,3,5,332.2,1.406
99.01,1,-0.056,0.04,-0.013,-0.032,0.015,-0.001,-1.496,0.006,-0.249,97.51,91.4,40.529362,-3.424765,623.5,3,5,332.2,1.406
99.08,1,-0.066,0.021,-0.035,-0.053,0.027,-0.02,-1.493,0.006,-0.246,98.49,89.5,40.52956,-3.424899,623.4,4,5,331.2,2.109
99.18,1,-0.073,-0.019,-0.03,-0.066,0.001,-0.029,-1.494,0.011,-0.243,98.49,89.5,40.52956,-3.424899,623.4,4,5,331.2,2.109
99.28,1,0.007,-0.015,-0.005,-0.037,-0.01,-0.016,-1.495,0.012,-0.239,98.49,89.5,40.52956,-3.424899,623.4,4,5,331.2,2.109
99.39,1,-0.026,-0.029,-0.01,-0.016,-0.018,-0.012,-1.494,0.013,-0.235,98.49,89.5,40.52956,-3.424899,623.4,4,5,331.2,2.109
99.48,1,0.048,-0.023,0.021,0.003,-0.021,-0.002,-1.495,0.015,-0.231,98.49,89.5,40.52956,-3.424899,623.4,4,5,331.2,2.109
99.58,1,0.016,-0.049,-0.001,0.02,-0.031,0.006,-1.495,0.019,-0.226,98.49,89.5,40.52956,-3.424899,623.4,4,5,331.2,2.109
99.68,1,0.016,-0.025,-0.017,0.014,-0.037,-0.003,-1.493,0.021,-0.221,98.49,89.5,40.52956,-3.424899,623.4,4,5,331.2,2.109
99.78,1,0.057,-0.011,-0.006,0.03,-0.024,-0.01,-1.491,0.021,-0.216,98.49,89.5,40.52956,-3.424899,623.4,4,5,331.2,2.109
99.88,1,0.013,-0.008,-0.023,0.036,-0.012,-0.013,-1.489,0.026,-0.212,98.49,89.5,40.52956,-3.424899,623.4,4,5,331.2,2.109
99.98,1,-0.035,-0.035,-0.012,-0.002,-0.018,-0.015,-1.488,0.03,-0.207,98.49,89.5,40.52956,-3.424899,623.4,4,5,331.2,2.109
100.08,1,-0.008,-0.043,0.015,-0.011,-0.037,0.0,-1.486,0.032,-0.202,99.49,91.2,40.529758,-3.425044,623.2,4,5,330.1,2.109
100.18,1,0.038,-0.003,-0.012,0.011,-0.025,-0.003,-1.482,0.034,-0.198,99.49,91.2,40.529758,-3.425044,623.2,4,5,330.1,2.109
100.28,1,0.063,0.006,-0.007,0.04,-0.008,-0.008,-1.48,0.035,-0.193,99.49,91.2,40.529758,-3.425044,623.2,4,5,330.1,2.109
100.38,1,-0.051,0.007,-0.019,0.005,0.005,-0.011,-1.481,0.038,-0.189,99.49,91.2,40.529758,-3.425044,623.2,4,5,330.1,2.109
100.48,1,-0.048,-0.048,0.007,-0.032,-0.018,-0.008,-1.481,0.042,-0.184,99.49,91.2,40.529758,-3.425044,623.2,4,5,330.1,2.109
100.59,1,-0.047,0.003,0.01,-0.036,-0.016,0.008,-1.488,0.044,-0.179,99.49,91.2,40.529758,-3.425044,623.2,4,5,330.1,2.109
100.68,1,-0.128,-0.043,-0.053,-0.067,-0.017,-0.021,-1.49,0.044,-0.174,99.49,91.2,40.529758,-3.425044,623.2,4,5,330.1,2.109
100.78,1,-0.066,-0.043,0.008,-0.077,-0.03,-0.015,-1.495,0.043,-0.169,99.49,91.2,40.529758,-3.425044,623.2,4,5,330.1,2.109
100.88,1,-0.025,0.027,0.015,-0.072,-0.016,-0.0,-1.497,0.042,-0.164,99.49,91.2,40.529758,-3.425044,623.2,4,5,330.1,2.109
100.98,1,0.002,0.001,0.008,-0.022,-0.002,0.007,-1.497,0.042,-0.16,99.49,91.2,40.529758,-3.425044,623.2,4,5,330.1,2.109
101.08,1,-0.001,0.023,0.016,-0.017,0.012,0.008,-1.495,0.041,-0.155,100.49,86.7,40.529945,-3.425193,622.4,4,5,329.1,2.109
101.19,1,0.022,0.033,0.086,-0.002,0.022,0.046,-1.501,0.04,-0.152,100.49,86.7,40.529945,-3.425193,622.4,4,5,329.1,2.109
101.28,1,0.021,0.087,0.058,0.021,0.042,0.059,-1.499,0.037,-0.15,100.49,86.7,40.529945,-3.425193,622.4,4,5,329.1,2.109
101.38,1,-0.001,0.105,0.051,0.006,0.084,0.053,-1.5,0.026,-0.149,100.49,86.7,40.529945,-3.425193,622.4,4,5,329.1,2.109
101.48,1,0.018,0.063,0.066,0.015,0.081,0.064,-1.506,0.02,-0.147,100.49,86.7,40.529945,-3.425193,622.4,4,5,329.1,2.109
101.59,1,-0.035,0.041,0.049,-0.002,0.063,0.054,-1.513,0.014,-0.146,100.49,86.7,40.529945,-3.425193,622.4,4,5,329.1,2.109
101.68,1,-0.029,0.025,0.035,-0.022,0.038,0.05,-1.519,0.011,-0.144,100.49,86.7,40.529945,-3.425193,622.4,4,5,329.1,2.109
101.79,1,0.002,0.034,0.043,-0.02,0.039,0.04,-1.527,0.006,-0.141,100.49,86.7,40.529945,-3.425193,622.4,4,5,329.1,2.109
101.88,1,-0.039,-0.016,0.049,-0.018,0.014,0.047,-1.531,0.012,-0.138,100.49,86.7,40.529945,-3.425193,622.4,4,5,329.1,2.109
101.98,1,-0.052,-0.034,0.013,-0.038,-0.015,0.031,-1.536,0.015,-0.134,100.49,86.7,40.529945,-3.425193,622.4,4,5,329.1,2.109
102.09,1,-0.011,0.005,0.045,-0.025,-0.009,0.03,-1.538,0.016,-0.13,101.51,85.9,40.530128,-3.425339,621.9,4,5,327.3,2.812
102.18,1,0.041,-0.004,0.059,0.002,-0.006,0.046,-1.542,0.015,-0.127,101.51,85.9,40.530128,-3.425339,621.9,4,5,327.3,2.812
102.29,1,0.101,0.009,0.027,0.041,0.001,0.045,-1.546,0.014,-0.123,101.51,85.9,40.530128,-3.425339,621.9,4,5,327.3,2.812
102.39,1,0.069,-0.014,0.004,0.076,-0.002,0.026,-1.543,0.011,-0.119,101.51,85.9,40.530128,-3.425339,621.9,4,5,327.3,2.812
102.49,1,0.021,0.018,0.032,0.054,0.002,0.021,-1.543,0.009,-0.116,101.51,85.9,40.530128,-3.425339,621.9,4,5,327.3,2.812
102.59,1,-0.014,0.002,0.031,0.015,0.009,0.026,-1.546,0.005,-0.112,101.51,85.9,40.530128,-3.425339,621.9,4,5,327.3,2.812
102.69,1,0.013,0.003,0.038,0.009,0.003,0.032,-1.548,0.005,-0.108,101.51,85.9,40.530128,-3.425339,621.9,4,5,327.3,2.812
102.79,1,-0.004,0.017,-0.024,0.003,0.01,0.011,-1.547,0.005,-0.104,101.51,85.9,40.530128,-3.425339,621.9,4,5,327.3,2.812
102.89,1,-0.073,0.002,0.005,-0.022,0.004,0.002,-1.547,0.006,-0.1,101.51,85.9,40.530128,-3.425339,621.9,4,5,327.3,2.812
102.99,1,-0.092,0.009,-0.01,-0.068,0.009,-0.006,-1.546,0.008,-0.096,101.51,85.9,40.530128,-3.425339,621.9,4,5,327.3,2.812
103.09,1,-0.028,-0.014,0.041,-0.062,-0.004,0.012,-1.549,0.01,-0.092,102.52,86.5,40.530312,-3.425496,621.3,4,5,325.5,3.516
103.19,1,0.028,0.009,-0.019,-0.01,-0.001,0.011,-1.548,0.01,-0.088,102.52,86.5,40.530312,-3.425496,621.3,4,5,325.5,3.516
103.29,1,-0.018,-0.011,-0.045,-0.007,-0.001,-0.02,-1.544,0.009,-0.084,102.52,86.5,40.530312,-3.425496,621.3,4,5,325.5,3.516
103.39,1,0.039,-0.001,0.006,0.003,-0.003,-0.02,-1.544,0.011,-0.079,102.52,86.5,40.530312,-3.425496,621.3,4,5,325.5,3.516
103.5,1,-0.05,0.008,-0.042,-0.001,0.006,-0.016,-1.543,0.013,-0.075,102.52,86.5,40.530312,-3.425496,621.3,4,5,325.5,3.516
103.59,1,0.007,0.013,-0.031,-0.016,0.003,-0.029,-1.54,0.014,-0.071,102.52,86.5,40.530312,-3.425496,621.3,4,5,325.5,3.516
103.69,1,-0.071,-0.018,-0.061,-0.028,0.001,-0.048,-1.538,0.016,-0.067,102.52,86.5,40.530312,-3.425496,621.3,4,5,325.5,3.516
103.79,1,-0.026,-0.017,-0.04,-0.048,-0.017,-0.046,-1.539,0.015,-0.062,102.52,86.5,40.530312,-3.425496,621.3,4,5,325.5,3.516
103.89,1,0.005,0.016,-0.089,-0.003,-0.004,-0.061,-1.534,0.013,-0.059,102.52,86.5,40.530312,-3.425496,621.3,4,5,325.5,3.516
103.99,1,-0.084,0.012,-0.08,-0.039,0.022,-0.082,-1.535,0.013,-0.055,102.52,86.5,40.530312,-3.425496,621.3,4,5,325.5,3.516
104.1,1,-0.117,0.042,-0.01,-0.1,0.016,-0.041,-1.535,0.013,-0.051,103.53,86.2,40.530483,-3.42566,620.9,4,5,324.8,2.461
104.19,1,0.026,-0.012,-0.031,-0.037,0.021,-0.029,-1.532,0.015,-0.047,103.53,86.2,40.530483,-3.42566,620.9,4,5,324.8,2.461
104.29,1,0.074,0.005,-0.021,0.027,0.003,-0.028,-1.528,0.015,-0.044,103.53,86.2,40.530483,-3.42566,620.9,4,5,324.8,2.461
104.39,1,0.004,0.041,-0.044,0.022,0.016,-0.03,-1.528,0.016,-0.041,103.53,86.2,40.530483,-3.42566,620.9,4,5,324.8,2.461
104.49,1,0.001,0.02,-0.04,0.009,0.024,-0.046,-1.523,0.016,-0.037,103.53,86.2,40.530483,-3.42566,620.9,4,5,324.8,2.461
104.6,1,-0.168,0.013,-0.015,-0.061,0.02,-0.033,-1.523,0.014,-0.034,103.53,86.2,40.530483,-3.42566,620.9,4,5,324.8,2.461
104.7,1,-0.035,-0.003,0.008,-0.083,0.005,-0.007,-1.522,0.014,-0.031,103.53,86.2,40.530483,-3.42566,620.9,4,5,324.8,2.461
104.79,1,0.015,0.013,-0.03,-0.023,0.007,-0.015,-1.52,0.013,-0.028,103.53,86.2,40.530483,-3.42566,620.9,4,5,324.8,2.461
104.9,1,-0.072,0.002,-0.032,-0.04,0.007,-0.025,-1.516,0.012,-0.025,103.53,86.2,40.530483,-3.42566,620.9,4,5,324.8,2.461
105.0,1,-0.019,0.027,-0.031,-0.038,0.014,-0.033,-1.514,0.01,-0.022,103.53,86.2,40.530483,-3.42566,620.9,4,5,324.8,2.461
105.09,1,0.019,0.019,0.007,-0.006,0.021,-0.007,-1.512,0.009,-0.019,104.49,87.3,40.530655,-3.425821,620.1,4,5,323.4,2.109
105.19,1,-0.019,0.022,-0.028,-0.012,0.017,-0.012,-1.507,0.007,-0.017,104.49,87.3,40.530655,-3.425821,620.1,4,5,323.4,2.109
105.3,1,-0.001,0.019,-0.009,-0.007,0.021,-0.019,-1.505,0.008,-0.014,104.49,87.3,40.530655,-3.425821,620.1,4,5,323.4,2.109
105.39,1,-0.031,0.012,0.002,-0.007,0.017,-0.007,-1.503,0.008,-0.012,104.49,87.3,40.530655,-3.425821,620.1,4,5,323.4,2.109
105.49,1,-0.052,0.022,-0.025,-0.037,0.02,-0.013,-1.501,0.006,-0.009,104.49,87.3,40.530655,-3.425821,620.1,4,5,323.4,2.109
105.6,1,-0.009,0.029,-0.008,-0.024,0.024,-0.015,-1.502,0.007,-0.007,104.49,87.3,40.530655,-3.425821,620.1,4,5,323.4,2.109
105.69,1,0.009,-0.006,0.005,-0.021,0.01,-0.005,-1.501,0.008,-0.004,104.49,87.3,40.530655,-3.425821,620.1,4,5,323.4,2.109
105.79,1,-0.03,0.025,-0.017,-0.011,0.009,-0.005,-1.499,0.008,-0.002,104.49,87.3,40.530655,-3.425821,620.1,4,5,323.4,2.109
105.91,1,-0.008,0.003,0.001,-0.015,0.015,-0.006,-1.496,0.006,0.001,104.49,87.3,40.530655,-3.425821,620.1,4,5,323.4,2.109
105.99,1,0.016,-0.003,-0.016,-0.003,0.003,-0.011,-1.498,0.007,0.003,104.49,87.3,40.530655,-3.425821,620.1,4,5,323.4,2.109
106.1,1,-0.024,-0.017,-0.028,-0.002,-0.004,-0.018,-1.497,0.006,0.006,105.54,86.8,40.530823,-3.425985,620.1,3,5,321.7,3.164
106.19,1,-0.016,0.007,-0.006,-0.008,-0.0,-0.014,-1.497,0.005,0.008,105.54,86.8,40.530823,-3.425985,620.1,3,5,321.7,3.164
106.3,1,-0.061,0.021,-0.025,-0.033,0.007,-0.017,-1.5,0.004,0.011,105.54,86.8,40.530823,-3.425985,620.1,3,5,321.7,3.164
106.4,1,0.001,-0.003,0.007,-0.027,0.007,-0.011,-1.504,0.002,0.013,105.54,86.8,40.530823,-3.425985,620.1,3,5,321.7,3.164
106.5,1,-0.042,-0.004,0.028,-0.027,0.002,0.012,-1.505,0.0,0.016,105.54,86.8,40.530823,-3.425985,620.1,3,5,321.7,3.164
106.61,1,-0.073,0.005,0.07,-0.052,-0.002,0.037,-1.51,-0.0,0.018,105.54,86.8,40.530823,-3.425985,620.1,3,5,321.7,3.164
106.7,1,-0.014,0.014,0.074,-0.044,0.006,0.059,-1.518,0.0,0.02,105.54,86.8,40.530823,-3.425985,620.1,3,5,321.7,3.164
106.8,1,-0.054,0.012,0.051,-0.037,0.009,0.057,-1.524,0.001,0.022,105.54,86.8,40.530823,-3.425985,620.1,3,5,321.7,3.164
106.9,1,-0.042,0.016,0.045,-0.048,0.014,0.051,-1.525,0.001,0.024,105.54,86.8,40.530823,-3.425985,620.1,3,5,321.7,3.164
107.0,1,0.015,0.008,0.046,-0.023,0.014,0.047,-1.528,0.001,0.026,105.54,86.8,40.530823,-3.425985,620.1,3,5,321.7,3.164
107.1,1,-0.012,-0.015,0.036,-0.002,-0.003,0.049,-1.532,0.003,0.028,106.52,85.3,40.530991,-3.42616,619.9,3,5,320.3,3.164
107.2,1,-0.045,0.033,0.033,-0.021,0.008,0.033,-1.535,0.001,0.03,106.52,85.3,40.530991,-3.42616,619.9,3,5,320.3,3.164
107.31,1,-0.053,-0.004,0.037,-0.038,0.013,0.034,-1.538,0.0,0.032,106.52,85.3,40.530991,-3.42616,619.9,3,5,320.3,3.164
107.4,1,-0.09,0.023,0.047,-0.069,0.012,0.041,-1.541,0.0,0.034,106.52,85.3,40.530991,-3.42616,619.9,3,5,320.3,3.164
107.5,1,-0.045,0.009,0.052,-0.063,0.017,0.045,-1.544,-0.0,0.037,106.52,85.3,40.530991,-3.42616,619.9,3,5,320.3,3.164
107.6,1,-0.033,0.014,0.042,-0.049,0.013,0.051,-1.544,0.002,0.039,106.52,85.3,40.530991,-3.42616,619.9,3,5,320.3,3.164
107.7,1,-0.017,0.011,0.049,-0.034,0.009,0.042,-1.544,0.004,0.041,106.52,85.3,40.530991,-3.42616,619.9,3,5,320.3,3.164
107.8,1,-0.029,0.003,0.032,-0.006,0.006,0.042,-1.547,0.004,0.044,106.52,85.3,40.530991,-3.42616,619.9,3,5,320.3,3.164
107.9,1,-0.051,0.015,0.026,-0.049,0.007,0.029,-1.548,0.005,0.046,106.52,85.3,40.530991,-3.42616,619.9,3,5,320.3,3.164
108.01,1,0.003,0.004,0.049,-0.023,0.01,0.039,-1.55,0.008,0.048,106.52,85.3,40.530991,-3.42616,619.9,3,5,320.3,3.164
108.1,1,-0.026,-0.005,0.002,-0.016,0.004,0.028,-1.55,0.008,0.05,107.6,84.0,40.5313,-3.426524,618.6,3,5,316.8,3.164
108.2,1,-0.024,-0.009,0.05,-0.037,-0.003,0.028,-1.554,0.008,0.052,107.6,84.0,40.5313,-3.426524,618.6,3,5,316.8,3.164
108.3,1,0.014,-0.007,0.017,0.007,-0.007,0.031,-1.557,0.008,0.055,107.6,84.0,40.5313,-3.426524,618.6,3,5,316.8,3.164
108.4,1,-0.019,0.023,0.024,-0.018,0.006,0.024,-1.557,0.006,0.057,107.6,84.0,40.5313,-3.426524,618.6,3,5,316.8,3.164
108.5,1,-0.021,0.007,0.022,-0.01,0.008,0.022,-1.558,0.006,0.059,107.6,84.0,40.5313,-3.426524,618.6,3,5,316.8,3.164
108.6,1,-0.027,0.016,0.014,-0.021,0.01,0.016,-1.556,0.007,0.061,107.6,84.0,40.5313,-3.426524,618.6,3,5,316.8,3.164
108.71,1,-0.066,0.012,0.01,-0.04,0.016,0.019,-1.557,0.007,0.063,107.6,84.0,40.5313,-3.426524,618.6,3,5,316.8,3.164
108.8,1,-0.172,0.046,-0.031,-0.1,0.024,-0.006,-1.559,0.008,0.066,107.6,84.0,40.5313,-3.426524,618.6,3,5,316.8,3.164
108.9,1,-0.145,0.045,0.041,-0.142,0.044,0.004,-1.565,0.011,0.068,107.6,84.0,40.5313,-3.426524,618.6,3,5,316.8,3.164
109.01,1,0.041,0.005,0.058,-0.076,0.023,0.046,-1.569,0.018,0.071,107.6,84.0,40.5313,-3.426524,618.6,3,5,316.8,3.164
109.1,1,0.126,-0.009,-0.012,0.049,0.003,0.018,-1.563,0.021,0.073,108.59,85.6,40.531452,-3.426721,618.7,3,5,315.4,3.516
109.22,1,0.035,0.006,-0.021,0.062,0.002,-0.004,-1.558,0.024,0.075,108.59,85.6,40.531452,-3.426721,618.7,3,5,315.4,3.516
109.3,1,-0.045,0.04,-0.02,0.008,0.02,-0.015,-1.556,0.022,0.077,108.59,85.6,40.531452,-3.426721,618.7,3,5,315.4,3.516
109.41,1,-0.05,0.026,0.003,-0.028,0.029,-0.007,-1.556,0.018,0.079,108.59,85.6,40.531452,-3.426721,618.7,3,5,315.4,3.516
109.5,1,-0.036,0.024,-0.023,-0.04,0.026,-0.011,-1.553,0.016,0.081,108.59,85.6,40.531452,-3.426721,618.7,3,5,315.4,3.516
109.61,1,-0.055,0.03,-0.017,-0.045,0.026,-0.019,-1.552,0.012,0.083,108.59,85.6,40.531452,-3.426721,618.7,3,5,315.4,3.516
109.71,1,-0.003,0.022,-0.021,-0.027,0.027,-0.018,-1.548,0.013,0.084,108.59,85.6,40.531452,-3.426721,618.7,3,5,315.4,3.516
109.81,1,-0.008,0.02,-0.028,-0.014,0.027,-0.025,-1.547,0.009,0.085,108.59,85.6,40.531452,-3.426721,618.7,3,5,315.4,3.516
109.91,1,-0.023,0.021,-0.009,-0.014,0.016,-0.016,-1.545,0.006,0.086,108.59,85.6,40.531452,-3.426721,618.7,3,5,315.4,3.516
110.01,1,-0.045,0.036,-0.005,-0.03,0.026,-0.009,-1.545,0.001,0.087,108.59,85.6,40.531452,-3.426721,618.7,3,5,315.4,3.516
110.11,1,-0.027,0.031,-0.006,-0.033,0.033,-0.009,-1.545,-0.002,0.089,109.52,85.6,40.531452,-3.426721,618.7,3,5,315.4,3.164
110.21,1,-0.034,0.008,-0.005,-0.032,0.021,-0.004,-1.544,-0.003,0.09,109.52,85.6,40.531452,-3.426721,618.7,3,5,315.4,3.164
110.31,1,-0.067,0.008,0.004,-0.045,0.011,-0.002,-1.543,-0.005,0.091,109.52,85.6,40.531452,-3.426721,618.7,3,5,315.4,3.164
110.41,1,-0.052,0.02,-0.007,-0.056,0.015,-0.006,-1.543,-0.006,0.092,109.52,85.6,40.531452,-3.426721,618.7,3,5,315.4,3.164
110.51,1,-0.034,0.017,0.03,-0.047,0.018,0.012,-1.545,-0.007,0.093,109.52,85.6,40.531452,-3.426721,618.7,3,5,315.4,3.164
110.61,1,0.003,0.019,0.018,-0.025,0.019,0.018,-1.545,-0.006,0.094,109.52,85.6,40.531452,-3.426721,618.7,3,5,315.4,3.164
110.71,1,0.005,0.019,0.0,-0.005,0.019,0.015,-1.545,-0.008,0.095,109.52,85.6,40.531452,-3.426721,618.7,3,5,315.4,3.164
110.81,1,-0.036,0.019,0.017,-0.016,0.019,0.006,-1.546,-0.007,0.096,109.52,85.6,40.531452,-3.426721,618.7,3,5,315.4,3.164
110.92,1,-0.008,0.013,0.023,-0.014,0.018,0.015,-1.55,-0.006,0.098,109.52,85.6,40.531452,-3.426721,618.7,3,5,315.4,3.164
111.01,1,-0.032,-0.01,0.04,-0.015,0.006,0.031,-1.553,-0.006,0.1,109.52,85.6,40.531452,-3.426721,618.7,3,5,315.4,3.164
111.12,1,-0.008,0.007,-0.024,-0.025,-0.0,0.008,-1.552,-0.004,0.101,110.5,85.5,40.531597,-3.426926,618.8,3,5,313.9,2.812
111.21,1,-0.052,0.01,-0.011,-0.026,0.007,-0.005,-1.552,-0.004,0.103,110.5,85.5,40.531597,-3.426926,618.8,3,5,313.9,2.812
111.31,1,-0.061,-0.045,0.016,-0.053,-0.011,-0.0,-1.554,-0.001,0.105,110.5,85.5,40.531597,-3.426926,618.8,3,5,313.9,2.812
111.41,1,-0.036,-0.027,-0.016,-0.04,-0.026,-0.002,-1.554,0.0,0.107,110.5,85.5,40.531597,-3.426926,618.8,3,5,313.9,2.812
111.51,1,-0.036,0.006,0.025,-0.04,-0.016,0.005,-1.557,0.0,0.109,110.5,85.5,40.531597,-3.426926,618.8,3,5,313.9,2.812
111.61,1,-0.02,-0.019,0.001,-0.038,-0.009,0.011,-1.561,0.001,0.111,110.5,85.5,40.531597,-3.426926,618.8,3,5,313.9,2.812
111.71,1,0.014,0.0,-0.005,-0.006,-0.009,-0.0,-1.562,0.001,0.113,110.5,85.5,40.531597,-3.426926,618.8,3,5,313.9,2.812
111.81,1,-0.04,-0.023,0.001,-0.015,-0.011,0.001,-1.563,0.003,0.115,110.5,85.5,40.531597,-3.426926,618.8,3,5,313.9,2.812
111.91,1,0.014,0.009,0.001,-0.006,-0.009,0.003,-1.563,0.003,0.117,110.5,85.5,40.531597,-3.426926,618.8,3,5,313.9,2.812
112.01,1,-0.069,0.022,0.006,-0.023,0.008,-0.002,-1.563,0.002,0.119,110.5,85.5,40.531597,-3.426926,618.8,3,5,313.9,2.812
112.12,1,-0.021,0.004,0.01,-0.041,0.01,0.007,-1.564,0.003,0.12,111.48,86.2,40.53175,-3.427123,618.9,3,5,312.9,2.461
112.21,1,-0.024,0.019,0.011,-0.028,0.012,0.01,-1.564,0.005,0.122,111.48,86.2,40.53175,-3.427123,618.9,3,5,312.9,2.461
112.32,1,-0.053,0.005,0.02,-0.04,0.011,0.015,-1.566,0.005,0.124,111.48,86.2,40.53175,-3.427123,618.9,3,5,312.9,2.461
112.42,1,0.005,0.006,0.017,-0.027,0.006,0.015,-1.566,0.006,0.126,111.48,86.2,40.53175,-3.427123,618.9,3,5,312.9,2.461
112.51,1,0.003,0.009,-0.002,-0.009,0.005,0.007,-1.566,0.006,0.127,111.48,86.2,40.53175,-3.427123,618.9,3,5,312.9,2.461
112.61,1,-0.054,-0.007,0.023,-0.021,0.005,0.014,-1.567,0.005,0.129,111.48,86.2,40.53175,-3.427123,618.9,3,5,312.9,2.461
112.71,1,-0.044,0.002,0.0,-0.035,0.0,0.01,-1.568,0.006,0.131,111.48,86.2,40.53175,-3.427123,618.9,3,5,312.9,2.461
112.81,1,-0.062,0.003,0.001,-0.048,0.003,0.003,-1.569,0.005,0.132,111.48,86.2,40.53175,-3.427123,618.9,3,5,312.9,2.461
112.91,1,-0.037,0.012,-0.01,-0.05,0.004,-0.002,-1.57,0.006,0.134,111.48,86.2,40.53175,-3.427123,618.9,3,5,312.9,2.461
113.01,1,-0.029,0.019,-0.007,-0.029,0.013,-0.002,-1.571,0.008,0.136,111.48,86.2,40.53175,-3.427123,618.9,3,5,312.9,2.461
113.11,1,-0.061,0.009,0.002,-0.051,0.015,-0.004,-1.573,0.007,0.137,112.48,84.7,40.531887,-3.427326,618.7,4,5,311.5,2.461
113.21,1,0.003,0.026,-0.019,-0.033,0.017,-0.007,-1.578,0.006,0.139,112.48,84.7,40.531887,-3.427326,618.7,4,5,311.5,2.461
113.32,1,-0.043,0.011,-0.016,-0.029,0.016,-0.016,-1.577,0.005,0.14,112.48,84.7,40.531887,-3.427326,618.7,4,5,311.5,2.461
113.42,1,-0.024,0.03,0.008,-0.025,0.018,-0.002,-1.577,0.004,0.141,112.48,84.7,40.531887,-3.427326,618.7,4,5,311.5,2.461
113.53,1,-0.038,0.009,-0.005,-0.022,0.018,-0.005,-1.576,0.001,0.142,112.48,84.7,40.531887,-3.427326,618.7,4,5,311.5,2.461
113.63,1,-0.048,0.002,0.02,-0.045,0.01,0.008,-1.576,-0.0,0.143,112.48,84.7,40.531887,-3.427326,618.7,4,5,311.5,2.461
113.72,1,-0.05,0.027,-0.005,-0.055,0.014,0.002,-1.574,-0.002,0.144,112.48,84.7,40.531887,-3.427326,618.7,4,5,311.5,2.461
113.82,1,-0.014,-0.025,-0.005,-0.031,0.003,-0.003,-1.576,-0.0,0.145,112.48,84.7,40.531887,-3.427326,618.7,4,5,311.5,2.461
113.92,1,-0.039,0.024,0.003,-0.034,0.007,0.003,-1.577,0.0,0.146,112.48,84.7,40.531887,-3.427326,618.7,4,5,311.5,2.461
114.02,1,-0.065,0.008,0.025,-0.05,0.009,0.009,-1.578,-0.002,0.147,112.48,84.7,40.531887,-3.427326,618.7,4,5,311.5,2.461
114.12,1,-0.03,0.006,0.018,-0.036,0.008,0.017,-1.579,-0.003,0.148,113.48,85.0,40.532024,-3.427537,619.4,3,5,309.4,3.516
114.22,1,-0.022,0.002,0.003,-0.039,0.005,0.011,-1.579,-0.004,0.148,113.48,85.0,40.532024,-3.427537,619.4,3,5,309.4,3.516
114.32,1,0.007,0.0,0.0,-0.012,0.003,0.006,-1.574,-0.002,0.149,113.48,85.0,40.532024,-3.427537,619.4,3,5,309.4,3.516
114.42,1,-0.05,0.005,0.033,-0.024,-0.0,0.019,-1.575,-0.003,0.15,113.48,85.0,40.532024,-3.427537,619.4,3,5,309.4,3.516
114.52,1,-0.018,-0.016,0.048,-0.03,-0.003,0.032,-1.574,-0.003,0.152,113.48,85.0,40.532024,-3.427537,619.4,3,5,309.4,3.516
114.62,1,-0.016,-0.0,0.021,-0.014,-0.005,0.031,-1.575,-0.003,0.153,113.48,85.0,40.532024,-3.427537,619.4,3,5,309.4,3.516
114.72,1,-0.076,0.006,0.0,-0.046,0.002,0.014,-1.576,-0.003,0.154,113.48,85.0,40.532024,-3.427537,619.4,3,5,309.4,3.516
114.83,1,0.022,0.012,0.01,-0.025,0.007,0.008,-1.578,-0.001,0.156,113.48,85.0,40.532024,-3.427537,619.4,3,5,309.4,3.516
114.92,1,-0.05,0.006,-0.005,-0.021,0.007,0.003,-1.58,-0.001,0.157,113.48,85.0,40.532024,-3.427537,619.4,3,5,309.4,3.516
115.02,1,-0.049,-0.042,-0.0,-0.04,-0.012,0.003,-1.578,-0.006,0.159,113.48,85.0,40.532024,-3.427537,619.4,3,5,309.4,3.516
115.12,1,0.022,-0.009,-0.002,-0.02,-0.018,0.001,-1.574,-0.006,0.16,114.48,84.9,40.532154,-3.427756,619.7,3,5,307.6,3.867
115.22,1,-0.06,-0.011,0.026,-0.021,-0.011,0.01,-1.573,-0.008,0.161,114.48,84.9,40.532154,-3.427756,619.7,3,5,307.6,3.867
115.32,1,-0.05,0.005,0.0,-0.042,-0.008,0.006,-1.574,-0.006,0.162,114.48,84.9,40.532154,-3.427756,619.7,3,5,307.6,3.867
115.43,1,0.026,0.004,0.018,-0.02,0.004,0.01,-1.576,-0.005,0.163,114.48,84.9,40.532154,-3.427756,619.7,3,5,307.6,3.867
115.53,1,-0.029,0.001,0.007,-0.003,0.001,0.017,-1.576,-0.003,0.165,114.48,84.9,40.532154,-3.427756,619.7,3,5,307.6,3.867
115.62,1,-0.05,0.005,-0.019,-0.034,0.003,-0.005,-1.58,-0.002,0.166,114.48,84.9,40.532154,-3.427756,619.7,3,5,307.6,3.867
115.72,1,-0.062,0.011,0.022,-0.047,0.008,0.002,-1.583,-0.001,0.167,114.48,84.9,40.532154,-3.427756,619.7,3,5,307.6,3.867
115.82,1,-0.017,-0.013,0.032,-0.042,0.001,0.02,-1.585,0.002,0.169,114.48,84.9,40.532154,-3.427756,619.7,3,5,307.6,3.867
115.92,1,-0.016,-0.007,-0.008,-0.03,-0.009,0.014,-1.586,0.004,0.17,114.48,84.9,40.532154,-3.427756,619.7,3,5,307.6,3.867
116.03,1,-0.023,0.012,-0.003,-0.019,-0.001,0.002,-1.586,0.005,0.171,114.48,84.9,40.532154,-3.427756,619.7,3,5,307.6,3.867
116.12,1,-0.011,0.004,0.032,-0.021,0.007,0.009,-1.589,0.006,0.172,115.48,84.4,40.532284,-3.42798,620.2,3,5,306.9,2.461
116.22,1,0.004,0.01,-0.013,-0.003,0.006,0.012,-1.59,0.004,0.173,115.48,84.4,40.532284,-3.42798,620.2,3,5,306.9,2.461
116.32,1,-0.001,0.034,0.018,-0.002,0.019,0.006,-1.587,0.002,0.174,115.48,84.4,40.532284,-3.42798,620.2,3,5,306.9,2.461
116.42,1,0.002,-0.016,-0.001,0.007,0.012,0.007,-1.588,0.0,0.175,115.48,84.4,40.532284,-3.42798,620.2,3,5,306.9,2.461
116.53,1,-0.024,0.016,-0.015,-0.014,0.004,-0.006,-1.587,-0.001,0.176,115.48,84.4,40.532284,-3.42798,620.2,3,5,306.9,2.461
116.63,1,-0.006,0.051,0.009,-0.021,0.028,-0.002,-1.587,-0.001,0.177,115.48,84.4,40.532284,-3.42798,620.2,3,5,306.9,2.461
116.73,1,0.015,0.031,-0.005,0.007,0.032,0.001,-1.588,0.0,0.177,115.48,84.4,40.532284,-3.42798,620.2,3,5,306.9,2.461
116.82,1,0.014,0.008,-0.023,0.008,0.021,-0.01,-1.586,-0.0,0.178,115.48,84.4,40.532284,-3.42798,620.2,3,5,306.9,2.461
116.92,1,-0.03,0.017,-0.006,-0.004,0.018,-0.011,-1.585,-0.003,0.179,115.48,84.4,40.532284,-3.42798,620.2,3,5,306.9,2.461
117.02,1,-0.025,0.001,-0.004,-0.021,0.013,-0.005,-1.586,-0.004,0.18,115.48,84.4,40.532284,-3.42798,620.2,3,5,306.9,2.461
117.12,1,-0.021,0.003,0.001,-0.027,0.004,-0.007,-1.588,-0.005,0.182,116.51,85.3,40.53241,-3.428208,620.9,3,5,305.5,2.109
117.23,1,-0.008,-0.013,0.013,-0.013,-0.003,0.004,-1.589,-0.005,0.183,116.51,85.3,40.53241,-3.428208,620.9,3,5,305.5,2.109
117.33,1,-0.018,-0.005,-0.002,-0.01,-0.006,0.005,-1.587,-0.004,0.184,116.51,85.3,40.53241,-3.428208,620.9,3,5,305.5,2.109
117.43,1,-0.033,-0.004,0.025,-0.023,-0.007,0.013,-1.586,-0.006,0.185,116.51,85.3,40.53241,-3.428208,620.9,3,5,305.5,2.109
117.53,1,0.002,-0.003,0.019,-0.015,-0.005,0.014,-1.587,-0.008,0.186,116.51,85.3,40.53241,-3.428208,620.9,3,5,305.5,2.109
117.63,1,-0.031,0.0,-0.008,-0.015,-0.001,0.011,-1.586,-0.008,0.186,116.51,85.3,40.53241,-3.428208,620.9,3,5,305.5,2.109
117.73,1,-0.022,0.002,0.01,-0.024,0.002,0.002,-1.585,-0.008,0.188,116.51,85.3,40.53241,-3.428208,620.9,3,5,305.5,2.109
117.84,1,-0.02,0.018,0.002,-0.022,0.007,0.006,-1.587,-0.008,0.189,116.51,85.3,40.53241,-3.428208,620.9,3,5,305.5,2.109
117.94,1,-0.032,-0.012,0.03,-0.025,0.001,0.013,-1.59,-0.006,0.19,116.51,85.3,40.53241,-3.428208,620.9,3,5,305.5,2.109
118.03,1,0.011,-0.011,0.015,-0.011,-0.006,0.017,-1.587,-0.007,0.191,116.51,85.3,40.53241,-3.428208,620.9,3,5,305.5,2.109
118.13,1,-0.036,-0.002,-0.002,-0.015,-0.005,0.008,-1.586,-0.008,0.192,117.51,84.8,40.532536,-3.42844,621.8,3,5,303.4,3.516
118.23,1,-0.02,0.014,0.009,-0.02,0.005,0.009,-1.585,-0.007,0.193,117.51,84.8,40.532536,-3.42844,621.8,3,5,303.4,3.516
118.33,1,0.023,0.016,0.003,-0.001,0.008,0.005,-1.585,-0.005,0.194,117.51,84.8,40.532536,-3.42844,621.8,3,5,303.4,3.516
118.43,1,-0.019,-0.001,0.008,-0.008,0.007,0.004,-1.588,-0.004,0.196,117.51,84.8,40.532536,-3.42844,621.8,3,5,303.4,3.516
118.53,1,-0.044,-0.018,0.014,-0.024,-0.006,0.011,-1.584,-0.003,0.197,117.51,84.8,40.532536,-3.42844,621.8,3,5,303.4,3.516
118.63,1,-0.011,0.004,0.003,-0.029,-0.003,0.008,-1.583,-0.004,0.198,117.51,84.8,40.532536,-3.42844,621.8,3,5,303.4,3.516
118.73,1,0.03,0.004,0.025,0.008,-0.002,0.012,-1.583,-0.006,0.199,117.51,84.8,40.532536,-3.42844,621.8,3,5,303.4,3.516
118.83,1,-0.012,0.013,0.015,-0.008,0.009,0.018,-1.583,-0.008,0.2,117.51,84.8,40.532536,-3.42844,621.8,3,5,303.4,3.516
118.93,1,0.03,-0.002,0.024,0.012,0.004,0.022,-1.583,-0.007,0.201,117.51,84.8,40.532536,-3.42844,621.8,3,5,303.4,3.516
119.03,1,-0.044,0.028,-0.006,-0.0,0.012,0.01,-1.584,-0.008,0.202,117.51,84.8,40.532536,-3.42844,621.8,3,5,303.4,3.516
119.13,1,0.043,0.007,0.011,-0.002,0.016,0.009,-1.586,-0.009,0.202,118.5,83.9,40.53265,-3.428666,622.6,3,5,302.0,3.516
119.23,1,-0.025,0.028,-0.018,0.007,0.021,-0.005,-1.586,-0.012,0.202,118.5,83.9,40.53265,-3.428666,622.6,3,5,302.0,3.516
119.33,1,-0.04,0.021,-0.001,-0.02,0.02,-0.005,-1.588,-0.015,0.202,118.5,83.9,40.53265,-3.428666,622.6,3,5,302.0,3.516
119.43,1,0.024,0.012,-0.001,-0.006,0.018,0.001,-1.592,-0.016,0.203,118.5,83.9,40.53265,-3.428666,622.6,3,5,302.0,3.516
119.54,1,-0.031,-0.004,-0.007,-0.01,0.009,-0.007,-1.591,-0.014,0.203,118.5,83.9,40.53265,-3.428666,622.6,3,5,302.0,3.516
119.74,1,0.001,-0.014,0.029,-0.031,-0.004,0.013,-1.594,-0.01,0.206,118.5,83.9,40.53265,-3.428666,622.6,3,5,302.0,3.516
119.84,1,0.012,-0.014,-0.002,0.003,-0.009,0.013,-1.593,-0.008,0.207,118.5,83.9,40.53265,-3.428666,622.6,3,5,302.0,3.516
119.93,1,-0.02,-0.016,-0.005,-0.01,-0.014,-0.001,-1.592,-0.007,0.208,118.5,83.9,40.53265,-3.428666,622.6,3,5,302.0,3.516
120.03,1,-0.007,-0.004,0.015,-0.009,-0.011,0.002,-1.593,-0.006,0.209,118.5,83.9,40.53265,-3.428666,622.6,3,5,302.0,3.516
120.13,1,-0.017,-0.013,0.01,-0.016,-0.009,0.012,-1.594,-0.003,0.211,118.5,83.9,40.53265,-3.428666,622.6,3,5,302.0,3.516
120.23,1,-0.026,-0.021,-0.01,-0.016,-0.013,0.001,-1.591,-0.001,0.213,119.57,83.4,40.532856,-3.429135,624.2,4,5,299.2,2.109
120.34,1,-0.037,-0.002,-0.001,-0.026,-0.011,-0.0,-1.591,-0.001,0.214,119.57,83.4,40.532856,-3.429135,624.2,4,5,299.2,2.109
120.43,1,-0.034,-0.032,0.005,-0.036,-0.02,0.002,-1.591,0.002,0.216,119.57,83.4,40.532856,-3.429135,624.2,4,5,299.2,2.109
120.53,1,-0.006,-0.0,0.006,-0.021,-0.014,0.005,-1.592,0.002,0.218,119.57,83.4,40.532856,-3.429135,624.2,4,5,299.2,2.109
120.63,1,-0.02,-0.022,0.028,-0.018,-0.014,0.014,-1.591,0.003,0.219,119.57,83.4,40.532856,-3.429135,624.2,4,5,299.2,2.109
120.73,1,-0.001,-0.014,0.023,-0.013,-0.018,0.022,-1.593,0.006,0.221,119.57,83.4,40.532856,-3.429135,624.2,4,5,299.2,2.109
120.84,1,0.002,0.006,-0.005,-0.009,-0.005,0.008,-1.592,0.006,0.223,119.57,83.4,40.532856,-3.429135,624.2,4,5,299.2,2.109
120.94,1,-0.028,-0.016,0.001,-0.009,-0.004,0.003,-1.592,0.005,0.224,119.57,83.4,40.532856,-3.429135,624.2,4,5,299.2,2.109
121.04,1,-0.023,-0.01,-0.012,-0.01,-0.011,0.001,-1.593,0.006,0.225,119.57,83.4,40.532856,-3.429135,624.2,4,5,299.2,2.109
121.14,1,-0.038,0.014,-0.007,-0.029,0.003,-0.01,-1.593,0.006,0.227,119.57,83.4,40.532856,-3.429135,624.2,4,5,299.2,2.109
121.24,1,-0.025,0.004,0.003,-0.028,0.009,-0.003,-1.593,0.004,0.227,120.5,83.4,40.532856,-3.429135,624.2,4,5,299.2,2.812
121.34,1,-0.042,0.033,-0.0,-0.035,0.009,0.0,-1.595,0.004,0.228,120.5,83.4,40.532856,-3.429135,624.2,4,5,299.2,2.812
121.44,1,-0.023,0.011,0.013,-0.035,0.015,0.005,-1.595,0.005,0.229,120.5,83.4,40.532856,-3.429135,624.2,4,5,299.2,2.812
121.54,1,0.013,0.002,0.005,-0.007,0.012,0.009,-1.595,0.005,0.23,120.5,83.4,40.532856,-3.429135,624.2,4,5,299.2,2.812
121.64,1,-0.004,0.026,0.012,0.001,0.016,0.006,-1.596,0.006,0.23,120.5,83.4,40.532856,-3.429135,624.2,4,5,299.2,2.812
121.74,1,-0.015,0.012,-0.006,-0.014,0.013,0.005,-1.597,0.008,0.231,120.5,83.4,40.532856,-3.429135,624.2,4,5,299.2,2.812
121.84,1,0.066,0.041,-0.001,0.022,0.022,0.0,-1.597,0.008,0.232,120.5,83.4,40.532856,-3.429135,624.2,4,5,299.2,2.812
121.94,1,-0.024,0.046,0.007,0.017,0.041,-0.001,-1.596,0.008,0.232,120.5,83.4,40.532856,-3.429135,624.2,4,5,299.2,2.812
122.04,1,-0.03,0.019,0.006,-0.016,0.034,0.006,-1.597,0.005,0.232,120.5,83.4,40.532856,-3.429135,624.2,4,5,299.2,2.812
122.14,1,0.019,0.016,0.002,-0.005,0.021,0.004,-1.597,0.005,0.233,120.5,83.4,40.532856,-3.429135,624.2,4,5,299.2,2.812
