Timestamp_Accel,SystemActivated,accelerometerXAxis,accelerometerYAxis,accelerometerZAxis,AccelX_KF,AccelY_KF,AccelZ_KF,gyroscopeXAxis,gyroscopeYAxis,gyroscopeZAxis,Timestamp_GPS,Speed,latitude,longitude,Altitude,VerticalAccuracy,HorizontalAccuracy,Course,Difcourse
23.66,1,0.001,-0.001,0.016,-0.033,0.039,-0.012,-1.577,-0.062,-1.456,23.62,85.9,40.505859,-3.357527,607.0,4,5,276.3,0.703
23.77,1,0.05,-0.031,0.007,0.008,0.001,0.01,-1.581,-0.058,-1.457,23.62,85.9,40.505859,-3.357527,607.0,4,5,276.3,0.703
23.86,1,-0.04,-0.046,-0.03,0.007,-0.024,-0.008,-1.58,-0.052,-1.456,23.62,85.9,40.505859,-3.357527,607.0,4,5,276.3,0.703
23.98,1,0.022,-0.16,0.008,-0.016,-0.08,-0.005,-1.58,-0.041,-1.453,23.62,85.9,40.505859,-3.357527,607.0,4,5,276.3,0.703
24.06,1,0.023,-0.177,0.002,0.025,-0.14,0.002,-1.579,-0.036,-1.449,23.62,85.9,40.505859,-3.357527,607.0,4,5,276.3,0.703
24.16,1,-0.063,-0.176,-0.005,-0.016,-0.162,-0.004,-1.579,-0.036,-1.443,23.62,85.9,40.505859,-3.357527,607.0,4,5,276.3,0.703
24.27,1,-0.036,-0.164,0.007,-0.032,-0.171,0.001,-1.582,-0.027,-1.437,23.62,85.9,40.505859,-3.357527,607.0,4,5,276.3,0.703
24.37,1,-0.029,-0.137,0.038,-0.038,-0.157,0.016,-1.586,-0.013,-1.43,23.62,85.9,40.505859,-3.357527,607.0,4,5,276.3,0.703
24.47,1,0.054,-0.152,0.013,-0.001,-0.15,0.018,-1.586,-0.003,-1.424,23.62,85.9,40.505859,-3.357527,607.0,4,5,276.3,0.703
24.58,1,0.001,-0.107,-0.004,0.022,-0.134,0.013,-1.583,0.005,-1.418,23.62,85.9,40.505859,-3.357527,607.0,4,5,276.3,0.703
24.67,1,-0.021,-0.099,-0.005,-0.016,-0.109,-0.004,-1.582,0.008,-1.413,24.68,86.6,40.505886,-3.35781,606.5,4,5,277.4,1.758
24.77,1,-0.036,-0.028,0.029,-0.011,-0.081,0.01,-1.584,0.01,-1.411,24.68,86.6,40.505886,-3.35781,606.5,4,5,277.4,1.758
24.86,1,-0.104,0.056,0.013,-0.057,-0.009,0.017,-1.584,0.003,-1.41,24.68,86.6,40.505886,-3.35781,606.5,4,5,277.4,1.758
24.97,1,-0.066,0.066,0.018,-0.074,0.033,0.019,-1.588,0.002,-1.41,24.68,86.6,40.505886,-3.35781,606.5,4,5,277.4,1.758
25.06,1,-0.087,0.12,0.005,-0.072,0.075,0.013,-1.591,-0.002,-1.412,24.68,86.6,40.505886,-3.35781,606.5,4,5,277.4,1.758
25.17,1,-0.009,0.103,0.034,-0.061,0.105,0.018,-1.594,-0.005,-1.414,24.68,86.6,40.505886,-3.35781,606.5,4,5,277.4,1.758
25.26,1,-0.02,0.112,0.011,-0.029,0.11,0.017,-1.599,-0.013,-1.417,24.68,86.6,40.505886,-3.35781,606.5,4,5,277.4,1.758
25.36,1,-0.038,0.104,0.036,-0.031,0.103,0.024,-1.602,-0.021,-1.42,24.68,86.6,40.505886,-3.35781,606.5,4,5,277.4,1.758
25.46,1,0.05,0.051,0.035,-0.001,0.082,0.035,-1.606,-0.024,-1.423,24.68,86.6,40.505886,-3.35781,606.5,4,5,277.4,1.758
25.56,1,0.002,0.038,0.021,0.021,0.057,0.028,-1.607,-0.027,-1.425,24.68,86.6,40.505886,-3.35781,606.5,4,5,277.4,1.758
25.67,1,-0.022,0.025,0.037,-0.012,0.041,0.026,-1.61,-0.028,-1.426,25.61,87.0,40.505905,-3.358092,606.1,4,5,274.9,2.461
25.77,1,0.008,0.038,0.029,0.003,0.032,0.036,-1.612,-0.03,-1.427,25.61,87.0,40.505905,-3.358092,606.1,4,5,274.9,2.461
25.87,1,-0.02,0.004,0.008,-0.005,0.024,0.022,-1.615,-0.031,-1.427,25.61,87.0,40.505905,-3.358092,606.1,4,5,274.9,2.461
25.97,1,-0.046,-0.032,0.03,-0.028,-0.002,0.023,-1.619,-0.029,-1.427,25.61,87.0,40.505905,-3.358092,606.1,4,5,274.9,2.461
26.07,1,0.027,-0.01,0.006,-0.0,-0.017,0.017,-1.622,-0.029,-1.427,25.61,87.0,40.505905,-3.358092,606.1,4,5,274.9,2.461
26.17,1,-0.049,0.029,-0.004,-0.027,0.01,0.008,-1.624,-0.025,-1.427,25.61,87.0,40.505905,-3.358092,606.1,4,5,274.9,2.461
26.27,1,-0.033,-0.037,0.003,-0.029,-0.006,0.002,-1.623,-0.021,-1.424,25.61,87.0,40.505905,-3.358092,606.1,4,5,274.9,2.461
26.37,1,-0.03,-0.078,-0.039,-0.034,-0.042,-0.014,-1.622,-0.012,-1.421,25.61,87.0,40.505905,-3.358092,606.1,4,5,274.9,2.461
26.47,1,-0.031,-0.098,-0.063,-0.028,-0.075,-0.039,-1.619,-0.005,-1.417,25.61,87.0,40.505905,-3.358092,606.1,4,5,274.9,2.461
26.57,1,-0.084,-0.077,-0.08,-0.054,-0.08,-0.063,-1.615,0.001,-1.413,25.61,87.0,40.505905,-3.358092,606.1,4,5,274.9,2.461
26.67,1,-0.001,-0.067,-0.059,-0.04,-0.075,-0.067,-1.61,0.003,-1.41,26.63,89.7,40.505928,-3.358377,607.2,4,5,276.0,1.406
26.77,1,-0.042,-0.053,-0.07,-0.034,-0.063,-0.061,-1.604,0.008,-1.406,26.63,89.7,40.505928,-3.358377,607.2,4,5,276.0,1.406
26.88,1,-0.014,-0.045,-0.059,-0.02,-0.052,-0.066,-1.597,0.012,-1.402,26.63,89.7,40.505928,-3.358377,607.2,4,5,276.0,1.406
26.97,1,-0.043,-0.063,-0.048,-0.035,-0.055,-0.062,-1.593,0.018,-1.398,26.63,89.7,40.505928,-3.358377,607.2,4,5,276.0,1.406
27.09,1,-0.016,-0.053,-0.061,-0.025,-0.056,-0.054,-1.589,0.02,-1.394,26.63,89.7,40.505928,-3.358377,607.2,4,5,276.0,1.406
27.17,1,0.019,-0.036,-0.015,-0.008,-0.05,-0.041,-1.588,0.02,-1.391,26.63,89.7,40.505928,-3.358377,607.2,4,5,276.0,1.406
27.27,1,0.002,0.044,-0.059,0.005,-0.009,-0.035,-1.587,0.017,-1.39,26.63,89.7,40.505928,-3.358377,607.2,4,5,276.0,1.406
27.37,1,-0.038,0.035,-0.022,-0.011,0.024,-0.043,-1.588,0.013,-1.389,26.63,89.7,40.505928,-3.358377,607.2,4,5,276.0,1.406
27.48,1,-0.014,0.075,-0.033,-0.022,0.045,-0.028,-1.587,0.003,-1.389,26.63,89.7,40.505928,-3.358377,607.2,4,5,276.0,1.406
27.57,1,-0.04,0.038,-0.021,-0.031,0.054,-0.034,-1.584,-0.002,-1.388,26.63,89.7,40.505928,-3.358377,607.2,4,5,276.0,1.406
27.68,1,-0.034,-0.006,-0.016,-0.032,0.021,-0.019,-1.585,-0.001,-1.386,27.67,90.9,40.505951,-3.358679,607.9,4,5,275.6,0.703
27.78,1,-0.043,-0.011,-0.021,-0.036,0.002,-0.021,-1.583,0.002,-1.383,27.67,90.9,40.505951,-3.358679,607.9,4,5,275.6,0.703
27.87,1,0.037,-0.018,0.016,-0.013,-0.006,-0.006,-1.583,0.005,-1.381,27.67,90.9,40.505951,-3.358679,607.9,4,5,275.6,0.703
27.97,1,-0.003,0.033,-0.003,0.009,0.006,0.002,-1.584,0.007,-1.38,27.67,90.9,40.505951,-3.358679,607.9,4,5,275.6,0.703
28.07,1,0.001,-0.009,0.016,-0.006,0.011,0.001,-1.585,0.011,-1.378,27.67,90.9,40.505951,-3.358679,607.9,4,5,275.6,0.703
28.17,1,-0.036,0.019,-0.001,-0.007,0.004,0.011,-1.588,0.011,-1.376,27.67,90.9,40.505951,-3.358679,607.9,4,5,275.6,0.703
28.29,1,0.01,-0.028,0.001,-0.015,-0.001,0.002,-1.587,0.015,-1.373,27.67,90.9,40.505951,-3.358679,607.9,4,5,275.6,0.703
28.37,1,-0.018,-0.033,-0.006,-0.001,-0.026,-0.001,-1.587,0.022,-1.37,27.67,90.9,40.505951,-3.358679,607.9,4,5,275.6,0.703
28.47,1,0.016,-0.038,0.001,-0.004,-0.032,-0.0,-1.588,0.026,-1.366,27.67,90.9,40.505951,-3.358679,607.9,4,5,275.6,0.703
28.57,1,0.024,-0.03,0.008,0.013,-0.034,0.003,-1.588,0.028,-1.362,27.67,90.9,40.505951,-3.358679,607.9,4,5,275.6,0.703
28.67,1,-0.025,-0.026,-0.029,0.001,-0.029,-0.01,-1.586,0.03,-1.359,28.62,91.4,40.50597,-3.358981,606.9,4,5,274.6,1.406
28.77,1,-0.05,-0.038,0.007,-0.026,-0.033,-0.004,-1.586,0.034,-1.355,28.62,91.4,40.50597,-3.358981,606.9,4,5,274.6,1.406
28.88,1,-0.031,-0.015,0.009,-0.033,-0.025,0.004,-1.589,0.033,-1.352,28.62,91.4,40.50597,-3.358981,606.9,4,5,274.6,1.406
28.98,1,-0.025,-0.026,0.007,-0.032,-0.021,-0.0,-1.589,0.034,-1.348,28.62,91.4,40.50597,-3.358981,606.9,4,5,274.6,1.406
29.08,1,-0.018,-0.015,-0.014,-0.024,-0.023,0.002,-1.59,0.035,-1.344,28.62,91.4,40.50597,-3.358981,606.9,4,5,274.6,1.406
29.17,1,-0.008,-0.009,0.007,-0.008,-0.018,0.0,-1.591,0.035,-1.341,28.62,91.4,40.50597,-3.358981,606.9,4,5,274.6,1.406
29.28,1,-0.005,0.018,0.003,-0.015,0.007,-0.002,-1.593,0.036,-1.338,28.62,91.4,40.50597,-3.358981,606.9,4,5,274.6,1.406
29.37,1,-0.02,0.003,-0.0,-0.019,0.005,0.003,-1.594,0.038,-1.334,28.62,91.4,40.50597,-3.358981,606.9,4,5,274.6,1.406
29.48,1,-0.032,-0.026,0.002,-0.018,-0.01,0.003,-1.596,0.04,-1.331,28.62,91.4,40.50597,-3.358981,606.9,4,5,274.6,1.406
29.59,1,-0.007,-0.027,0.026,-0.02,-0.015,0.009,-1.597,0.041,-1.327,28.62,91.4,40.50597,-3.358981,606.9,4,5,274.6,1.406
29.68,1,0.0,-0.015,0.021,-0.003,-0.022,0.019,-1.6,0.042,-1.323,29.62,90.2,40.505985,-3.359271,605.3,4,5,273.9,1.758
29.78,1,-0.024,-0.009,-0.003,-0.015,-0.017,0.011,-1.6,0.045,-1.319,29.62,90.2,40.505985,-3.359271,605.3,4,5,273.9,1.758
29.88,1,0.023,-0.008,0.038,-0.001,-0.011,0.019,-1.601,0.045,-1.316,29.62,90.2,40.505985,-3.359271,605.3,4,5,273.9,1.758
29.99,1,0.013,0.011,-0.006,0.01,0.001,0.012,-1.602,0.041,-1.313,29.62,90.2,40.505985,-3.359271,605.3,4,5,273.9,1.758
30.08,1,-0.006,0.007,0.026,0.009,0.002,0.01,-1.602,0.041,-1.31,29.62,90.2,40.505985,-3.359271,605.3,4,5,273.9,1.758
30.19,1,-0.033,0.002,-0.0,-0.015,0.008,0.013,-1.605,0.04,-1.307,29.62,90.2,40.505985,-3.359271,605.3,4,5,273.9,1.758
30.28,1,-0.019,-0.004,0.031,-0.017,-0.003,0.018,-1.606,0.04,-1.304,29.62,90.2,40.505985,-3.359271,605.3,4,5,273.9,1.758
30.38,1,-0.047,0.004,0.007,-0.039,0.008,0.018,-1.607,0.038,-1.3,29.62,90.2,40.505985,-3.359271,605.3,4,5,273.9,1.758
30.48,1,-0.003,0.007,0.026,-0.016,-0.004,0.019,-1.606,0.034,-1.298,29.62,90.2,40.505985,-3.359271,605.3,4,5,273.9,1.758
30.58,1,-0.044,-0.007,-0.014,-0.028,0.003,0.002,-1.606,0.03,-1.296,29.62,90.2,40.505985,-3.359271,605.3,4,5,273.9,1.758
30.68,1,-0.037,0.009,0.027,-0.042,0.001,0.014,-1.609,0.025,-1.295,30.62,93.2,40.505989,-3.359573,608.0,4,5,271.1,3.516
30.78,1,-0.031,0.046,-0.007,-0.029,0.023,0.005,-1.607,0.018,-1.294,30.62,93.2,40.505989,-3.359573,608.0,4,5,271.1,3.516
30.88,1,-0.046,0.082,0.027,-0.036,0.049,0.018,-1.609,0.013,-1.294,30.62,93.2,40.505989,-3.359573,608.0,4,5,271.1,3.516
30.98,1,-0.061,0.122,0.005,-0.051,0.087,0.008,-1.61,0.003,-1.295,30.62,93.2,40.505989,-3.359573,608.0,4,5,271.1,3.516
31.08,1,0.016,0.076,0.004,-0.018,0.089,0.008,-1.61,-0.004,-1.296,30.62,93.2,40.505989,-3.359573,608.0,4,5,271.1,3.516
31.18,1,-0.001,0.069,0.019,-0.01,0.082,0.007,-1.611,-0.01,-1.297,30.62,93.2,40.505989,-3.359573,608.0,4,5,271.1,3.516
31.28,1,-0.028,0.051,-0.01,-0.008,0.065,0.009,-1.612,-0.015,-1.298,30.62,93.2,40.505989,-3.359573,608.0,4,5,271.1,3.516
31.39,1,0.014,-0.004,-0.002,-0.016,0.039,-0.005,-1.612,-0.017,-1.299,30.62,93.2,40.505989,-3.359573,608.0,4,5,271.1,3.516
31.48,1,-0.057,-0.017,-0.005,-0.014,0.003,-0.003,-1.613,-0.016,-1.298,30.62,93.2,40.505989,-3.359573,608.0,4,5,271.1,3.516
31.58,1,-0.078,-0.049,0.009,-0.066,-0.014,0.004,-1.613,-0.012,-1.295,30.62,93.2,40.505989,-3.359573,608.0,4,5,271.1,3.516
31.69,1,-0.068,-0.179,0.012,-0.058,-0.091,0.006,-1.617,-0.006,-1.289,31.63,95.1,40.505993,-3.359883,605.9,4,5,270.0,3.867
31.78,1,-0.021,-0.158,-0.01,-0.042,-0.145,-0.001,-1.618,-0.004,-1.282,31.63,95.1,40.505993,-3.359883,605.9,4,5,270.0,3.867
31.88,1,-0.026,-0.148,-0.016,-0.038,-0.148,-0.003,-1.619,0.006,-1.275,31.63,95.1,40.505993,-3.359883,605.9,4,5,270.0,3.867
31.98,1,0.008,-0.123,0.02,-0.015,-0.14,-0.0,-1.621,0.021,-1.268,31.63,95.1,40.505993,-3.359883,605.9,4,5,270.0,3.867
32.09,1,0.023,-0.087,-0.007,0.001,-0.112,0.003,-1.619,0.029,-1.262,31.63,95.1,40.505993,-3.359883,605.9,4,5,270.0,3.867
32.2,1,-0.002,-0.08,0.027,0.008,-0.099,0.01,-1.618,0.027,-1.258,31.63,95.1,40.505993,-3.359883,605.9,4,5,270.0,3.867
32.28,1,-0.04,0.003,-0.047,-0.009,-0.045,-0.012,-1.614,0.028,-1.256,31.63,95.1,40.505993,-3.359883,605.9,4,5,270.0,3.867
32.38,1,-0.043,0.053,0.016,-0.041,0.005,-0.01,-1.613,0.027,-1.254,31.63,95.1,40.505993,-3.359883,605.9,4,5,270.0,3.867
32.48,1,-0.009,0.053,-0.012,-0.021,0.036,-0.002,-1.613,0.026,-1.253,31.63,95.1,40.505993,-3.359883,605.9,4,5,270.0,3.867
32.59,1,-0.017,0.035,0.002,-0.018,0.038,-0.004,-1.613,0.02,-1.253,31.63,95.1,40.505993,-3.359883,605.9,4,5,270.0,3.867
32.78,1,-0.108,-0.003,-0.004,-0.059,0.013,-0.002,-1.616,0.016,-1.25,32.62,96.6,40.505993,-3.3602,606.5,3,5,269.3,1.758
32.88,1,-0.057,-0.09,-0.034,-0.08,-0.026,-0.009,-1.617,0.02,-1.245,32.62,96.6,40.505993,-3.3602,606.5,3,5,269.3,1.758
32.98,1,-0.044,-0.16,-0.059,-0.056,-0.099,-0.039,-1.617,0.025,-1.238,32.62,96.6,40.505993,-3.3602,606.5,3,5,269.3,1.758
33.09,1,0.076,-0.168,-0.135,0.002,-0.146,-0.081,-1.608,0.034,-1.229,32.62,96.6,40.505993,-3.3602,606.5,3,5,269.3,1.758
33.19,1,-0.016,-0.073,-0.098,0.022,-0.122,-0.102,-1.594,0.046,-1.223,32.62,96.6,40.505993,-3.3602,606.5,3,5,269.3,1.758
33.3,1,-0.006,-0.025,-0.063,-0.01,-0.069,-0.084,-1.587,0.048,-1.22,32.62,96.6,40.505993,-3.3602,606.5,3,5,269.3,1.758
33.39,1,-0.054,0.009,-0.066,-0.024,-0.029,-0.074,-1.58,0.043,-1.218,32.62,96.6,40.505993,-3.3602,606.5,3,5,269.3,1.758
33.49,1,-0.038,0.012,-0.044,-0.043,-0.0,-0.06,-1.578,0.038,-1.216,32.62,96.6,40.505993,-3.3602,606.5,3,5,269.3,1.758
33.59,1,-0.018,0.042,-0.054,-0.022,0.016,-0.047,-1.573,0.036,-1.213,32.62,96.6,40.505993,-3.3602,606.5,3,5,269.3,1.758
33.69,1,-0.001,-0.008,-0.036,-0.02,0.014,-0.052,-1.566,0.032,-1.21,32.62,96.6,40.505993,-3.3602,606.5,3,5,269.3,1.758
33.79,1,0.011,0.015,-0.043,0.001,0.009,-0.042,-1.562,0.03,-1.207,33.6,98.3,40.505981,-3.36052,608.2,3,5,267.2,2.812
33.89,1,0.037,-0.007,-0.047,0.015,0.003,-0.045,-1.558,0.028,-1.205,33.6,98.3,40.505981,-3.36052,608.2,3,5,267.2,2.812
33.99,1,-0.015,0.034,-0.035,0.01,0.013,-0.041,-1.553,0.02,-1.204,33.6,98.3,40.505981,-3.36052,608.2,3,5,267.2,2.812
34.09,1,0.122,0.013,-0.047,0.047,0.02,-0.04,-1.549,0.014,-1.204,33.6,98.3,40.505981,-3.36052,608.2,3,5,267.2,2.812
34.19,1,-0.002,0.023,-0.038,0.038,0.017,-0.04,-1.546,0.008,-1.203,33.6,98.3,40.505981,-3.36052,608.2,3,5,267.2,2.812
34.3,1,0.003,0.076,0.006,0.023,0.038,-0.025,-1.541,-0.004,-1.203,33.6,98.3,40.505981,-3.36052,608.2,3,5,267.2,2.812
34.39,1,-0.099,0.152,0.008,-0.019,0.098,-0.003,-1.541,-0.01,-1.204,33.6,98.3,40.505981,-3.36052,608.2,3,5,267.2,2.812
34.5,1,-0.005,0.097,0.076,-0.053,0.109,0.029,-1.544,-0.01,-1.205,33.6,98.3,40.505981,-3.36052,608.2,3,5,267.2,2.812
34.6,1,-0.01,0.102,0.042,-0.017,0.107,0.051,-1.545,-0.012,-1.206,33.6,98.3,40.505981,-3.36052,608.2,3,5,267.2,2.812
34.69,1,0.059,0.037,0.053,0.017,0.079,0.044,-1.546,-0.015,-1.206,33.6,98.3,40.505981,-3.36052,608.2,3,5,267.2,2.812
34.79,1,0.018,0.03,0.04,0.028,0.045,0.046,-1.547,-0.021,-1.207,34.63,96.0,40.505959,-3.360834,607.4,3,5,264.4,4.922
34.89,1,0.006,0.04,0.021,0.019,0.041,0.036,-1.547,-0.029,-1.208,34.63,96.0,40.505959,-3.360834,607.4,3,5,264.4,4.922
34.99,1,-0.029,0.031,0.027,-0.004,0.037,0.025,-1.551,-0.035,-1.208,34.63,96.0,40.505959,-3.360834,607.4,3,5,264.4,4.922
35.1,1,-0.051,0.012,0.023,-0.03,0.028,0.027,-1.555,-0.04,-1.208,34.63,96.0,40.505959,-3.360834,607.4,3,5,264.4,4.922
35.19,1,-0.023,-0.03,0.042,-0.038,0.0,0.029,-1.557,-0.038,-1.206,34.63,96.0,40.505959,-3.360834,607.4,3,5,264.4,4.922
35.29,1,0.01,-0.047,0.018,-0.01,-0.027,0.03,-1.561,-0.033,-1.205,34.63,96.0,40.505959,-3.360834,607.4,3,5,264.4,4.922
35.4,1,0.014,-0.042,0.03,-0.002,-0.035,0.027,-1.563,-0.029,-1.202,34.63,96.0,40.505959,-3.360834,607.4,3,5,264.4,4.922
35.49,1,0.016,-0.053,0.032,0.015,-0.049,0.035,-1.561,-0.023,-1.199,34.63,96.0,40.505959,-3.360834,607.4,3,5,264.4,4.922
35.59,1,-0.043,-0.034,0.015,-0.002,-0.052,0.023,-1.564,-0.015,-1.195,34.63,96.0,40.505959,-3.360834,607.4,3,5,264.4,4.922
35.69,1,-0.078,-0.082,0.016,-0.049,-0.053,0.01,-1.566,-0.014,-1.192,34.63,96.0,40.505959,-3.360834,607.4,3,5,264.4,4.922
35.79,1,-0.074,-0.069,0.025,-0.066,-0.066,0.024,-1.568,-0.015,-1.188,35.6,95.8,40.505936,-3.361149,608.1,3,5,264.4,2.812
35.89,1,-0.041,-0.018,0.021,-0.07,-0.042,0.023,-1.569,-0.015,-1.184,35.6,95.8,40.505936,-3.361149,608.1,3,5,264.4,2.812
35.99,1,0.031,-0.058,0.055,-0.007,-0.05,0.038,-1.57,-0.014,-1.18,35.6,95.8,40.505936,-3.361149,608.1,3,5,264.4,2.812
36.09,1,0.069,-0.031,-0.0,0.027,-0.043,0.025,-1.571,-0.013,-1.177,35.6,95.8,40.505936,-3.361149,608.1,3,5,264.4,2.812
36.2,1,0.014,-0.016,0.013,0.035,-0.024,0.014,-1.57,-0.015,-1.176,35.6,95.8,40.505936,-3.361149,608.1,3,5,264.4,2.812
36.3,1,-0.032,0.001,0.023,-0.001,-0.013,0.017,-1.57,-0.015,-1.174,35.6,95.8,40.505936,-3.361149,608.1,3,5,264.4,2.812
36.39,1,-0.05,-0.007,0.012,-0.023,-0.007,0.014,-1.571,-0.017,-1.172,35.6,95.8,40.505936,-3.361149,608.1,3,5,264.4,2.812
36.5,1,-0.058,0.002,0.017,-0.047,-0.003,0.017,-1.571,-0.017,-1.17,35.6,95.8,40.505936,-3.361149,608.1,3,5,264.4,2.812
36.59,1,-0.047,0.014,0.004,-0.046,0.005,0.009,-1.573,-0.016,-1.168,35.6,95.8,40.505936,-3.361149,608.1,3,5,264.4,2.812
36.69,1,0.014,-0.03,0.008,-0.028,-0.009,0.01,-1.573,-0.013,-1.167,35.6,95.8,40.505936,-3.361149,608.1,3,5,264.4,2.812
36.79,1,0.012,-0.001,0.004,-0.002,-0.011,0.005,-1.572,-0.013,-1.165,36.62,96.1,40.505909,-3.361461,608.0,3,5,263.0,1.406
36.89,1,0.027,-0.015,-0.017,0.015,-0.008,-0.001,-1.569,-0.009,-1.163,36.62,96.1,40.505909,-3.361461,608.0,3,5,263.0,1.406
37.0,1,-0.019,-0.027,-0.005,0.004,-0.019,-0.008,-1.569,-0.007,-1.16,36.62,96.1,40.505909,-3.361461,608.0,3,5,263.0,1.406
37.1,1,-0.054,-0.028,0.001,-0.027,-0.024,-0.003,-1.569,-0.004,-1.158,36.62,96.1,40.505909,-3.361461,608.0,3,5,263.0,1.406
37.2,1,0.004,-0.023,0.001,-0.017,-0.028,0.003,-1.567,-0.004,-1.156,36.62,96.1,40.505909,-3.361461,608.0,3,5,263.0,1.406
37.3,1,-0.017,0.004,-0.021,-0.015,-0.012,-0.012,-1.565,-0.007,-1.154,36.62,96.1,40.505909,-3.361461,608.0,3,5,263.0,1.406
37.4,1,-0.085,0.026,-0.03,-0.035,0.005,-0.018,-1.565,-0.006,-1.151,36.62,96.1,40.505909,-3.361461,608.0,3,5,263.0,1.406
37.5,1,-0.052,-0.013,-0.009,-0.066,0.014,-0.022,-1.565,-0.005,-1.149,36.62,96.1,40.505909,-3.361461,608.0,3,5,263.0,1.406
37.61,1,0.012,-0.011,0.023,-0.033,-0.005,-0.0,-1.566,-0.005,-1.147,36.62,96.1,40.505909,-3.361461,608.0,3,5,263.0,1.406
37.71,1,0.039,-0.036,-0.014,0.022,-0.024,0.005,-1.566,-0.006,-1.145,36.62,96.1,40.505909,-3.361461,608.0,3,5,263.0,1.406
37.8,1,-0.046,-0.004,-0.022,-0.007,-0.021,-0.012,-1.568,-0.007,-1.144,37.6,96.0,40.505878,-3.361769,608.3,3,5,261.6,2.812
37.91,1,-0.038,-0.003,0.024,-0.029,-0.011,-0.005,-1.571,-0.008,-1.142,37.6,96.0,40.505878,-3.361769,608.3,3,5,261.6,2.812
38.0,1,0.011,-0.01,-0.013,-0.016,-0.007,-0.002,-1.568,-0.01,-1.141,37.6,96.0,40.505878,-3.361769,608.3,3,5,261.6,2.812
38.1,1,0.009,-0.014,-0.024,0.001,-0.013,-0.008,-1.568,-0.012,-1.139,37.6,96.0,40.505878,-3.361769,608.3,3,5,261.6,2.812
38.2,1,-0.086,0.018,-0.015,-0.029,0.004,-0.02,-1.57,-0.014,-1.137,37.6,96.0,40.505878,-3.361769,608.3,3,5,261.6,2.812
38.3,1,0.009,0.009,0.013,-0.032,0.01,-0.0,-1.574,-0.013,-1.135,37.6,96.0,40.505878,-3.361769,608.3,3,5,261.6,2.812
38.4,1,0.012,-0.031,-0.01,0.001,-0.001,0.0,-1.572,-0.011,-1.133,37.6,96.0,40.505878,-3.361769,608.3,3,5,261.6,2.812
38.5,1,0.033,-0.03,-0.02,0.02,-0.023,-0.015,-1.571,-0.01,-1.131,37.6,96.0,40.505878,-3.361769,608.3,3,5,261.6,2.812
38.6,1,-0.017,-0.034,-0.046,-0.002,-0.034,-0.025,-1.571,-0.01,-1.128,37.6,96.0,40.505878,-3.361769,608.3,3,5,261.6,2.812
38.7,1,-0.058,-0.04,0.015,-0.028,-0.034,-0.009,-1.572,-0.01,-1.125,37.6,96.0,40.505878,-3.361769,608.3,3,5,261.6,2.812
38.8,1,0.004,-0.048,-0.04,-0.011,-0.048,-0.018,-1.571,-0.009,-1.122,38.67,95.7,40.505836,-3.36208,610.2,3,5,259.8,3.164
38.9,1,-0.007,-0.07,0.001,-0.019,-0.053,-0.014,-1.571,-0.008,-1.118,38.67,95.7,40.505836,-3.36208,610.2,3,5,259.8,3.164
39.0,1,0.008,-0.055,0.022,-0.003,-0.057,0.003,-1.571,-0.009,-1.115,38.67,95.7,40.505836,-3.36208,610.2,3,5,259.8,3.164
39.1,1,0.003,-0.038,-0.017,0.005,-0.048,-0.008,-1.571,-0.01,-1.112,38.67,95.7,40.505836,-3.36208,610.2,3,5,259.8,3.164
39.2,1,0.007,-0.01,-0.005,0.003,-0.03,-0.007,-1.57,-0.011,-1.109,38.67,95.7,40.505836,-3.36208,610.2,3,5,259.8,3.164
39.3,1,-0.026,-0.046,-0.011,-0.001,-0.027,-0.009,-1.57,-0.009,-1.105,38.67,95.7,40.505836,-3.36208,610.2,3,5,259.8,3.164
39.4,1,-0.011,-0.062,0.032,-0.02,-0.047,0.002,-1.571,-0.008,-1.102,38.67,95.7,40.505836,-3.36208,610.2,3,5,259.8,3.164
39.51,1,0.023,-0.052,-0.054,0.004,-0.054,-0.02,-1.57,-0.008,-1.1,38.67,95.7,40.505836,-3.36208,610.2,3,5,259.8,3.164
39.61,1,-0.001,-0.029,0.018,0.003,-0.046,0.004,-1.569,-0.008,-1.097,38.67,95.7,40.505836,-3.36208,610.2,3,5,259.8,3.164
39.7,1,-0.032,0.004,0.054,-0.009,-0.024,0.021,-1.569,-0.007,-1.094,38.67,95.7,40.505836,-3.36208,610.2,3,5,259.8,3.164
39.8,1,-0.031,-0.002,0.008,-0.027,-0.007,0.031,-1.57,-0.006,-1.092,39.64,95.3,40.505783,-3.362401,611.2,3,5,258.0,3.516
39.91,1,-0.017,-0.031,0.011,-0.02,-0.019,0.02,-1.57,-0.004,-1.09,39.64,95.3,40.505783,-3.362401,611.2,3,5,258.0,3.516
40.0,1,-0.046,0.004,0.008,-0.026,-0.014,0.01,-1.57,-0.004,-1.089,39.64,95.3,40.505783,-3.362401,611.2,3,5,258.0,3.516
40.12,1,-0.008,0.0,0.03,-0.024,-0.001,0.015,-1.57,-0.005,-1.089,39.64,95.3,40.505783,-3.362401,611.2,3,5,258.0,3.516
40.2,1,0.023,0.065,0.01,-0.002,0.026,0.022,-1.57,-0.006,-1.089,39.64,95.3,40.505783,-3.362401,611.2,3,5,258.0,3.516
40.3,1,-0.041,0.057,0.008,-0.015,0.048,0.01,-1.57,-0.008,-1.089,39.64,95.3,40.505783,-3.362401,611.2,3,5,258.0,3.516
40.4,1,-0.015,0.03,0.026,-0.011,0.041,0.015,-1.576,-0.013,-1.089,39.64,95.3,40.505783,-3.362401,611.2,3,5,258.0,3.516
40.5,1,-0.002,0.051,0.018,-0.022,0.046,0.02,-1.577,-0.02,-1.089,39.64,95.3,40.505783,-3.362401,611.2,3,5,258.0,3.516
40.6,1,0.012,0.046,0.026,0.002,0.047,0.027,-1.586,-0.03,-1.089,39.64,95.3,40.505783,-3.362401,611.2,3,5,258.0,3.516
40.71,1,-0.0,0.007,-0.003,-0.004,0.032,0.008,-1.586,-0.024,-1.088,39.64,95.3,40.505783,-3.362401,611.2,3,5,258.0,3.516
40.82,1,-0.004,-0.002,0.014,0.005,0.007,0.013,-1.585,-0.02,-1.088,40.64,95.2,40.505726,-3.362713,610.9,3,5,256.3,3.516
40.9,1,0.045,-0.021,0.034,0.016,-0.004,0.018,-1.583,-0.025,-1.088,40.64,95.2,40.505726,-3.362713,610.9,3,5,256.3,3.516
41.01,1,-0.034,0.01,0.006,0.008,-0.003,0.023,-1.582,-0.03,-1.087,40.64,95.2,40.505726,-3.362713,610.9,3,5,256.3,3.516
41.11,1,-0.045,-0.002,-0.003,-0.016,-0.004,0.007,-1.58,-0.031,-1.087,40.64,95.2,40.505726,-3.362713,610.9,3,5,256.3,3.516
41.21,1,-0.009,0.025,0.02,-0.034,0.013,0.006,-1.583,-0.032,-1.087,40.64,95.2,40.505726,-3.362713,610.9,3,5,256.3,3.516
41.31,1,0.022,0.011,0.0,0.003,0.017,0.01,-1.584,-0.033,-1.086,40.64,95.2,40.505726,-3.362713,610.9,3,5,256.3,3.516
41.41,1,-0.029,-0.033,0.023,-0.019,-0.004,0.006,-1.584,-0.034,-1.086,40.64,95.2,40.505726,-3.362713,610.9,3,5,256.3,3.516
41.51,1,-0.012,-0.019,0.001,-0.005,-0.02,0.01,-1.584,-0.037,-1.085,40.64,95.2,40.505726,-3.362713,610.9,3,5,256.3,3.516
41.61,1,0.021,-0.032,-0.016,-0.011,-0.028,-0.0,-1.582,-0.037,-1.084,40.64,95.2,40.505726,-3.362713,610.9,3,5,256.3,3.516
41.71,1,-0.018,-0.048,0.035,0.006,-0.03,0.012,-1.581,-0.037,-1.083,40.64,95.2,40.505726,-3.362713,610.9,3,5,256.3,3.516
41.81,1,-0.0,-0.036,0.01,-0.005,-0.036,0.015,-1.581,-0.036,-1.08,41.65,95.7,40.505661,-3.363014,611.6,3,5,254.9,3.164
41.92,1,-0.035,-0.049,0.035,-0.014,-0.045,0.02,-1.581,-0.036,-1.078,41.65,95.7,40.505661,-3.363014,611.6,3,5,254.9,3.164
42.02,1,0.017,-0.07,-0.015,-0.014,-0.052,0.009,-1.582,-0.034,-1.076,41.65,95.7,40.505661,-3.363014,611.6,3,5,254.9,3.164
42.11,1,-0.014,-0.061,-0.0,-0.005,-0.064,-0.004,-1.583,-0.034,-1.073,41.65,95.7,40.505661,-3.363014,611.6,3,5,254.9,3.164
42.21,1,0.002,-0.046,0.034,-0.002,-0.058,0.024,-1.588,-0.03,-1.072,41.65,95.7,40.505661,-3.363014,611.6,3,5,254.9,3.164
42.32,1,0.02,-0.039,0.008,0.002,-0.045,0.017,-1.588,-0.03,-1.07,41.65,95.7,40.505661,-3.363014,611.6,3,5,254.9,3.164
42.41,1,0.053,-0.052,-0.014,0.031,-0.049,0.003,-1.587,-0.028,-1.067,41.65,95.7,40.505661,-3.363014,611.6,3,5,254.9,3.164
42.51,1,0.021,-0.09,0.024,0.03,-0.063,0.005,-1.585,-0.025,-1.064,41.65,95.7,40.505661,-3.363014,611.6,3,5,254.9,3.164
42.62,1,-0.017,-0.066,-0.041,0.013,-0.074,-0.008,-1.584,-0.025,-1.061,41.65,95.7,40.505661,-3.363014,611.6,3,5,254.9,3.164
42.92,1,-0.029,-0.088,0.007,-0.022,-0.076,0.001,-1.585,-0.023,-1.052,41.65,95.7,40.505661,-3.363014,611.6,3,5,254.9,3.164
43.01,1,-0.012,-0.092,0.021,-0.028,-0.081,0.01,-1.585,-0.023,-1.049,42.63,96.3,40.5056,-3.363319,612.4,3,5,253.8,2.461
43.11,1,-0.004,-0.087,0.012,-0.011,-0.087,0.017,-1.586,-0.023,-1.046,42.63,96.3,40.5056,-3.363319,612.4,3,5,253.8,2.461
43.22,1,0.05,-0.074,0.011,0.014,-0.082,0.014,-1.585,-0.023,-1.043,42.63,96.3,40.5056,-3.363319,612.4,3,5,253.8,2.461
43.31,1,-0.001,-0.043,0.007,0.014,-0.062,0.01,-1.584,-0.022,-1.04,42.63,96.3,40.5056,-3.363319,612.4,3,5,253.8,2.461
43.41,1,-0.023,-0.06,0.003,-0.0,-0.063,0.007,-1.586,-0.016,-1.037,42.63,96.3,40.5056,-3.363319,612.4,3,5,253.8,2.461
43.51,1,-0.07,-0.043,0.001,-0.043,-0.051,0.001,-1.59,-0.004,-1.035,42.63,96.3,40.5056,-3.363319,612.4,3,5,253.8,2.461
43.61,1,-0.013,-0.017,-0.013,-0.026,-0.039,-0.004,-1.591,-0.001,-1.034,42.63,96.3,40.5056,-3.363319,612.4,3,5,253.8,2.461
43.71,1,0.016,-0.031,0.017,-0.013,-0.026,-0.001,-1.589,0.002,-1.032,42.63,96.3,40.5056,-3.363319,612.4,3,5,253.8,2.461
43.82,1,0.027,0.003,0.001,0.013,-0.019,0.008,-1.589,0.002,-1.031,42.63,96.3,40.5056,-3.363319,612.4,3,5,253.8,2.461
43.92,1,0.019,0.013,0.024,0.018,-0.002,0.013,-1.59,-0.001,-1.03,42.63,96.3,40.5056,-3.363319,612.4,3,5,253.8,2.461
44.01,1,-0.007,0.011,-0.002,0.006,0.007,0.008,-1.591,0.0,-1.029,43.62,96.8,40.505531,-3.363626,612.5,3,5,251.4,3.516
44.12,1,-0.023,-0.003,-0.012,-0.006,0.004,-0.001,-1.591,-0.0,-1.028,43.62,96.8,40.505531,-3.363626,612.5,3,5,251.4,3.516
44.21,1,-0.028,-0.009,-0.002,-0.018,-0.005,-0.002,-1.591,0.002,-1.027,43.62,96.8,40.505531,-3.363626,612.5,3,5,251.4,3.516
44.31,1,-0.024,0.037,0.016,-0.026,0.01,0.001,-1.592,-0.001,-1.027,43.62,96.8,40.505531,-3.363626,612.5,3,5,251.4,3.516
44.43,1,0.008,0.017,0.021,-0.009,0.024,0.016,-1.594,-0.001,-1.026,43.62,96.8,40.505531,-3.363626,612.5,3,5,251.4,3.516
44.51,1,-0.016,-0.013,-0.002,-0.009,0.008,0.01,-1.593,0.001,-1.025,43.62,96.8,40.505531,-3.363626,612.5,3,5,251.4,3.516
44.62,1,0.046,-0.039,0.016,0.009,-0.019,0.012,-1.594,-0.003,-1.024,43.62,96.8,40.505531,-3.363626,612.5,3,5,251.4,3.516
44.72,1,-0.004,0.017,-0.02,0.02,-0.011,0.0,-1.596,-0.006,-1.023,43.62,96.8,40.505531,-3.363626,612.5,3,5,251.4,3.516
44.83,1,0.001,0.005,-0.031,0.002,0.007,-0.021,-1.595,-0.006,-1.022,43.62,96.8,40.505531,-3.363626,612.5,3,5,251.4,3.516
44.92,1,-0.079,0.011,-0.013,-0.029,0.008,-0.019,-1.596,-0.004,-1.021,43.62,96.8,40.505531,-3.363626,612.5,3,5,251.4,3.516
45.03,1,-0.044,-0.031,0.006,-0.048,-0.006,-0.008,-1.597,-0.004,-1.019,44.7,97.3,40.505451,-3.363923,611.8,3,5,248.9,4.922
45.13,1,-0.016,-0.016,0.003,-0.036,-0.02,0.003,-1.598,-0.002,-1.018,44.7,97.3,40.505451,-3.363923,611.8,3,5,248.9,4.922
45.23,1,-0.003,0.004,0.01,-0.015,-0.008,0.004,-1.596,-0.001,-1.017,44.7,97.3,40.505451,-3.363923,611.8,3,5,248.9,4.922
45.33,1,0.007,0.004,-0.009,-0.002,0.001,-0.001,-1.597,-0.001,-1.016,44.7,97.3,40.505451,-3.363923,611.8,3,5,248.9,4.922
45.42,1,0.005,0.025,0.007,-0.002,0.011,-0.001,-1.598,-0.003,-1.016,44.7,97.3,40.505451,-3.363923,611.8,3,5,248.9,4.922
45.53,1,-0.032,0.033,-0.013,-0.006,0.022,0.002,-1.598,-0.006,-1.015,44.7,97.3,40.505451,-3.363923,611.8,3,5,248.9,4.922
45.63,1,-0.024,0.025,-0.002,-0.028,0.027,-0.01,-1.599,-0.008,-1.016,44.7,97.3,40.505451,-3.363923,611.8,3,5,248.9,4.922
45.72,1,0.003,0.023,0.021,-0.014,0.026,0.007,-1.601,-0.012,-1.016,44.7,97.3,40.505451,-3.363923,611.8,3,5,248.9,4.922
45.82,1,0.029,0.021,0.019,0.011,0.021,0.018,-1.602,-0.014,-1.017,44.7,97.3,40.505451,-3.363923,611.8,3,5,248.9,4.922
45.92,1,-0.022,0.028,0.006,0.0,0.029,0.01,-1.603,-0.018,-1.018,44.7,97.3,40.505451,-3.363923,611.8,3,5,248.9,4.922
46.02,1,-0.03,0.046,0.008,-0.005,0.031,0.013,-1.604,-0.022,-1.019,45.68,98.9,40.50536,-3.364225,611.9,3,5,247.5,3.867
46.12,1,-0.025,0.032,0.021,-0.03,0.042,0.01,-1.606,-0.026,-1.02,45.68,98.9,40.50536,-3.364225,611.9,3,5,247.5,3.867
46.22,1,0.003,0.017,0.009,-0.01,0.023,0.012,-1.608,-0.028,-1.021,45.68,98.9,40.50536,-3.364225,611.9,3,5,247.5,3.867
46.32,1,0.002,0.039,0.007,-0.006,0.029,0.011,-1.608,-0.033,-1.023,45.68,98.9,40.50536,-3.364225,611.9,3,5,247.5,3.867
46.42,1,-0.026,0.027,0.012,-0.013,0.036,0.01,-1.611,-0.037,-1.024,45.68,98.9,40.50536,-3.364225,611.9,3,5,247.5,3.867
46.53,1,-0.001,0.015,0.024,-0.006,0.02,0.018,-1.613,-0.039,-1.026,45.68,98.9,40.50536,-3.364225,611.9,3,5,247.5,3.867
46.62,1,0.017,0.022,-0.012,0.001,0.022,0.004,-1.612,-0.044,-1.028,45.68,98.9,40.50536,-3.364225,611.9,3,5,247.5,3.867
46.72,1,-0.035,0.043,0.01,0.001,0.028,0.007,-1.612,-0.047,-1.029,45.68,98.9,40.50536,-3.364225,611.9,3,5,247.5,3.867
46.82,1,-0.02,0.039,0.016,-0.026,0.034,0.009,-1.612,-0.049,-1.031,45.68,98.9,40.50536,-3.364225,611.9,3,5,247.5,3.867
46.93,1,-0.011,0.028,0.02,-0.02,0.035,0.017,-1.612,-0.052,-1.032,45.68,98.9,40.50536,-3.364225,611.9,3,5,247.5,3.867
47.02,1,0.056,-0.001,0.018,0.013,0.023,0.017,-1.612,-0.052,-1.034,46.67,99.7,40.505264,-3.36452,612.4,3,5,246.1,2.812
47.12,1,-0.011,-0.005,-0.011,0.018,0.005,0.006,-1.611,-0.053,-1.035,46.67,99.7,40.505264,-3.36452,612.4,3,5,246.1,2.812
47.22,1,-0.034,0.029,-0.005,-0.011,0.01,-0.003,-1.612,-0.058,-1.037,46.67,99.7,40.505264,-3.36452,612.4,3,5,246.1,2.812
47.33,1,-0.062,0.05,0.001,-0.045,0.037,-0.003,-1.615,-0.058,-1.039,46.67,99.7,40.505264,-3.36452,612.4,3,5,246.1,2.812
47.42,1,-0.041,0.006,0.012,-0.039,0.017,0.005,-1.617,-0.058,-1.04,46.67,99.7,40.505264,-3.36452,612.4,3,5,246.1,2.812
47.53,1,0.013,0.005,0.016,-0.028,0.015,0.011,-1.619,-0.057,-1.041,46.67,99.7,40.505264,-3.36452,612.4,3,5,246.1,2.812
47.63,1,0.044,-0.03,0.005,0.021,-0.006,0.011,-1.617,-0.056,-1.041,46.67,99.7,40.505264,-3.36452,612.4,3,5,246.1,2.812
47.72,1,0.016,-0.053,-0.003,0.02,-0.032,0.001,-1.616,-0.052,-1.041,46.67,99.7,40.505264,-3.36452,612.4,3,5,246.1,2.812
47.83,1,-0.045,-0.015,-0.005,-0.005,-0.03,-0.001,-1.616,-0.046,-1.041,46.67,99.7,40.505264,-3.36452,612.4,3,5,246.1,2.812
47.93,1,-0.044,-0.026,0.014,-0.033,-0.023,0.004,-1.615,-0.043,-1.041,46.67,99.7,40.505264,-3.36452,612.4,3,5,246.1,2.812
48.03,1,-0.038,-0.057,0.01,-0.038,-0.037,0.008,-1.615,-0.04,-1.04,47.62,102.7,40.505161,-3.364805,612.7,3,5,245.4,2.109
48.14,1,-0.013,-0.047,0.013,-0.029,-0.049,0.013,-1.615,-0.036,-1.039,47.62,102.7,40.505161,-3.364805,612.7,3,5,245.4,2.109
48.24,1,0.022,-0.06,0.005,-0.006,-0.049,0.007,-1.615,-0.03,-1.037,47.62,102.7,40.505161,-3.364805,612.7,3,5,245.4,2.109
48.33,1,0.022,-0.064,-0.005,0.015,-0.056,0.003,-1.615,-0.024,-1.035,47.62,102.7,40.505161,-3.364805,612.7,3,5,245.4,2.109
48.43,1,-0.014,-0.046,-0.003,0.006,-0.053,0.003,-1.611,-0.017,-1.032,47.62,102.7,40.505161,-3.364805,612.7,3,5,245.4,2.109
48.53,1,0.007,-0.073,-0.006,-0.004,-0.064,-0.008,-1.612,-0.015,-1.03,47.62,102.7,40.505161,-3.364805,612.7,3,5,245.4,2.109
48.63,1,-0.037,-0.045,-0.016,-0.004,-0.063,-0.007,-1.612,-0.011,-1.028,47.62,102.7,40.505161,-3.364805,612.7,3,5,245.4,2.109
48.74,1,0.021,-0.068,-0.022,-0.007,-0.055,-0.017,-1.61,-0.007,-1.025,47.62,102.7,40.505161,-3.364805,612.7,3,5,245.4,2.109
48.83,1,-0.058,-0.056,-0.027,-0.026,-0.057,-0.02,-1.609,-0.002,-1.023,47.62,102.7,40.505161,-3.364805,612.7,3,5,245.4,2.109
48.93,1,0.009,-0.12,0.005,-0.018,-0.083,-0.015,-1.607,0.002,-1.02,47.62,102.7,40.505161,-3.364805,612.7,3,5,245.4,2.109
49.03,1,0.015,-0.069,-0.041,-0.001,-0.085,-0.019,-1.608,0.006,-1.016,48.61,104.1,40.505054,-3.365107,612.4,3,5,245.0,1.055
49.13,1,-0.001,-0.058,-0.012,0.011,-0.073,-0.018,-1.608,0.012,-1.013,48.61,104.1,40.505054,-3.365107,612.4,3,5,245.0,1.055
49.23,1,0.03,-0.036,-0.003,0.009,-0.054,-0.013,-1.608,0.019,-1.011,48.61,104.1,40.505054,-3.365107,612.4,3,5,245.0,1.055
49.33,1,-0.033,-0.018,-0.018,-0.004,-0.032,-0.014,-1.603,0.022,-1.008,48.61,104.1,40.505054,-3.365107,612.4,3,5,245.0,1.055
49.43,1,0.044,-0.046,-0.025,0.01,-0.035,-0.019,-1.599,0.025,-1.006,48.61,104.1,40.505054,-3.365107,612.4,3,5,245.0,1.055
49.53,1,0.022,-0.019,-0.031,0.025,-0.036,-0.023,-1.595,0.025,-1.005,48.61,104.1,40.505054,-3.365107,612.4,3,5,245.0,1.055
49.63,1,0.081,-0.012,-0.005,0.046,-0.023,-0.015,-1.594,0.022,-1.004,48.61,104.1,40.505054,-3.365107,612.4,3,5,245.0,1.055
49.73,1,0.009,0.002,-0.059,0.044,-0.007,-0.034,-1.59,0.02,-1.003,48.61,104.1,40.505054,-3.365107,612.4,3,5,245.0,1.055
49.83,1,-0.047,0.005,-0.035,0.001,-0.002,-0.039,-1.589,0.021,-1.002,48.61,104.1,40.505054,-3.365107,612.4,3,5,245.0,1.055
49.94,1,-0.043,-0.005,-0.011,-0.037,-0.002,-0.027,-1.588,0.02,-1.001,48.61,104.1,40.505054,-3.365107,612.4,3,5,245.0,1.055
50.03,1,-0.016,-0.021,-0.035,-0.024,-0.007,-0.02,-1.588,0.025,-1.0,49.6,105.7,40.504932,-3.365413,612.3,3,5,242.6,2.812
50.14,1,-0.01,-0.0,-0.031,-0.018,-0.01,-0.039,-1.585,0.026,-0.999,49.6,105.7,40.504932,-3.365413,612.3,3,5,242.6,2.812
50.23,1,0.002,0.047,-0.033,-0.008,0.018,-0.03,-1.585,0.026,-0.999,49.6,105.7,40.504932,-3.365413,612.3,3,5,242.6,2.812
50.33,1,0.05,0.026,-0.022,0.013,0.025,-0.029,-1.584,0.03,-0.998,49.6,105.7,40.504932,-3.365413,612.3,3,5,242.6,2.812
50.44,1,-0.001,0.013,-0.048,0.017,0.022,-0.031,-1.584,0.032,-0.998,49.6,105.7,40.504932,-3.365413,612.3,3,5,242.6,2.812
50.53,1,0.005,0.019,-0.034,0.02,0.015,-0.041,-1.582,0.033,-0.998,49.6,105.7,40.504932,-3.365413,612.3,3,5,242.6,2.812
50.63,1,0.008,0.023,-0.003,-0.001,0.021,-0.024,-1.58,0.032,-0.998,49.6,105.7,40.504932,-3.365413,612.3,3,5,242.6,2.812
50.73,1,0.014,0.075,-0.038,0.016,0.038,-0.021,-1.579,0.03,-0.999,49.6,105.7,40.504932,-3.365413,612.3,3,5,242.6,2.812
50.87,1,-0.09,0.083,-0.042,-0.034,0.067,-0.037,-1.578,0.03,-1.0,49.6,105.7,40.504932,-3.365413,612.3,3,5,242.6,2.812
50.93,1,-0.018,0.052,-0.027,-0.046,0.071,-0.035,-1.579,0.029,-1.002,49.6,105.7,40.504932,-3.365413,612.3,3,5,242.6,2.812
51.03,1,-0.004,0.048,-0.021,-0.022,0.055,-0.025,-1.578,0.024,-1.003,50.61,106.3,40.504807,-3.365723,613.2,3,5,240.1,4.922
51.14,1,0.001,0.06,-0.041,-0.01,0.06,-0.033,-1.575,0.02,-1.004,50.61,106.3,40.504807,-3.365723,613.2,3,5,240.1,4.922
51.24,1,0.017,0.034,-0.033,0.008,0.046,-0.029,-1.571,0.016,-1.006,50.61,106.3,40.504807,-3.365723,613.2,3,5,240.1,4.922
51.34,1,-0.007,0.039,-0.03,0.01,0.038,-0.034,-1.57,0.012,-1.007,50.61,106.3,40.504807,-3.365723,613.2,3,5,240.1,4.922
51.43,1,-0.052,0.022,-0.018,-0.017,0.033,-0.028,-1.568,0.01,-1.009,50.61,106.3,40.504807,-3.365723,613.2,3,5,240.1,4.922
51.54,1,-0.059,0.033,-0.038,-0.051,0.031,-0.031,-1.567,0.011,-1.01,50.61,106.3,40.504807,-3.365723,613.2,3,5,240.1,4.922
51.64,1,-0.004,0.043,-0.016,-0.03,0.035,-0.025,-1.564,0.01,-1.012,50.61,106.3,40.504807,-3.365723,613.2,3,5,240.1,4.922
51.75,1,0.029,0.045,-0.022,-0.003,0.043,-0.022,-1.563,0.008,-1.014,50.61,106.3,40.504807,-3.365723,613.2,3,5,240.1,4.922
51.85,1,0.027,0.03,-0.038,0.02,0.037,-0.028,-1.56,0.005,-1.016,50.61,106.3,40.504807,-3.365723,613.2,3,5,240.1,4.922
51.94,1,0.004,0.037,-0.003,0.012,0.033,-0.019,-1.559,0.001,-1.018,50.61,106.3,40.504807,-3.365723,613.2,3,5,240.1,4.922
52.04,1,0.018,0.043,-0.011,0.016,0.038,-0.013,-1.556,-0.0,-1.02,51.7,105.7,40.504677,-3.366028,613.1,3,5,238.7,3.867
52.14,1,-0.021,0.056,-0.027,0.003,0.047,-0.019,-1.552,0.0,-1.023,51.7,105.7,40.504677,-3.366028,613.1,3,5,238.7,3.867
52.25,1,-0.039,0.04,-0.006,-0.023,0.047,-0.016,-1.552,0.0,-1.025,51.7,105.7,40.504677,-3.366028,613.1,3,5,238.7,3.867
52.34,1,0.008,0.035,-0.016,-0.016,0.042,-0.012,-1.553,0.0,-1.028,51.7,105.7,40.504677,-3.366028,613.1,3,5,238.7,3.867
52.44,1,0.033,0.036,-0.018,0.015,0.033,-0.013,-1.552,-0.0,-1.031,51.7,105.7,40.504677,-3.366028,613.1,3,5,238.7,3.867
52.55,1,-0.013,0.028,-0.033,0.011,0.029,-0.026,-1.547,0.0,-1.033,51.7,105.7,40.504677,-3.366028,613.1,3,5,238.7,3.867
52.84,1,0.024,0.021,-0.022,0.015,0.022,-0.01,-1.536,0.002,-1.041,51.7,105.7,40.504677,-3.366028,613.1,3,5,238.7,3.867
52.94,1,0.0,-0.001,-0.002,-0.0,0.019,-0.012,-1.534,0.002,-1.043,51.7,105.7,40.504677,-3.366028,613.1,3,5,238.7,3.867
53.05,1,-0.026,-0.023,-0.01,-0.001,-0.006,-0.006,-1.532,0.003,-1.045,51.7,105.7,40.504677,-3.366028,613.1,3,5,238.7,3.867
53.14,1,-0.022,-0.023,0.001,-0.017,-0.015,-0.003,-1.532,0.008,-1.046,51.7,105.7,40.504677,-3.366028,613.1,3,5,238.7,3.867
53.24,1,-0.002,-0.034,-0.001,-0.012,-0.027,-0.004,-1.532,0.014,-1.046,52.61,105.4,40.504543,-3.366326,612.2,3,5,238.7,1.406
53.34,1,0.064,-0.027,-0.007,0.022,-0.034,-0.003,-1.531,0.021,-1.046,52.61,105.4,40.504543,-3.366326,612.2,3,5,238.7,1.406
53.44,1,0.037,-0.01,-0.012,0.037,-0.017,-0.01,-1.529,0.03,-1.046,52.61,105.4,40.504543,-3.366326,612.2,3,5,238.7,1.406
53.55,1,-0.031,-0.116,-0.014,0.015,-0.056,-0.01,-1.529,0.034,-1.046,52.61,105.4,40.504543,-3.366326,612.2,3,5,238.7,1.406
53.66,1,-0.063,-0.114,0.004,-0.031,-0.094,-0.006,-1.53,0.035,-1.046,52.61,105.4,40.504543,-3.366326,612.2,3,5,238.7,1.406
53.74,1,-0.092,-0.01,-0.022,-0.065,-0.068,-0.013,-1.531,0.034,-1.046,52.61,105.4,40.504543,-3.366326,612.2,3,5,238.7,1.406
53.84,1,-0.015,-0.002,0.013,-0.057,-0.024,-0.001,-1.531,0.036,-1.047,52.61,105.4,40.504543,-3.366326,612.2,3,5,238.7,1.406
53.94,1,0.004,-0.025,-0.014,-0.018,-0.023,-0.005,-1.529,0.039,-1.047,52.61,105.4,40.504543,-3.366326,612.2,3,5,238.7,1.406
54.04,1,0.021,-0.003,0.008,0.001,-0.011,-0.001,-1.53,0.041,-1.048,52.61,105.4,40.504543,-3.366326,612.2,3,5,238.7,1.406
54.14,1,-0.033,-0.021,-0.023,-0.004,-0.012,-0.006,-1.529,0.042,-1.048,52.61,105.4,40.504543,-3.366326,612.2,3,5,238.7,1.406
54.24,1,-0.05,-0.013,0.001,-0.027,-0.018,-0.009,-1.528,0.042,-1.05,53.6,105.6,40.504395,-3.366631,612.1,3,5,238.7,0.0
54.35,1,-0.065,-0.024,-0.009,-0.053,-0.015,-0.008,-1.528,0.039,-1.051,53.6,105.6,40.504395,-3.366631,612.1,3,5,238.7,0.0
54.44,1,0.05,0.019,-0.003,-0.006,-0.006,-0.001,-1.528,0.035,-1.053,53.6,105.6,40.504395,-3.366631,612.1,3,5,238.7,0.0
54.54,1,0.007,0.03,-0.032,0.006,0.015,-0.017,-1.527,0.031,-1.054,53.6,105.6,40.504395,-3.366631,612.1,3,5,238.7,0.0
54.64,1,-0.002,0.023,-0.004,0.0,0.02,-0.016,-1.528,0.032,-1.056,53.6,105.6,40.504395,-3.366631,612.1,3,5,238.7,0.0
54.74,1,0.024,0.023,-0.005,0.002,0.025,-0.006,-1.528,0.029,-1.058,53.6,105.6,40.504395,-3.366631,612.1,3,5,238.7,0.0
54.84,1,-0.052,0.017,-0.022,-0.002,0.015,-0.012,-1.526,0.028,-1.059,53.6,105.6,40.504395,-3.366631,612.1,3,5,238.7,0.0
54.95,1,-0.011,0.022,-0.013,-0.025,0.021,-0.019,-1.522,0.025,-1.061,53.6,105.6,40.504395,-3.366631,612.1,3,5,238.7,0.0
55.05,1,0.014,0.038,0.019,-0.002,0.023,-0.001,-1.521,0.017,-1.064,53.6,105.6,40.504395,-3.366631,612.1,3,5,238.7,0.0
55.14,1,-0.017,0.041,0.008,-0.002,0.042,0.008,-1.521,0.018,-1.066,53.6,105.6,40.504395,-3.366631,612.1,3,5,238.7,0.0
55.24,1,-0.024,0.003,-0.009,-0.01,0.023,0.002,-1.522,0.018,-1.068,54.73,105.1,40.504253,-3.366921,612.0,3,5,237.3,1.406
55.35,1,-0.064,-0.022,-0.002,-0.04,-0.002,-0.007,-1.522,0.016,-1.071,54.73,105.1,40.504253,-3.366921,612.0,3,5,237.3,1.406
55.46,1,-0.012,0.029,0.032,-0.033,0.007,0.014,-1.524,0.015,-1.073,54.73,105.1,40.504253,-3.366921,612.0,3,5,237.3,1.406
55.55,1,0.026,0.046,0.004,-0.009,0.027,0.015,-1.523,0.013,-1.076,54.73,105.1,40.504253,-3.366921,612.0,3,5,237.3,1.406
55.65,1,-0.022,0.025,-0.008,-0.005,0.027,0.002,-1.521,0.01,-1.079,54.73,105.1,40.504253,-3.366921,612.0,3,5,237.3,1.406
55.76,1,0.014,0.045,0.005,-0.003,0.038,0.002,-1.521,0.005,-1.082,54.73,105.1,40.504253,-3.366921,612.0,3,5,237.3,1.406
55.85,1,0.029,0.036,-0.005,0.017,0.04,-0.0,-1.518,0.001,-1.086,54.73,105.1,40.504253,-3.366921,612.0,3,5,237.3,1.406
55.95,1,-0.045,0.063,0.01,-0.005,0.047,0.0,-1.517,-0.008,-1.091,54.73,105.1,40.504253,-3.366921,612.0,3,5,237.3,1.406
56.05,1,-0.028,0.07,0.002,-0.019,0.061,0.008,-1.518,-0.014,-1.095,54.73,105.1,40.504253,-3.366921,612.0,3,5,237.3,1.406
56.15,1,-0.027,0.061,-0.007,-0.025,0.062,-0.001,-1.519,-0.019,-1.1,54.73,105.1,40.504253,-3.366921,612.0,3,5,237.3,1.406
56.25,1,0.072,0.056,0.054,0.014,0.049,0.012,-1.52,-0.024,-1.105,55.61,103.5,40.504116,-3.367209,611.6,3,5,237.0,1.758
56.35,1,-0.047,0.055,-0.015,0.002,0.065,0.015,-1.521,-0.028,-1.109,55.61,103.5,40.504116,-3.367209,611.6,3,5,237.0,1.758
56.45,1,0.087,0.014,0.026,0.025,0.038,0.016,-1.522,-0.035,-1.113,55.61,103.5,40.504116,-3.367209,611.6,3,5,237.0,1.758
56.56,1,-0.057,0.037,-0.01,-0.004,0.038,0.004,-1.52,-0.035,-1.117,55.61,103.5,40.504116,-3.367209,611.6,3,5,237.0,1.758
56.65,1,-0.049,0.005,0.008,-0.021,0.023,0.007,-1.52,-0.035,-1.121,55.61,103.5,40.504116,-3.367209,611.6,3,5,237.0,1.758
56.76,1,-0.009,-0.004,0.027,-0.034,0.009,0.01,-1.521,-0.039,-1.125,55.61,103.5,40.504116,-3.367209,611.6,3,5,237.0,1.758
56.86,1,0.114,-0.041,-0.016,0.038,-0.018,0.01,-1.522,-0.041,-1.128,55.61,103.5,40.504116,-3.367209,611.6,3,5,237.0,1.758
56.95,1,0.014,0.006,0.009,0.055,-0.014,0.004,-1.52,-0.039,-1.131,55.61,103.5,40.504116,-3.367209,611.6,3,5,237.0,1.758
57.05,1,0.012,-0.073,-0.009,0.024,-0.028,-0.005,-1.522,-0.035,-1.133,55.61,103.5,40.504116,-3.367209,611.6,3,5,237.0,1.758
57.15,1,-0.033,-0.064,-0.002,-0.012,-0.054,-0.003,-1.522,-0.032,-1.135,55.61,103.5,40.504116,-3.367209,611.6,3,5,237.0,1.758
57.27,1,0.018,-0.028,-0.013,0.001,-0.05,-0.005,-1.52,-0.033,-1.137,56.67,103.4,40.503975,-3.367494,611.4,3,5,236.6,0.703
57.36,1,0.002,-0.054,-0.022,0.003,-0.043,-0.016,-1.519,-0.028,-1.139,56.67,103.4,40.503975,-3.367494,611.4,3,5,236.6,0.703
57.45,1,-0.035,-0.069,-0.014,-0.017,-0.059,-0.02,-1.521,-0.024,-1.14,56.67,103.4,40.503975,-3.367494,611.4,3,5,236.6,0.703
57.55,1,-0.019,-0.07,-0.015,-0.019,-0.064,-0.011,-1.521,-0.021,-1.141,56.67,103.4,40.503975,-3.367494,611.4,3,5,236.6,0.703
57.66,1,-0.028,-0.055,-0.015,-0.026,-0.068,-0.022,-1.52,-0.017,-1.141,56.67,103.4,40.503975,-3.367494,611.4,3,5,236.6,0.703
57.75,1,0.014,-0.022,0.007,-0.013,-0.042,0.001,-1.519,-0.016,-1.141,56.67,103.4,40.503975,-3.367494,611.4,3,5,236.6,0.703
57.85,1,-0.008,-0.052,0.008,0.004,-0.042,0.003,-1.518,-0.008,-1.142,56.67,103.4,40.503975,-3.367494,611.4,3,5,236.6,0.703
57.95,1,-0.009,-0.032,-0.007,-0.005,-0.04,-0.001,-1.518,-0.003,-1.142,56.67,103.4,40.503975,-3.367494,611.4,3,5,236.6,0.703
58.06,1,-0.045,-0.051,-0.012,-0.012,-0.042,-0.004,-1.519,0.001,-1.142,56.67,103.4,40.503975,-3.367494,611.4,3,5,236.6,0.703
58.15,1,-0.086,0.016,0.004,-0.062,-0.023,-0.009,-1.522,0.005,-1.144,56.67,103.4,40.503975,-3.367494,611.4,3,5,236.6,0.703
58.25,1,-0.034,-0.0,0.017,-0.056,-0.004,0.006,-1.525,0.004,-1.145,57.63,102.5,40.503838,-3.36778,611.0,3,5,237.7,1.055
58.35,1,0.115,0.042,0.002,-0.01,0.015,0.003,-1.525,0.004,-1.147,57.63,102.5,40.503838,-3.36778,611.0,3,5,237.7,1.055
58.47,1,-0.079,0.028,-0.01,-0.001,0.031,0.004,-1.524,0.004,-1.149,57.63,102.5,40.503838,-3.36778,611.0,3,5,237.7,1.055
58.56,1,0.084,-0.06,-0.039,0.042,-0.019,-0.017,-1.527,0.001,-1.151,57.63,102.5,40.503838,-3.36778,611.0,3,5,237.7,1.055
58.66,1,-0.034,0.017,-0.04,0.017,-0.003,-0.037,-1.525,0.0,-1.154,57.63,102.5,40.503838,-3.36778,611.0,3,5,237.7,1.055
58.76,1,0.029,-0.024,0.013,0.012,-0.01,-0.014,-1.525,-0.003,-1.157,57.63,102.5,40.503838,-3.36778,611.0,3,5,237.7,1.055
58.85,1,-0.1,0.073,-0.024,-0.028,0.022,-0.013,-1.525,-0.009,-1.16,57.63,102.5,40.503838,-3.36778,611.0,3,5,237.7,1.055
58.95,1,-0.092,0.048,-0.013,-0.078,0.047,-0.015,-1.523,-0.014,-1.163,57.63,102.5,40.503838,-3.36778,611.0,3,5,237.7,1.055
59.06,1,-0.049,0.032,-0.006,-0.066,0.04,-0.009,-1.525,-0.016,-1.167,57.63,102.5,40.503838,-3.36778,611.0,3,5,237.7,1.055
59.16,1,-0.014,-0.006,-0.001,-0.04,0.021,-0.004,-1.527,-0.014,-1.169,57.63,102.5,40.503838,-3.36778,611.0,3,5,237.7,1.055
59.27,1,-0.016,-0.022,0.001,-0.025,-0.005,-0.002,-1.525,-0.012,-1.171,58.68,102.5,40.5037,-3.368064,610.1,3,5,237.7,1.055
59.36,1,0.047,-0.06,-0.007,0.011,-0.029,-0.002,-1.525,-0.009,-1.172,58.68,102.5,40.5037,-3.368064,610.1,3,5,237.7,1.055
59.46,1,-0.072,-0.004,-0.015,-0.015,-0.027,-0.007,-1.525,-0.004,-1.172,58.68,102.5,40.5037,-3.368064,610.1,3,5,237.7,1.055
59.56,1,-0.027,-0.021,-0.002,-0.041,-0.02,-0.012,-1.523,0.001,-1.173,58.68,102.5,40.5037,-3.368064,610.1,3,5,237.7,1.055
59.66,1,-0.017,-0.007,-0.008,-0.029,-0.017,-0.005,-1.521,0.004,-1.174,58.68,102.5,40.5037,-3.368064,610.1,3,5,237.7,1.055
59.76,1,0.089,-0.004,0.001,0.024,-0.004,-0.004,-1.52,0.009,-1.176,58.68,102.5,40.5037,-3.368064,610.1,3,5,237.7,1.055
59.86,1,0.006,-0.007,-0.009,0.04,-0.01,-0.002,-1.519,0.011,-1.177,58.68,102.5,40.5037,-3.368064,610.1,3,5,237.7,1.055
59.96,1,-0.066,-0.015,-0.037,-0.019,-0.011,-0.026,-1.518,0.012,-1.178,58.68,102.5,40.5037,-3.368064,610.1,3,5,237.7,1.055
60.07,1,-0.082,-0.003,-0.004,-0.049,-0.011,-0.016,-1.518,0.011,-1.18,58.68,102.5,40.5037,-3.368064,610.1,3,5,237.7,1.055
60.16,1,-0.088,0.004,-0.003,-0.078,0.001,-0.003,-1.521,0.008,-1.182,58.68,102.5,40.5037,-3.368064,610.1,3,5,237.7,1.055
60.26,1,-0.033,-0.009,0.001,-0.06,-0.005,-0.006,-1.523,0.007,-1.183,59.63,101.4,40.503555,-3.368341,609.1,3,5,236.6,1.055
60.36,1,-0.03,0.029,-0.022,-0.044,0.011,-0.007,-1.524,0.005,-1.185,59.63,101.4,40.503555,-3.368341,609.1,3,5,236.6,1.055
60.47,1,-0.016,0.019,-0.02,-0.026,0.014,-0.016,-1.526,0.001,-1.188,59.63,101.4,40.503555,-3.368341,609.1,3,5,236.6,1.055
60.56,1,-0.046,0.042,-0.014,-0.037,0.028,-0.015,-1.526,-0.003,-1.191,59.63,101.4,40.503555,-3.368341,609.1,3,5,236.6,1.055
60.66,1,-0.026,0.048,-0.005,-0.027,0.038,-0.012,-1.526,-0.005,-1.195,59.63,101.4,40.503555,-3.368341,609.1,3,5,236.6,1.055
60.76,1,-0.06,0.047,-0.02,-0.045,0.047,-0.015,-1.525,-0.008,-1.198,59.63,101.4,40.503555,-3.368341,609.1,3,5,236.6,1.055
60.86,1,0.021,0.02,-0.016,-0.018,0.034,-0.015,-1.525,-0.013,-1.203,59.63,101.4,40.503555,-3.368341,609.1,3,5,236.6,1.055
60.96,1,-0.036,0.044,-0.022,-0.018,0.036,-0.017,-1.524,-0.016,-1.206,59.63,101.4,40.503555,-3.368341,609.1,3,5,236.6,1.055
61.06,1,-0.021,0.028,-0.001,-0.021,0.035,-0.014,-1.524,-0.019,-1.21,59.63,101.4,40.503555,-3.368341,609.1,3,5,236.6,1.055
61.16,1,0.004,0.023,0.006,-0.016,0.032,-0.006,-1.524,-0.02,-1.214,59.63,101.4,40.503555,-3.368341,609.1,3,5,236.6,1.055
61.26,1,0.004,0.016,-0.017,0.002,0.019,-0.001,-1.525,-0.022,-1.217,60.67,100.5,40.503426,-3.368613,608.6,3,5,237.3,0.703
61.36,1,-0.015,0.011,-0.015,-0.009,0.017,-0.016,-1.524,-0.028,-1.221,60.67,100.5,40.503426,-3.368613,608.6,3,5,237.3,0.703
61.46,1,0.006,-0.017,0.003,-0.0,0.004,-0.005,-1.525,-0.028,-1.224,60.67,100.5,40.503426,-3.368613,608.6,3,5,237.3,0.703
61.56,1,-0.002,0.013,-0.008,-0.003,0.004,-0.006,-1.525,-0.029,-1.227,60.67,100.5,40.503426,-3.368613,608.6,3,5,237.3,0.703
61.66,1,0.027,0.002,-0.016,0.017,0.001,-0.012,-1.523,-0.03,-1.23,60.67,100.5,40.503426,-3.368613,608.6,3,5,237.3,0.703
61.76,1,-0.011,-0.011,-0.014,-0.011,0.003,-0.013,-1.521,-0.032,-1.232,60.67,100.5,40.503426,-3.368613,608.6,3,5,237.3,0.703
61.86,1,-0.002,-0.001,0.002,0.008,-0.009,-0.006,-1.521,-0.034,-1.235,60.67,100.5,40.503426,-3.368613,608.6,3,5,237.3,0.703
61.96,1,-0.028,-0.002,0.02,-0.019,-0.003,0.008,-1.521,-0.029,-1.237,60.67,100.5,40.503426,-3.368613,608.6,3,5,237.3,0.703
62.06,1,0.024,-0.013,-0.003,0.008,-0.01,0.006,-1.521,-0.026,-1.239,60.67,100.5,40.503426,-3.368613,608.6,3,5,237.3,0.703
62.17,1,0.032,-0.034,0.005,0.015,-0.017,0.001,-1.52,-0.023,-1.24,60.67,100.5,40.503426,-3.368613,608.6,3,5,237.3,0.703
62.26,1,-0.023,-0.027,-0.003,0.01,-0.022,0.001,-1.518,-0.02,-1.242,61.69,98.5,40.503288,-3.368881,608.0,3,5,237.7,1.055
62.37,1,-0.002,-0.034,-0.023,-0.013,-0.029,-0.009,-1.519,-0.016,-1.243,61.69,98.5,40.503288,-3.368881,608.0,3,5,237.7,1.055
62.46,1,-0.002,-0.028,0.019,-0.0,-0.034,0.001,-1.52,-0.013,-1.245,61.69,98.5,40.503288,-3.368881,608.0,3,5,237.7,1.055
62.56,1,-0.027,-0.051,-0.024,-0.012,-0.035,-0.006,-1.518,-0.009,-1.245,61.69,98.5,40.503288,-3.368881,608.0,3,5,237.7,1.055
62.78,1,-0.037,-0.069,-0.02,-0.035,-0.062,-0.015,-1.518,0.003,-1.244,61.69,98.5,40.503288,-3.368881,608.0,3,5,237.7,1.055
62.87,1,-0.015,-0.067,0.011,-0.031,-0.062,-0.003,-1.517,0.004,-1.243,61.69,98.5,40.503288,-3.368881,608.0,3,5,237.7,1.055
62.97,1,0.005,-0.062,0.003,-0.008,-0.062,0.004,-1.517,0.01,-1.242,61.69,98.5,40.503288,-3.368881,608.0,3,5,237.7,1.055
63.07,1,-0.015,-0.046,0.001,-0.011,-0.058,-0.001,-1.517,0.015,-1.241,61.69,98.5,40.503288,-3.368881,608.0,3,5,237.7,1.055
63.17,1,-0.024,-0.042,-0.006,-0.018,-0.046,0.001,-1.517,0.019,-1.24,61.69,98.5,40.503288,-3.368881,608.0,3,5,237.7,1.055
63.27,1,-0.014,-0.077,0.013,-0.011,-0.056,0.004,-1.52,0.022,-1.238,61.69,98.5,40.503288,-3.368881,608.0,3,5,237.7,1.055
63.37,1,-0.018,-0.049,0.002,-0.016,-0.061,0.002,-1.519,0.027,-1.237,62.62,98.2,40.503166,-3.369159,607.5,3,5,238.7,1.406
63.47,1,0.055,-0.015,0.044,0.006,-0.038,0.016,-1.518,0.029,-1.236,62.62,98.2,40.503166,-3.369159,607.5,3,5,238.7,1.406
63.57,1,-0.022,-0.008,0.007,0.003,-0.02,0.023,-1.519,0.031,-1.234,62.62,98.2,40.503166,-3.369159,607.5,3,5,238.7,1.406
63.67,1,0.024,-0.039,0.012,0.005,-0.025,0.014,-1.519,0.034,-1.233,62.62,98.2,40.503166,-3.369159,607.5,3,5,238.7,1.406
63.77,1,-0.018,-0.017,0.015,0.006,-0.027,0.017,-1.521,0.039,-1.232,62.62,98.2,40.503166,-3.369159,607.5,3,5,238.7,1.406
63.87,1,0.008,-0.046,0.012,0.001,-0.03,0.01,-1.52,0.043,-1.23,62.62,98.2,40.503166,-3.369159,607.5,3,5,238.7,1.406
63.97,1,-0.046,-0.074,0.001,-0.016,-0.054,0.007,-1.523,0.046,-1.229,62.62,98.2,40.503166,-3.369159,607.5,3,5,238.7,1.406
64.07,1,-0.066,-0.038,-0.001,-0.044,-0.053,0.006,-1.525,0.046,-1.227,62.62,98.2,40.503166,-3.369159,607.5,3,5,238.7,1.406
64.17,1,-0.04,-0.034,0.009,-0.047,-0.042,0.003,-1.525,0.047,-1.226,62.62,98.2,40.503166,-3.369159,607.5,3,5,238.7,1.406
64.27,1,-0.019,-0.021,0.014,-0.038,-0.031,0.01,-1.526,0.047,-1.224,62.62,98.2,40.503166,-3.369159,607.5,3,5,238.7,1.406
64.37,1,0.006,-0.018,0.015,-0.011,-0.024,0.014,-1.528,0.05,-1.222,63.67,96.2,40.503044,-3.369423,607.5,3,5,238.4,0.703
64.47,1,0.031,-0.02,0.015,0.013,-0.026,0.013,-1.528,0.053,-1.22,63.67,96.2,40.503044,-3.369423,607.5,3,5,238.4,0.703
64.57,1,-0.008,-0.026,0.012,0.003,-0.02,0.015,-1.529,0.055,-1.218,63.67,96.2,40.503044,-3.369423,607.5,3,5,238.4,0.703
64.67,1,-0.005,-0.026,0.008,0.006,-0.025,0.011,-1.531,0.056,-1.217,63.67,96.2,40.503044,-3.369423,607.5,3,5,238.4,0.703
64.77,1,-0.033,-0.015,-0.002,-0.025,-0.019,0.004,-1.531,0.057,-1.215,63.67,96.2,40.503044,-3.369423,607.5,3,5,238.4,0.703
64.87,1,0.005,-0.024,0.037,-0.006,-0.026,0.02,-1.53,0.057,-1.215,63.67,96.2,40.503044,-3.369423,607.5,3,5,238.4,0.703
64.97,1,-0.001,0.009,0.013,-0.003,-0.007,0.018,-1.532,0.056,-1.214,63.67,96.2,40.503044,-3.369423,607.5,3,5,238.4,0.703
65.07,1,-0.021,0.022,0.009,-0.01,0.008,0.015,-1.536,0.054,-1.214,63.67,96.2,40.503044,-3.369423,607.5,3,5,238.4,0.703
65.17,1,-0.019,0.036,0.018,-0.017,0.021,0.016,-1.538,0.05,-1.214,63.67,96.2,40.503044,-3.369423,607.5,3,5,238.4,0.703
65.28,1,-0.016,0.045,0.021,-0.018,0.034,0.02,-1.54,0.043,-1.214,63.67,96.2,40.503044,-3.369423,607.5,3,5,238.4,0.703
65.37,1,-0.014,0.029,0.024,-0.014,0.036,0.018,-1.543,0.041,-1.215,64.65,95.6,40.502914,-3.369683,607.9,3,5,237.0,1.758
65.47,1,-0.024,0.017,-0.006,-0.02,0.029,0.009,-1.543,0.037,-1.216,64.65,95.6,40.502914,-3.369683,607.9,3,5,237.0,1.758
65.57,1,0.01,-0.011,0.036,-0.006,0.007,0.014,-1.544,0.037,-1.216,64.65,95.6,40.502914,-3.369683,607.9,3,5,237.0,1.758
65.67,1,-0.006,0.019,-0.017,-0.007,0.013,0.01,-1.546,0.034,-1.217,64.65,95.6,40.502914,-3.369683,607.9,3,5,237.0,1.758
65.77,1,0.04,0.004,0.032,0.017,0.008,0.013,-1.546,0.034,-1.218,64.65,95.6,40.502914,-3.369683,607.9,3,5,237.0,1.758
65.87,1,-0.0,0.012,0.02,0.018,0.006,0.018,-1.546,0.032,-1.218,64.65,95.6,40.502914,-3.369683,607.9,3,5,237.0,1.758
65.97,1,-0.01,0.024,0.028,-0.002,0.019,0.021,-1.548,0.028,-1.218,64.65,95.6,40.502914,-3.369683,607.9,3,5,237.0,1.758
66.07,1,-0.038,0.029,0.018,-0.015,0.022,0.023,-1.549,0.027,-1.218,64.65,95.6,40.502914,-3.369683,607.9,3,5,237.0,1.758
66.18,1,-0.014,0.011,0.025,-0.027,0.02,0.02,-1.553,0.026,-1.218,64.65,95.6,40.502914,-3.369683,607.9,3,5,237.0,1.758
66.27,1,-0.01,0.02,0.029,-0.011,0.018,0.032,-1.554,0.025,-1.218,64.65,95.6,40.502914,-3.369683,607.9,3,5,237.0,1.758
66.37,1,0.011,-0.001,0.032,-0.002,0.015,0.025,-1.554,0.023,-1.219,65.61,94.4,40.502785,-3.36994,608.1,3,5,235.5,2.812
66.48,1,-0.034,0.01,0.031,-0.014,0.007,0.03,-1.558,0.023,-1.219,65.61,94.4,40.502785,-3.36994,608.1,3,5,235.5,2.812
66.57,1,-0.031,-0.014,0.016,-0.029,-0.0,0.026,-1.559,0.022,-1.219,65.61,94.4,40.502785,-3.36994,608.1,3,5,235.5,2.812
66.68,1,-0.035,0.0,0.018,-0.033,-0.008,0.02,-1.563,0.023,-1.219,65.61,94.4,40.502785,-3.36994,608.1,3,5,235.5,2.812
66.78,1,-0.016,0.02,0.014,-0.024,0.008,0.017,-1.565,0.019,-1.22,65.61,94.4,40.502785,-3.36994,608.1,3,5,235.5,2.812
66.88,1,0.037,0.048,0.044,0.002,0.027,0.024,-1.565,0.018,-1.22,65.61,94.4,40.502785,-3.36994,608.1,3,5,235.5,2.812
66.98,1,0.089,0.02,0.013,0.046,0.025,0.028,-1.563,0.016,-1.221,65.61,94.4,40.502785,-3.36994,608.1,3,5,235.5,2.812
67.08,1,0.026,0.048,0.016,0.048,0.038,0.021,-1.561,0.017,-1.222,65.61,94.4,40.502785,-3.36994,608.1,3,5,235.5,2.812
67.19,1,-0.007,0.008,0.02,0.022,0.027,0.014,-1.561,0.015,-1.222,65.61,94.4,40.502785,-3.36994,608.1,3,5,235.5,2.812
67.28,1,-0.048,0.019,0.02,-0.015,0.015,0.021,-1.563,0.015,-1.223,65.61,94.4,40.502785,-3.36994,608.1,3,5,235.5,2.812
67.38,1,-0.034,0.026,0.009,-0.026,0.016,0.016,-1.565,0.01,-1.225,66.61,95.5,40.502644,-3.370198,607.5,3,5,235.2,1.758
67.48,1,-0.04,0.085,0.008,-0.036,0.051,0.008,-1.566,0.003,-1.228,66.61,95.5,40.502644,-3.370198,607.5,3,5,235.2,1.758
67.59,1,0.0,0.072,0.035,-0.02,0.068,0.018,-1.568,-0.006,-1.231,66.61,95.5,40.502644,-3.370198,607.5,3,5,235.2,1.758
67.68,1,0.012,0.083,0.007,-0.006,0.078,0.021,-1.569,-0.013,-1.235,66.61,95.5,40.502644,-3.370198,607.5,3,5,235.2,1.758
67.78,1,-0.017,0.087,-0.006,-0.006,0.084,0.006,-1.569,-0.017,-1.238,66.61,95.5,40.502644,-3.370198,607.5,3,5,235.2,1.758
67.88,1,-0.023,0.064,-0.005,-0.013,0.077,-0.003,-1.572,-0.023,-1.242,66.61,95.5,40.502644,-3.370198,607.5,3,5,235.2,1.758
67.98,1,-0.031,0.047,0.012,-0.021,0.064,0.002,-1.573,-0.026,-1.245,66.61,95.5,40.502644,-3.370198,607.5,3,5,235.2,1.758
68.09,1,-0.037,0.024,0.031,-0.033,0.044,0.019,-1.578,-0.028,-1.249,66.61,95.5,40.502644,-3.370198,607.5,3,5,235.2,1.758
68.18,1,0.009,0.019,0.009,-0.02,0.03,0.014,-1.577,-0.029,-1.252,66.61,95.5,40.502644,-3.370198,607.5,3,5,235.2,1.758
68.28,1,-0.023,0.03,-0.009,-0.012,0.024,0.005,-1.579,-0.034,-1.255,66.61,95.5,40.502644,-3.370198,607.5,3,5,235.2,1.758
68.39,1,-0.005,0.032,0.011,-0.014,0.03,0.007,-1.58,-0.039,-1.258,67.61,95.9,40.502506,-3.370456,607.1,3,5,234.5,1.055
68.48,1,-0.002,0.014,0.014,-0.004,0.023,0.01,-1.581,-0.04,-1.261,67.61,95.9,40.502506,-3.370456,607.1,3,5,234.5,1.055
68.58,1,0.002,-0.0,0.006,-0.002,0.011,0.008,-1.582,-0.042,-1.263,67.61,95.9,40.502506,-3.370456,607.1,3,5,234.5,1.055
68.68,1,-0.005,0.009,0.009,-0.001,0.009,0.01,-1.583,-0.043,-1.265,67.61,95.9,40.502506,-3.370456,607.1,3,5,234.5,1.055
68.78,1,-0.011,0.011,-0.004,-0.006,0.008,0.002,-1.582,-0.041,-1.268,67.61,95.9,40.502506,-3.370456,607.1,3,5,234.5,1.055
68.88,1,-0.019,0.007,-0.002,-0.011,0.003,-0.002,-1.581,-0.041,-1.27,67.61,95.9,40.502506,-3.370456,607.1,3,5,234.5,1.055
68.98,1,-0.028,-0.001,0.01,-0.023,0.005,0.004,-1.581,-0.044,-1.273,67.61,95.9,40.502506,-3.370456,607.1,3,5,234.5,1.055
69.08,1,-0.036,0.004,-0.014,-0.03,0.003,-0.003,-1.585,-0.044,-1.275,67.61,95.9,40.502506,-3.370456,607.1,3,5,234.5,1.055
69.18,1,-0.002,-0.006,0.006,-0.012,-0.0,0.002,-1.585,-0.042,-1.277,67.61,95.9,40.502506,-3.370456,607.1,3,5,234.5,1.055
69.28,1,0.019,-0.003,0.016,-0.006,0.005,0.006,-1.586,-0.042,-1.279,67.61,95.9,40.502506,-3.370456,607.1,3,5,234.5,1.055
69.38,1,-0.001,-0.022,-0.001,0.006,-0.013,0.006,-1.585,-0.038,-1.281,68.62,96.7,40.502361,-3.37072,605.9,3,5,235.2,0.703
69.48,1,0.008,-0.009,0.006,0.005,-0.015,0.003,-1.588,-0.037,-1.283,68.62,96.7,40.502361,-3.37072,605.9,3,5,235.2,0.703
69.58,1,-0.03,0.01,-0.002,-0.013,-0.0,0.004,-1.588,-0.038,-1.285,68.62,96.7,40.502361,-3.37072,605.9,3,5,235.2,0.703
69.68,1,0.009,-0.013,0.013,-0.009,-0.002,0.007,-1.59,-0.037,-1.288,68.62,96.7,40.502361,-3.37072,605.9,3,5,235.2,0.703
69.79,1,-0.036,-0.008,0.005,-0.019,-0.007,0.006,-1.592,-0.036,-1.289,68.62,96.7,40.502361,-3.37072,605.9,3,5,235.2,0.703
69.89,1,0.026,-0.018,0.008,-0.0,-0.014,0.009,-1.594,-0.034,-1.291,68.62,96.7,40.502361,-3.37072,605.9,3,5,235.2,0.703
69.99,1,0.02,-0.019,0.008,0.015,-0.016,0.008,-1.596,-0.031,-1.293,68.62,96.7,40.502361,-3.37072,605.9,3,5,235.2,0.703
70.09,1,-0.021,-0.008,-0.012,0.014,-0.019,0.005,-1.596,-0.033,-1.295,68.62,96.7,40.502361,-3.37072,605.9,3,5,235.2,0.703
70.18,1,-0.026,-0.026,0.009,-0.025,-0.01,-0.008,-1.599,-0.032,-1.296,68.62,96.7,40.502361,-3.37072,605.9,3,5,235.2,0.703
70.28,1,0.019,-0.004,-0.002,-0.009,-0.015,0.007,-1.601,-0.034,-1.297,68.62,96.7,40.502361,-3.37072,605.9,3,5,235.2,0.703
70.39,1,0.042,0.003,0.011,0.021,-0.0,0.004,-1.6,-0.037,-1.297,69.6,98.4,40.502224,-3.37099,606.0,3,5,236.2,1.758
70.49,1,0.006,-0.028,0.002,0.027,-0.014,0.004,-1.601,-0.031,-1.297,69.6,98.4,40.502224,-3.37099,606.0,3,5,236.2,1.758
70.59,1,-0.032,-0.074,0.011,-0.003,-0.04,0.008,-1.6,-0.026,-1.297,69.6,98.4,40.502224,-3.37099,606.0,3,5,236.2,1.758
70.68,1,-0.014,-0.07,0.022,-0.013,-0.068,0.012,-1.6,-0.025,-1.297,69.6,98.4,40.502224,-3.37099,606.0,3,5,236.2,1.758
70.78,1,0.02,-0.025,0.013,-0.006,-0.046,0.014,-1.599,-0.026,-1.298,69.6,98.4,40.502224,-3.37099,606.0,3,5,236.2,1.758
70.89,1,0.003,-0.004,0.001,0.006,-0.027,0.01,-1.599,-0.027,-1.299,69.6,98.4,40.502224,-3.37099,606.0,3,5,236.2,1.758
70.99,1,-0.03,-0.02,-0.003,-0.009,-0.013,0.005,-1.598,-0.023,-1.299,69.6,98.4,40.502224,-3.37099,606.0,3,5,236.2,1.758
71.09,1,-0.031,-0.031,0.015,-0.024,-0.022,0.007,-1.598,-0.019,-1.299,69.6,98.4,40.502224,-3.37099,606.0,3,5,236.2,1.758
71.19,1,-0.008,-0.035,-0.003,-0.019,-0.032,0.004,-1.597,-0.016,-1.3,69.6,98.4,40.502224,-3.37099,606.0,3,5,236.2,1.758
71.29,1,-0.014,-0.014,-0.003,-0.013,-0.024,-0.002,-1.596,-0.015,-1.301,69.6,98.4,40.502224,-3.37099,606.0,3,5,236.2,1.758
71.39,1,-0.023,-0.005,-0.003,-0.021,-0.013,-0.002,-1.594,-0.015,-1.301,70.62,99.4,40.502094,-3.371255,605.8,3,5,237.3,2.109
71.49,1,-0.018,0.011,-0.003,-0.015,-0.003,-0.002,-1.591,-0.012,-1.301,70.62,99.4,40.502094,-3.371255,605.8,3,5,237.3,2.109
71.59,1,0.02,-0.014,-0.002,-0.009,-0.003,-0.004,-1.591,-0.011,-1.301,70.62,99.4,40.502094,-3.371255,605.8,3,5,237.3,2.109
71.69,1,0.032,-0.017,-0.003,0.021,-0.016,-0.002,-1.592,-0.011,-1.302,70.62,99.4,40.502094,-3.371255,605.8,3,5,237.3,2.109
71.79,1,-0.017,-0.016,-0.016,0.002,-0.009,-0.01,-1.59,-0.012,-1.302,70.62,99.4,40.502094,-3.371255,605.8,3,5,237.3,2.109
71.89,1,-0.034,0.005,-0.019,-0.01,-0.011,-0.013,-1.589,-0.015,-1.303,70.62,99.4,40.502094,-3.371255,605.8,3,5,237.3,2.109
72.0,1,-0.022,-0.0,0.009,-0.021,-0.001,-0.005,-1.588,-0.015,-1.304,70.62,99.4,40.502094,-3.371255,605.8,3,5,237.3,2.109
72.1,1,-0.039,0.002,-0.0,-0.031,-0.001,-0.001,-1.589,-0.016,-1.304,70.62,99.4,40.502094,-3.371255,605.8,3,5,237.3,2.109
72.2,1,-0.008,0.003,0.004,-0.023,0.002,0.003,-1.59,-0.015,-1.306,70.62,99.4,40.502094,-3.371255,605.8,3,5,237.3,2.109
72.29,1,-0.046,0.006,-0.018,-0.02,0.002,-0.004,-1.59,-0.017,-1.307,70.62,99.4,40.502094,-3.371255,605.8,3,5,237.3,2.109
72.4,1,0.011,0.001,0.0,-0.025,0.005,-0.01,-1.591,-0.018,-1.308,71.62,99.3,40.501968,-3.371534,605.0,3,5,237.3,1.055
72.5,1,-0.007,0.007,-0.007,-0.005,0.002,-0.003,-1.591,-0.022,-1.31,71.62,99.3,40.501968,-3.371534,605.0,3,5,237.3,1.055
72.59,1,0.008,0.031,-0.005,-0.003,0.019,-0.006,-1.59,-0.026,-1.311,71.62,99.3,40.501968,-3.371534,605.0,3,5,237.3,1.055
72.79,1,-0.02,0.025,-0.027,0.004,0.019,-0.014,-1.589,-0.027,-1.313,71.62,99.3,40.501968,-3.371534,605.0,3,5,237.3,1.055
72.89,1,0.043,-0.01,0.004,0.012,0.011,-0.011,-1.587,-0.027,-1.315,71.62,99.3,40.501968,-3.371534,605.0,3,5,237.3,1.055
72.99,1,-0.06,0.026,-0.025,-0.007,0.011,-0.011,-1.587,-0.028,-1.316,71.62,99.3,40.501968,-3.371534,605.0,3,5,237.3,1.055
73.09,1,-0.041,0.023,-0.004,-0.029,0.018,-0.012,-1.587,-0.029,-1.317,71.62,99.3,40.501968,-3.371534,605.0,3,5,237.3,1.055
73.19,1,-0.04,0.003,-0.009,-0.047,0.012,-0.011,-1.589,-0.027,-1.318,71.62,99.3,40.501968,-3.371534,605.0,3,5,237.3,1.055
73.29,1,-0.018,0.01,-0.021,-0.028,0.013,-0.016,-1.587,-0.028,-1.319,71.62,99.3,40.501968,-3.371534,605.0,3,5,237.3,1.055
73.39,1,0.024,-0.002,-0.008,-0.005,0.006,-0.01,-1.587,-0.03,-1.321,71.62,99.3,40.501968,-3.371534,605.0,3,5,237.3,1.055
73.5,1,-0.042,0.02,-0.024,-0.017,0.007,-0.017,-1.585,-0.031,-1.322,72.62,102.1,40.501827,-3.371816,605.7,3,5,237.3,0.0
73.6,1,-0.006,0.001,-0.001,-0.017,0.007,-0.011,-1.584,-0.03,-1.323,72.62,102.1,40.501827,-3.371816,605.7,3,5,237.3,0.0
73.7,1,0.006,-0.011,-0.016,-0.005,-0.001,-0.01,-1.583,-0.03,-1.324,72.62,102.1,40.501827,-3.371816,605.7,3,5,237.3,0.0
73.8,1,0.006,0.0,0.002,0.005,-0.001,-0.008,-1.583,-0.029,-1.325,72.62,102.1,40.501827,-3.371816,605.7,3,5,237.3,0.0
73.89,1,0.007,-0.001,0.003,-0.0,-0.001,-0.001,-1.585,-0.028,-1.326,72.62,102.1,40.501827,-3.371816,605.7,3,5,237.3,0.0
73.99,1,-0.005,0.007,-0.011,-0.002,0.002,0.0,-1.585,-0.03,-1.327,72.62,102.1,40.501827,-3.371816,605.7,3,5,237.3,0.0
74.09,1,-0.036,0.01,-0.014,-0.002,0.001,-0.009,-1.583,-0.029,-1.328,72.62,102.1,40.501827,-3.371816,605.7,3,5,237.3,0.0
74.19,1,-0.007,0.01,-0.019,-0.019,0.007,-0.017,-1.584,-0.029,-1.329,72.62,102.1,40.501827,-3.371816,605.7,3,5,237.3,0.0
74.3,1,-0.01,0.017,-0.013,-0.011,0.021,-0.017,-1.584,-0.031,-1.331,72.62,102.1,40.501827,-3.371816,605.7,3,5,237.3,0.0
74.39,1,0.012,-0.022,-0.01,-0.002,0.0,-0.012,-1.581,-0.028,-1.331,72.62,102.1,40.501827,-3.371816,605.7,3,5,237.3,0.0
74.5,1,-0.012,0.003,0.002,-0.001,-0.006,-0.004,-1.58,-0.026,-1.332,73.71,102.7,40.501686,-3.372097,605.2,3,5,237.7,0.352
74.6,1,-0.006,0.016,-0.006,-0.006,0.005,-0.004,-1.579,-0.028,-1.333,73.71,102.7,40.501686,-3.372097,605.2,3,5,237.7,0.352
74.7,1,-0.017,0.007,-0.013,-0.019,0.011,-0.009,-1.578,-0.027,-1.333,73.71,102.7,40.501686,-3.372097,605.2,3,5,237.7,0.352
74.8,1,-0.016,0.0,-0.009,-0.014,0.002,-0.011,-1.578,-0.028,-1.334,73.71,102.7,40.501686,-3.372097,605.2,3,5,237.7,0.352
74.9,1,0.005,-0.013,-0.001,-0.002,-0.008,-0.005,-1.576,-0.026,-1.334,73.71,102.7,40.501686,-3.372097,605.2,3,5,237.7,0.352
75.0,1,-0.016,0.015,-0.012,-0.008,0.003,-0.01,-1.575,-0.029,-1.335,73.71,102.7,40.501686,-3.372097,605.2,3,5,237.7,0.352
75.1,1,-0.022,0.021,-0.009,-0.013,0.013,-0.009,-1.575,-0.028,-1.335,73.71,102.7,40.501686,-3.372097,605.2,3,5,237.7,0.352
75.2,1,0.025,-0.015,-0.006,-0.003,0.005,-0.009,-1.574,-0.028,-1.335,73.71,102.7,40.501686,-3.372097,605.2,3,5,237.7,0.352
75.3,1,-0.031,0.016,0.002,-0.005,0.006,-0.005,-1.573,-0.026,-1.335,73.71,102.7,40.501686,-3.372097,605.2,3,5,237.7,0.352
75.4,1,0.001,-0.019,-0.001,-0.014,-0.002,0.002,-1.574,-0.021,-1.336,73.71,102.7,40.501686,-3.372097,605.2,3,5,237.7,0.352
75.51,1,0.027,0.007,0.009,0.011,-0.004,0.004,-1.573,-0.02,-1.336,74.62,104.3,40.501541,-3.372391,605.3,3,5,238.4,1.055
75.6,1,-0.008,-0.024,-0.002,0.002,-0.009,-0.001,-1.572,-0.019,-1.337,74.62,104.3,40.501541,-3.372391,605.3,3,5,238.4,1.055
75.7,1,-0.006,-0.024,-0.021,0.004,-0.02,-0.007,-1.571,-0.017,-1.337,74.62,104.3,40.501541,-3.372391,605.3,3,5,238.4,1.055
75.8,1,-0.042,-0.011,0.004,-0.018,-0.017,-0.005,-1.57,-0.018,-1.337,74.62,104.3,40.501541,-3.372391,605.3,3,5,238.4,1.055
75.9,1,-0.002,-0.004,-0.005,-0.019,-0.008,-0.003,-1.57,-0.017,-1.338,74.62,104.3,40.501541,-3.372391,605.3,3,5,238.4,1.055
76.0,1,-0.024,0.022,0.012,-0.011,0.002,0.001,-1.57,-0.018,-1.338,74.62,104.3,40.501541,-3.372391,605.3,3,5,238.4,1.055
76.11,1,0.069,0.008,-0.004,0.009,0.015,0.002,-1.571,-0.017,-1.338,74.62,104.3,40.501541,-3.372391,605.3,3,5,238.4,1.055
76.2,1,0.022,-0.011,-0.015,0.029,0.001,-0.008,-1.569,-0.014,-1.338,74.62,104.3,40.501541,-3.372391,605.3,3,5,238.4,1.055
76.3,1,-0.008,-0.022,0.002,0.015,-0.013,0.002,-1.57,-0.015,-1.339,74.62,104.3,40.501541,-3.372391,605.3,3,5,238.4,1.055
76.4,1,-0.014,0.011,-0.006,-0.002,-0.005,-0.011,-1.569,-0.016,-1.339,74.62,104.3,40.501541,-3.372391,605.3,3,5,238.4,1.055
76.51,1,-0.052,0.003,-0.012,-0.022,0.001,-0.004,-1.568,-0.014,-1.339,75.65,104.2,40.5014,-3.372686,605.4,3,5,238.7,1.055
76.61,1,-0.038,0.006,-0.015,-0.042,0.006,-0.013,-1.569,-0.01,-1.338,75.65,104.2,40.5014,-3.372686,605.4,3,5,238.7,1.055
76.71,1,0.036,-0.01,-0.002,0.001,-0.001,-0.007,-1.568,-0.005,-1.337,75.65,104.2,40.5014,-3.372686,605.4,3,5,238.7,1.055
76.81,1,-0.067,-0.028,-0.034,-0.028,-0.013,-0.018,-1.567,0.001,-1.336,75.65,104.2,40.5014,-3.372686,605.4,3,5,238.7,1.055
76.9,1,-0.014,-0.018,-0.013,-0.022,-0.021,-0.015,-1.565,0.006,-1.336,75.65,104.2,40.5014,-3.372686,605.4,3,5,238.7,1.055
77.0,1,-0.034,0.02,-0.008,-0.028,-0.007,-0.016,-1.564,0.007,-1.336,75.65,104.2,40.5014,-3.372686,605.4,3,5,238.7,1.055
77.1,1,0.03,0.007,-0.026,-0.008,0.006,-0.02,-1.564,0.005,-1.335,75.65,104.2,40.5014,-3.372686,605.4,3,5,238.7,1.055
77.2,1,-0.021,-0.004,-0.049,-0.002,0.002,-0.028,-1.562,0.007,-1.335,75.65,104.2,40.5014,-3.372686,605.4,3,5,238.7,1.055
77.3,1,0.014,0.011,-0.004,-0.003,0.006,-0.026,-1.56,0.008,-1.335,75.65,104.2,40.5014,-3.372686,605.4,3,5,238.7,1.055
77.43,1,-0.023,0.027,-0.019,-0.004,0.014,-0.021,-1.56,0.01,-1.334,75.65,104.2,40.5014,-3.372686,605.4,3,5,238.7,1.055
77.51,1,-0.014,0.016,0.01,-0.017,0.021,-0.002,-1.559,0.009,-1.334,76.69,105.6,40.501259,-3.372981,604.8,3,5,238.7,0.352
77.6,1,0.015,0.018,-0.028,0.003,0.021,-0.014,-1.556,0.011,-1.334,76.69,105.6,40.501259,-3.372981,604.8,3,5,238.7,0.352
77.71,1,-0.03,0.032,-0.018,-0.011,0.021,-0.02,-1.553,0.01,-1.335,76.69,105.6,40.501259,-3.372981,604.8,3,5,238.7,0.352
77.81,1,-0.003,0.049,0.011,-0.015,0.034,-0.003,-1.552,0.008,-1.335,76.69,105.6,40.501259,-3.372981,604.8,3,5,238.7,0.352
77.91,1,0.01,0.004,-0.025,0.005,0.032,-0.009,-1.549,0.004,-1.335,76.69,105.6,40.501259,-3.372981,604.8,3,5,238.7,0.352
78.02,1,-0.039,-0.04,-0.016,-0.012,-0.011,-0.015,-1.546,0.01,-1.334,76.69,105.6,40.501259,-3.372981,604.8,3,5,238.7,0.352
78.1,1,-0.027,-0.046,-0.004,-0.037,-0.027,-0.014,-1.547,0.013,-1.333,76.69,105.6,40.501259,-3.372981,604.8,3,5,238.7,0.352
78.2,1,-0.059,-0.022,-0.016,-0.039,-0.028,-0.012,-1.547,0.018,-1.331,76.69,105.6,40.501259,-3.372981,604.8,3,5,238.7,0.352
78.3,1,0.016,-0.088,0.009,-0.018,-0.054,-0.006,-1.547,0.022,-1.328,76.69,105.6,40.501259,-3.372981,604.8,3,5,238.7,0.352
78.41,1,0.014,-0.104,-0.005,0.007,-0.084,-0.001,-1.545,0.027,-1.324,76.69,105.6,40.501259,-3.372981,604.8,3,5,238.7,0.352
78.51,1,0.013,-0.059,-0.015,0.005,-0.078,-0.007,-1.542,0.034,-1.32,77.61,103.9,40.501133,-3.373275,604.8,3,5,238.7,0.0
78.61,1,0.022,-0.06,0.007,0.015,-0.064,-0.001,-1.542,0.042,-1.316,77.61,103.9,40.501133,-3.373275,604.8,3,5,238.7,0.0
78.71,1,0.014,-0.095,-0.022,0.013,-0.076,-0.01,-1.54,0.051,-1.312,77.61,103.9,40.501133,-3.373275,604.8,3,5,238.7,0.0
78.81,1,-0.026,-0.096,0.001,-0.01,-0.087,-0.005,-1.539,0.06,-1.307,77.61,103.9,40.501133,-3.373275,604.8,3,5,238.7,0.0
78.91,1,0.008,-0.043,-0.01,0.012,-0.079,-0.006,-1.538,0.069,-1.304,77.61,103.9,40.501133,-3.373275,604.8,3,5,238.7,0.0
79.01,1,-0.034,-0.037,-0.01,-0.014,-0.052,-0.007,-1.536,0.074,-1.3,77.61,103.9,40.501133,-3.373275,604.8,3,5,238.7,0.0
79.12,1,-0.021,-0.025,0.004,-0.02,-0.038,-0.006,-1.537,0.076,-1.296,77.61,103.9,40.501133,-3.373275,604.8,3,5,238.7,0.0
79.22,1,-0.021,-0.011,-0.013,-0.024,-0.026,-0.005,-1.535,0.073,-1.294,77.61,103.9,40.501133,-3.373275,604.8,3,5,238.7,0.0
79.31,1,0.005,0.031,0.004,-0.006,0.002,-0.002,-1.534,0.071,-1.292,77.61,103.9,40.501133,-3.373275,604.8,3,5,238.7,0.0
79.41,1,-0.003,0.036,0.006,-0.007,0.026,-0.002,-1.534,0.067,-1.29,77.61,103.9,40.501133,-3.373275,604.8,3,5,238.7,0.0
79.51,1,0.02,0.039,-0.01,0.0,0.031,0.004,-1.533,0.061,-1.289,78.74,105.6,40.500999,-3.373562,604.4,3,5,238.7,0.0
79.62,1,-0.003,0.03,0.016,0.005,0.035,0.004,-1.534,0.057,-1.288,78.74,105.6,40.500999,-3.373562,604.4,3,5,238.7,0.0
79.71,1,-0.016,0.06,0.004,-0.001,0.042,0.005,-1.534,0.053,-1.287,78.74,105.6,40.500999,-3.373562,604.4,3,5,238.7,0.0
79.82,1,0.029,0.053,0.014,0.009,0.049,0.005,-1.534,0.05,-1.287,78.74,105.6,40.500999,-3.373562,604.4,3,5,238.7,0.0
79.91,1,0.004,0.063,0.002,0.01,0.054,0.009,-1.534,0.046,-1.287,78.74,105.6,40.500999,-3.373562,604.4,3,5,238.7,0.0
80.01,1,-0.041,0.008,-0.014,-0.017,0.042,-0.004,-1.532,0.048,-1.287,78.74,105.6,40.500999,-3.373562,604.4,3,5,238.7,0.0
80.11,1,0.017,0.021,0.011,-0.008,0.023,0.004,-1.532,0.041,-1.287,78.74,105.6,40.500999,-3.373562,604.4,3,5,238.7,0.0
80.21,1,-0.053,0.061,-0.012,-0.018,0.041,-0.005,-1.53,0.035,-1.288,78.74,105.6,40.500999,-3.373562,604.4,3,5,238.7,0.0
80.31,1,-0.056,0.075,-0.019,-0.039,0.056,-0.008,-1.533,0.032,-1.289,78.74,105.6,40.500999,-3.373562,604.4,3,5,238.7,0.0
80.41,1,-0.003,0.052,-0.004,-0.035,0.058,-0.013,-1.532,0.027,-1.289,78.74,105.6,40.500999,-3.373562,604.4,3,5,238.7,0.0
80.51,1,-0.002,0.084,-0.012,-0.013,0.074,-0.008,-1.533,0.02,-1.29,79.62,104.8,40.500866,-3.373858,604.8,3,5,237.7,1.055
80.61,1,0.066,0.074,0.002,0.017,0.072,-0.005,-1.533,0.015,-1.292,79.62,104.8,40.500866,-3.373858,604.8,3,5,237.7,1.055
80.71,1,-0.029,0.067,-0.025,0.025,0.069,-0.011,-1.532,0.012,-1.294,79.62,104.8,40.500866,-3.373858,604.8,3,5,237.7,1.055
80.82,1,0.008,0.053,-0.012,0.001,0.063,-0.017,-1.53,0.005,-1.295,79.62,104.8,40.500866,-3.373858,604.8,3,5,237.7,1.055
80.91,1,0.017,0.083,-0.001,0.01,0.064,-0.01,-1.529,-0.001,-1.297,79.62,104.8,40.500866,-3.373858,604.8,3,5,237.7,1.055
81.02,1,0.002,0.077,-0.001,0.0,0.079,-0.002,-1.528,-0.007,-1.298,79.62,104.8,40.500866,-3.373858,604.8,3,5,237.7,1.055
81.11,1,-0.032,0.039,-0.032,-0.007,0.062,-0.017,-1.526,-0.007,-1.3,79.62,104.8,40.500866,-3.373858,604.8,3,5,237.7,1.055
81.21,1,-0.005,0.037,0.003,-0.015,0.05,-0.011,-1.527,-0.009,-1.303,79.62,104.8,40.500866,-3.373858,604.8,3,5,237.7,1.055
81.32,1,-0.058,0.079,-0.026,-0.025,0.059,-0.015,-1.525,-0.012,-1.304,79.62,104.8,40.500866,-3.373858,604.8,3,5,237.7,1.055
81.41,1,-0.013,0.011,-0.006,-0.032,0.044,-0.014,-1.526,-0.011,-1.306,79.62,104.8,40.500866,-3.373858,604.8,3,5,237.7,1.055
81.51,1,-0.032,0.046,-0.027,-0.022,0.037,-0.015,-1.528,-0.014,-1.307,80.76,103.9,40.500717,-3.374155,604.5,3,5,236.6,2.109
81.63,1,-0.007,-0.015,-0.0,-0.021,0.018,-0.011,-1.53,-0.012,-1.307,80.76,103.9,40.500717,-3.374155,604.5,3,5,236.6,2.109
81.71,1,-0.044,-0.015,-0.018,-0.034,-0.005,-0.014,-1.53,-0.009,-1.307,80.76,103.9,40.500717,-3.374155,604.5,3,5,236.6,2.109
81.81,1,0.044,-0.032,-0.002,-0.007,-0.016,-0.012,-1.529,-0.005,-1.307,80.76,103.9,40.500717,-3.374155,604.5,3,5,236.6,2.109
81.92,1,0.055,-0.038,-0.019,0.035,-0.028,-0.01,-1.528,-0.001,-1.305,80.76,103.9,40.500717,-3.374155,604.5,3,5,236.6,2.109
82.01,1,0.006,-0.049,-0.026,0.032,-0.043,-0.016,-1.525,0.005,-1.304,80.76,103.9,40.500717,-3.374155,604.5,3,5,236.6,2.109
82.12,1,-0.025,-0.051,-0.02,0.004,-0.046,-0.022,-1.522,0.011,-1.302,80.76,103.9,40.500717,-3.374155,604.5,3,5,236.6,2.109
82.22,1,-0.091,-0.022,-0.014,-0.039,-0.039,-0.017,-1.522,0.012,-1.301,80.76,103.9,40.500717,-3.374155,604.5,3,5,236.6,2.109
82.32,1,-0.033,-0.008,-0.011,-0.06,-0.014,-0.016,-1.522,0.016,-1.3,80.76,103.9,40.500717,-3.374155,604.5,3,5,236.6,2.109
82.42,1,-0.028,-0.019,-0.012,-0.035,-0.019,-0.012,-1.524,0.019,-1.299,80.76,103.9,40.500717,-3.374155,604.5,3,5,236.6,2.109
82.52,1,-0.014,0.023,-0.027,-0.027,-0.005,-0.019,-1.525,0.017,-1.298,81.62,103.8,40.500572,-3.374437,603.9,4,5,237.0,0.703
82.62,1,0.001,0.048,-0.012,-0.022,0.028,-0.015,-1.526,0.014,-1.299,81.62,103.8,40.500572,-3.374437,603.9,4,5,237.0,0.703
82.82,1,0.005,0.033,-0.019,0.017,0.033,-0.019,-1.523,0.007,-1.301,81.62,103.8,40.500572,-3.374437,603.9,4,5,237.0,0.703
82.92,1,-0.035,0.044,-0.004,-0.008,0.037,-0.014,-1.522,0.003,-1.303,81.62,103.8,40.500572,-3.374437,603.9,4,5,237.0,0.703
83.03,1,0.004,-0.005,-0.012,-0.012,0.027,-0.009,-1.522,0.0,-1.303,81.62,103.8,40.500572,-3.374437,603.9,4,5,237.0,0.703
83.12,1,-0.004,-0.024,-0.0,-0.008,-0.0,-0.008,-1.523,0.004,-1.302,81.62,103.8,40.500572,-3.374437,603.9,4,5,237.0,0.703
83.22,1,0.004,-0.054,-0.005,-0.002,-0.03,-0.005,-1.523,0.009,-1.3,81.62,103.8,40.500572,-3.374437,603.9,4,5,237.0,0.703
83.32,1,-0.003,-0.105,-0.02,-0.001,-0.064,-0.008,-1.522,0.018,-1.296,81.62,103.8,40.500572,-3.374437,603.9,4,5,237.0,0.703
83.42,1,0.007,-0.122,-0.021,0.001,-0.104,-0.02,-1.523,0.029,-1.292,81.62,103.8,40.500572,-3.374437,603.9,4,5,237.0,0.703
83.52,1,-0.015,-0.105,-0.026,-0.001,-0.105,-0.019,-1.523,0.042,-1.287,81.62,103.8,40.500572,-3.374437,603.9,4,5,237.0,0.703
83.62,1,0.027,-0.081,0.002,0.003,-0.094,-0.014,-1.523,0.05,-1.283,82.66,102.6,40.50042,-3.374744,603.7,4,5,238.4,1.758
83.72,1,0.015,-0.095,-0.033,0.009,-0.09,-0.017,-1.524,0.052,-1.279,82.66,102.6,40.50042,-3.374744,603.7,4,5,238.4,1.758
83.83,1,-0.039,-0.05,-0.025,0.006,-0.087,-0.02,-1.527,0.056,-1.276,82.66,102.6,40.50042,-3.374744,603.7,4,5,238.4,1.758
83.93,1,0.004,0.022,-0.005,-0.018,-0.027,-0.017,-1.528,0.053,-1.275,82.66,102.6,40.50042,-3.374744,603.7,4,5,238.4,1.758
84.02,1,0.018,0.03,-0.024,0.007,0.008,-0.019,-1.524,0.047,-1.274,82.66,102.6,40.50042,-3.374744,603.7,4,5,238.4,1.758
84.13,1,0.046,0.017,0.008,0.022,0.018,-0.01,-1.521,0.043,-1.274,82.66,102.6,40.50042,-3.374744,603.7,4,5,238.4,1.758
84.22,1,0.027,0.027,0.007,0.029,0.02,0.0,-1.519,0.042,-1.274,82.66,102.6,40.50042,-3.374744,603.7,4,5,238.4,1.758
84.32,1,-0.034,0.045,-0.003,0.013,0.028,0.005,-1.517,0.037,-1.275,82.66,102.6,40.50042,-3.374744,603.7,4,5,238.4,1.758
84.43,1,-0.07,0.073,0.018,-0.041,0.052,0.006,-1.515,0.032,-1.276,82.66,102.6,40.50042,-3.374744,603.7,4,5,238.4,1.758
84.53,1,-0.023,0.067,0.004,-0.039,0.065,0.01,-1.517,0.025,-1.278,82.66,102.6,40.50042,-3.374744,603.7,4,5,238.4,1.758
84.62,1,-0.009,0.075,-0.006,-0.027,0.071,-0.001,-1.518,0.017,-1.279,83.63,103.3,40.500286,-3.375023,603.7,4,5,237.0,1.406
84.73,1,-0.013,0.062,0.018,-0.016,0.067,0.007,-1.519,0.009,-1.281,83.63,103.3,40.500286,-3.375023,603.7,4,5,237.0,1.406
84.82,1,0.005,0.079,-0.006,-0.003,0.066,0.005,-1.517,0.001,-1.284,83.63,103.3,40.500286,-3.375023,603.7,4,5,237.0,1.406
84.92,1,0.009,0.08,0.0,0.004,0.078,-0.0,-1.516,-0.01,-1.287,83.63,103.3,40.500286,-3.375023,603.7,4,5,237.0,1.406
85.02,1,-0.015,0.061,0.009,-0.002,0.071,0.0,-1.516,-0.016,-1.29,83.63,103.3,40.500286,-3.375023,603.7,4,5,237.0,1.406
85.13,1,0.023,0.057,0.005,0.008,0.064,0.007,-1.516,-0.02,-1.292,83.63,103.3,40.500286,-3.375023,603.7,4,5,237.0,1.406
85.23,1,-0.025,0.078,-0.019,-0.0,0.071,-0.005,-1.515,-0.025,-1.295,83.63,103.3,40.500286,-3.375023,603.7,4,5,237.0,1.406
85.33,1,-0.047,0.043,-0.007,-0.028,0.058,-0.008,-1.515,-0.028,-1.298,83.63,103.3,40.500286,-3.375023,603.7,4,5,237.0,1.406
85.43,1,-0.012,0.031,0.001,-0.028,0.046,-0.003,-1.516,-0.03,-1.3,83.63,103.3,40.500286,-3.375023,603.7,4,5,237.0,1.406
85.52,1,-0.015,0.018,0.008,-0.017,0.033,-0.0,-1.517,-0.029,-1.302,83.63,103.3,40.500286,-3.375023,603.7,4,5,237.0,1.406
85.62,1,0.002,-0.014,0.02,-0.017,0.011,0.012,-1.518,-0.029,-1.303,84.63,100.3,40.500149,-3.375289,603.3,3,5,235.9,2.461
85.72,1,0.026,-0.043,0.013,0.014,-0.02,0.013,-1.519,-0.024,-1.303,84.63,100.3,40.500149,-3.375289,603.3,3,5,235.9,2.461
85.84,1,0.044,-0.047,0.012,0.026,-0.035,0.012,-1.519,-0.018,-1.303,84.63,100.3,40.500149,-3.375289,603.3,3,5,235.9,2.461
85.93,1,-0.011,-0.05,0.005,0.015,-0.041,0.009,-1.518,-0.015,-1.302,84.63,100.3,40.500149,-3.375289,603.3,3,5,235.9,2.461
86.03,1,-0.005,-0.067,0.001,-0.0,-0.057,0.007,-1.522,-0.009,-1.3,84.63,100.3,40.500149,-3.375289,603.3,3,5,235.9,2.461
86.13,1,-0.055,-0.064,-0.002,-0.019,-0.063,0.002,-1.523,-0.002,-1.298,84.63,100.3,40.500149,-3.375289,603.3,3,5,235.9,2.461
86.23,1,0.01,-0.08,0.037,-0.022,-0.069,0.012,-1.526,0.005,-1.296,84.63,100.3,40.500149,-3.375289,603.3,3,5,235.9,2.461
86.33,1,-0.02,-0.043,0.011,-0.013,-0.055,0.019,-1.529,0.009,-1.294,84.63,100.3,40.500149,-3.375289,603.3,3,5,235.9,2.461
86.44,1,0.021,-0.051,0.018,-0.001,-0.054,0.018,-1.531,0.011,-1.292,84.63,100.3,40.500149,-3.375289,603.3,3,5,235.9,2.461
86.53,1,0.016,-0.058,0.022,0.014,-0.054,0.02,-1.531,0.016,-1.291,84.63,100.3,40.500149,-3.375289,603.3,3,5,235.9,2.461
86.64,1,0.021,-0.048,0.012,0.018,-0.056,0.015,-1.533,0.018,-1.29,85.63,98.3,40.500019,-3.375551,602.9,3,5,236.2,0.703
86.73,1,0.002,-0.011,0.024,0.01,-0.035,0.018,-1.534,0.019,-1.289,85.63,98.3,40.500019,-3.375551,602.9,3,5,236.2,0.703
86.83,1,-0.034,-0.003,0.012,-0.006,-0.018,0.018,-1.535,0.018,-1.288,85.63,98.3,40.500019,-3.375551,602.9,3,5,236.2,0.703
86.93,1,-0.025,-0.006,0.013,-0.024,-0.008,0.012,-1.535,0.017,-1.286,85.63,98.3,40.500019,-3.375551,602.9,3,5,236.2,0.703
87.04,1,-0.031,-0.025,0.025,-0.028,-0.014,0.02,-1.539,0.02,-1.285,85.63,98.3,40.500019,-3.375551,602.9,3,5,236.2,0.703
87.14,1,-0.012,-0.04,0.021,-0.021,-0.028,0.021,-1.541,0.023,-1.284,85.63,98.3,40.500019,-3.375551,602.9,3,5,236.2,0.703
87.24,1,-0.001,-0.047,0.019,-0.009,-0.039,0.024,-1.544,0.025,-1.283,85.63,98.3,40.500019,-3.375551,602.9,3,5,236.2,0.703
87.34,1,-0.0,-0.018,0.009,-0.009,-0.031,0.013,-1.543,0.025,-1.282,85.63,98.3,40.500019,-3.375551,602.9,3,5,236.2,0.703
87.43,1,-0.004,-0.023,0.031,0.001,-0.024,0.023,-1.545,0.026,-1.28,85.63,98.3,40.500019,-3.375551,602.9,3,5,236.2,0.703
87.53,1,-0.021,-0.022,0.013,-0.013,-0.022,0.017,-1.545,0.027,-1.279,85.63,98.3,40.500019,-3.375551,602.9,3,5,236.2,0.703
87.64,1,-0.061,-0.044,-0.004,-0.031,-0.029,0.008,-1.546,0.029,-1.278,86.63,98.2,40.499882,-3.375822,602.5,3,5,237.3,1.406
87.73,1,-0.04,-0.035,0.066,-0.046,-0.038,0.027,-1.549,0.03,-1.276,86.63,98.2,40.499882,-3.375822,602.5,3,5,237.3,1.406
87.85,1,0.03,0.022,0.011,-0.008,-0.012,0.029,-1.552,0.027,-1.275,86.63,98.2,40.499882,-3.375822,602.5,3,5,237.3,1.406
87.93,1,0.003,-0.002,-0.014,0.003,0.001,0.01,-1.553,0.029,-1.273,86.63,98.2,40.499882,-3.375822,602.5,3,5,237.3,1.406
88.03,1,-0.021,-0.011,0.002,-0.005,-0.006,0.004,-1.552,0.034,-1.271,86.63,98.2,40.499882,-3.375822,602.5,3,5,237.3,1.406
88.14,1,-0.008,-0.016,0.008,-0.015,-0.012,0.001,-1.554,0.036,-1.27,86.63,98.2,40.499882,-3.375822,602.5,3,5,237.3,1.406
88.24,1,0.038,-0.012,0.019,0.016,-0.013,0.014,-1.555,0.037,-1.269,86.63,98.2,40.499882,-3.375822,602.5,3,5,237.3,1.406
88.33,1,0.037,0.021,-0.002,0.018,0.001,0.006,-1.554,0.032,-1.268,86.63,98.2,40.499882,-3.375822,602.5,3,5,237.3,1.406
88.44,1,-0.007,0.015,0.015,0.02,0.009,0.01,-1.552,0.03,-1.268,86.63,98.2,40.499882,-3.375822,602.5,3,5,237.3,1.406
88.55,1,0.008,0.026,0.008,0.007,0.02,0.005,-1.551,0.028,-1.268,86.63,98.2,40.499882,-3.375822,602.5,3,5,237.3,1.406
88.63,1,-0.023,0.001,-0.006,0.001,0.017,0.006,-1.553,0.026,-1.268,87.63,98.2,40.499744,-3.376095,602.6,3,5,236.2,1.055
88.73,1,-0.006,-0.009,0.009,-0.016,-0.003,-0.001,-1.553,0.023,-1.268,87.63,98.2,40.499744,-3.376095,602.6,3,5,236.2,1.055
88.83,1,-0.044,-0.003,-0.012,-0.014,-0.002,0.003,-1.554,0.021,-1.268,87.63,98.2,40.499744,-3.376095,602.6,3,5,236.2,1.055
88.93,1,-0.057,0.029,0.007,-0.052,0.006,-0.002,-1.555,0.017,-1.268,87.63,98.2,40.499744,-3.376095,602.6,3,5,236.2,1.055
89.03,1,-0.027,0.036,0.003,-0.035,0.025,0.005,-1.556,0.012,-1.268,87.63,98.2,40.499744,-3.376095,602.6,3,5,236.2,1.055
89.14,1,-0.019,-0.0,-0.002,-0.033,0.023,-0.003,-1.557,0.011,-1.267,87.63,98.2,40.499744,-3.376095,602.6,3,5,236.2,1.055
89.23,1,-0.005,-0.003,0.005,-0.012,0.003,0.003,-1.556,0.013,-1.267,87.63,98.2,40.499744,-3.376095,602.6,3,5,236.2,1.055
89.33,1,0.048,-0.029,0.012,0.011,-0.012,0.007,-1.555,0.015,-1.266,87.63,98.2,40.499744,-3.376095,602.6,3,5,236.2,1.055
89.43,1,-0.023,0.005,-0.009,0.012,-0.009,0.003,-1.555,0.013,-1.266,87.63,98.2,40.499744,-3.376095,602.6,3,5,236.2,1.055
89.55,1,0.016,-0.003,0.029,0.002,-0.001,0.011,-1.555,0.011,-1.266,87.63,98.2,40.499744,-3.376095,602.6,3,5,236.2,1.055
89.63,1,-0.011,-0.017,0.01,-0.01,-0.004,0.013,-1.558,0.008,-1.265,88.65,97.7,40.499596,-3.376368,602.2,3,5,235.5,1.758
89.76,1,0.001,0.005,-0.017,0.007,-0.01,0.003,-1.557,0.008,-1.265,88.65,97.7,40.499596,-3.376368,602.2,3,5,235.5,1.758
89.84,1,-0.044,-0.002,-0.004,-0.021,-0.003,-0.01,-1.557,0.008,-1.264,88.65,97.7,40.499596,-3.376368,602.2,3,5,235.5,1.758
89.94,1,-0.042,0.006,0.003,-0.041,0.002,-0.003,-1.556,0.008,-1.264,88.65,97.7,40.499596,-3.376368,602.2,3,5,235.5,1.758
90.04,1,0.021,0.017,0.025,-0.009,0.008,0.015,-1.556,0.007,-1.263,88.65,97.7,40.499596,-3.376368,602.2,3,5,235.5,1.758
90.14,1,0.01,-0.006,-0.009,0.009,0.005,0.003,-1.553,0.009,-1.263,88.65,97.7,40.499596,-3.376368,602.2,3,5,235.5,1.758
90.25,1,0.057,-0.013,0.027,0.019,-0.004,0.01,-1.555,0.01,-1.263,88.65,97.7,40.499596,-3.376368,602.2,3,5,235.5,1.758
90.35,1,-0.005,0.006,0.029,0.024,-0.001,0.022,-1.555,0.007,-1.262,88.65,97.7,40.499596,-3.376368,602.2,3,5,235.5,1.758
90.44,1,0.01,-0.021,0.019,0.014,-0.009,0.024,-1.556,0.006,-1.261,88.65,97.7,40.499596,-3.376368,602.2,3,5,235.5,1.758
90.54,1,-0.006,0.027,0.023,0.005,0.003,0.021,-1.555,0.006,-1.261,88.65,97.7,40.499596,-3.376368,602.2,3,5,235.5,1.758
90.64,1,-0.001,0.01,0.008,0.001,0.014,0.016,-1.555,0.003,-1.261,89.62,98.2,40.499451,-3.37663,602.2,3,5,234.8,1.406
90.74,1,-0.028,-0.001,0.01,-0.019,0.002,0.012,-1.556,0.002,-1.26,89.62,98.2,40.499451,-3.37663,602.2,3,5,234.8,1.406
90.84,1,0.004,-0.004,0.015,-0.009,-0.003,0.013,-1.557,0.004,-1.26,89.62,98.2,40.499451,-3.37663,602.2,3,5,234.8,1.406
90.95,1,-0.044,0.023,-0.015,-0.017,0.006,0.002,-1.557,0.004,-1.26,89.62,98.2,40.499451,-3.37663,602.2,3,5,234.8,1.406
91.04,1,-0.007,0.006,-0.006,-0.024,0.014,-0.004,-1.557,0.003,-1.26,89.62,98.2,40.499451,-3.37663,602.2,3,5,234.8,1.406
91.14,1,-0.046,0.028,-0.007,-0.022,0.016,-0.006,-1.556,0.0,-1.26,89.62,98.2,40.499451,-3.37663,602.2,3,5,234.8,1.406
91.24,1,-0.008,0.021,0.016,-0.035,0.024,0.005,-1.556,-0.002,-1.261,89.62,98.2,40.499451,-3.37663,602.2,3,5,234.8,1.406
91.34,1,0.007,0.025,0.019,-0.006,0.021,0.01,-1.557,-0.001,-1.261,89.62,98.2,40.499451,-3.37663,602.2,3,5,234.8,1.406
91.44,1,0.042,0.011,0.008,0.018,0.019,0.013,-1.556,-0.003,-1.262,89.62,98.2,40.499451,-3.37663,602.2,3,5,234.8,1.406
91.55,1,-0.006,0.017,-0.004,0.016,0.016,0.005,-1.557,-0.005,-1.263,89.62,98.2,40.499451,-3.37663,602.2,3,5,234.8,1.406
91.65,1,-0.047,0.061,-0.014,-0.017,0.036,-0.006,-1.555,-0.008,-1.263,90.61,98.9,40.499317,-3.376885,602.3,3,5,234.8,0.703
91.74,1,-0.033,0.025,0.01,-0.026,0.036,-0.001,-1.556,-0.004,-1.264,90.61,98.9,40.499317,-3.376885,602.3,3,5,234.8,0.703
91.84,1,-0.007,-0.008,0.002,-0.022,0.01,0.001,-1.557,-0.002,-1.265,90.61,98.9,40.499317,-3.376885,602.3,3,5,234.8,0.703
91.94,1,0.009,0.011,0.017,-0.014,0.011,0.009,-1.559,-0.007,-1.266,90.61,98.9,40.499317,-3.376885,602.3,3,5,234.8,0.703
92.04,1,-0.008,-0.009,0.012,-0.01,0.004,0.018,-1.56,-0.011,-1.267,90.61,98.9,40.499317,-3.376885,602.3,3,5,234.8,0.703
92.14,1,0.014,0.016,0.036,0.013,0.002,0.018,-1.56,-0.01,-1.268,90.61,98.9,40.499317,-3.376885,602.3,3,5,234.8,0.703
92.24,1,0.003,0.034,0.028,0.011,0.018,0.026,-1.56,-0.013,-1.269,90.61,98.9,40.499317,-3.376885,602.3,3,5,234.8,0.703
92.34,1,-0.015,0.018,0.029,-0.01,0.026,0.027,-1.562,-0.015,-1.27,90.61,98.9,40.499317,-3.376885,602.3,3,5,234.8,0.703
92.44,1,0.01,0.009,0.031,0.002,0.011,0.032,-1.563,-0.014,-1.271,90.61,98.9,40.499317,-3.376885,602.3,3,5,234.8,0.703
92.54,1,0.011,0.003,0.018,0.003,0.01,0.024,-1.563,-0.017,-1.271,90.61,98.9,40.499317,-3.376885,602.3,3,5,234.8,0.703
92.74,1,0.013,0.01,0.021,0.014,0.007,0.02,-1.567,-0.02,-1.274,91.62,98.9,40.499176,-3.377148,602.1,3,5,234.5,0.352
92.85,1,-0.052,0.024,0.007,-0.012,0.016,0.015,-1.568,-0.023,-1.274,91.62,98.9,40.499176,-3.377148,602.1,3,5,234.5,0.352
92.95,1,-0.056,0.018,0.025,-0.049,0.019,0.012,-1.57,-0.02,-1.275,91.62,98.9,40.499176,-3.377148,602.1,3,5,234.5,0.352
93.04,1,-0.088,0.049,-0.018,-0.068,0.028,0.009,-1.575,-0.018,-1.277,91.62,98.9,40.499176,-3.377148,602.1,3,5,234.5,0.352
93.14,1,-0.003,0.057,0.03,-0.027,0.041,0.011,-1.576,-0.024,-1.28,91.62,98.9,40.499176,-3.377148,602.1,3,5,234.5,0.352
93.25,1,0.026,0.06,0.026,-0.003,0.056,0.019,-1.578,-0.03,-1.283,91.62,98.9,40.499176,-3.377148,602.1,3,5,234.5,0.352
93.34,1,-0.0,0.032,0.03,-0.007,0.049,0.025,-1.58,-0.033,-1.284,91.62,98.9,40.499176,-3.377148,602.1,3,5,234.5,0.352
93.45,1,0.009,0.013,0.005,0.006,0.032,0.017,-1.581,-0.031,-1.286,91.62,98.9,40.499176,-3.377148,602.1,3,5,234.5,0.352
93.55,1,0.033,-0.012,0.032,0.018,0.01,0.021,-1.584,-0.029,-1.288,91.62,98.9,40.499176,-3.377148,602.1,3,5,234.5,0.352
93.65,1,0.013,-0.012,-0.007,0.018,-0.007,0.013,-1.588,-0.031,-1.289,91.62,98.9,40.499176,-3.377148,602.1,3,5,234.5,0.352
93.75,1,-0.009,0.004,0.002,0.007,-0.006,0.003,-1.587,-0.032,-1.29,92.63,99.1,40.499023,-3.377417,601.6,3,5,234.5,0.352
93.85,1,-0.036,-0.015,-0.016,-0.019,-0.003,-0.004,-1.588,-0.033,-1.291,92.63,99.1,40.499023,-3.377417,601.6,3,5,234.5,0.352
93.95,1,-0.064,0.0,-0.006,-0.033,-0.009,-0.009,-1.588,-0.034,-1.292,92.63,99.1,40.499023,-3.377417,601.6,3,5,234.5,0.352
94.06,1,-0.04,0.019,-0.003,-0.055,0.011,-0.008,-1.588,-0.035,-1.293,92.63,99.1,40.499023,-3.377417,601.6,3,5,234.5,0.352
94.15,1,0.03,0.007,0.003,-0.008,0.007,0.002,-1.588,-0.035,-1.295,92.63,99.1,40.499023,-3.377417,601.6,3,5,234.5,0.352
94.25,1,0.005,0.01,-0.004,0.005,0.011,-0.003,-1.587,-0.034,-1.296,92.63,99.1,40.499023,-3.377417,601.6,3,5,234.5,0.352
94.35,1,0.045,0.004,-0.003,0.02,0.007,0.0,-1.586,-0.034,-1.297,92.63,99.1,40.499023,-3.377417,601.6,3,5,234.5,0.352
94.45,1,0.003,0.003,-0.003,0.018,0.008,-0.001,-1.585,-0.035,-1.298,92.63,99.1,40.499023,-3.377417,601.6,3,5,234.5,0.352
94.55,1,-0.009,0.01,-0.007,0.01,0.003,-0.006,-1.584,-0.032,-1.299,92.63,99.1,40.499023,-3.377417,601.6,3,5,234.5,0.352
94.66,1,-0.047,0.019,-0.006,-0.02,0.015,-0.007,-1.584,-0.033,-1.3,92.63,99.1,40.499023,-3.377417,601.6,3,5,234.5,0.352
94.75,1,-0.031,-0.018,0.02,-0.037,0.003,0.006,-1.587,-0.033,-1.301,93.62,99.4,40.498875,-3.37769,601.7,3,5,235.2,0.703
94.85,1,-0.019,-0.006,-0.006,-0.027,-0.01,0.003,-1.587,-0.032,-1.302,93.62,99.4,40.498875,-3.37769,601.7,3,5,235.2,0.703
94.95,1,-0.027,0.003,0.006,-0.024,-0.002,0.001,-1.589,-0.033,-1.303,93.62,99.4,40.498875,-3.37769,601.7,3,5,235.2,0.703
95.05,1,0.007,-0.0,-0.0,-0.008,0.0,0.003,-1.59,-0.033,-1.304,93.62,99.4,40.498875,-3.37769,601.7,3,5,235.2,0.703
95.16,1,0.044,-0.011,0.011,0.015,-0.005,0.006,-1.59,-0.034,-1.305,93.62,99.4,40.498875,-3.37769,601.7,3,5,235.2,0.703
95.25,1,0.033,-0.003,0.013,0.031,-0.007,0.01,-1.589,-0.036,-1.306,93.62,99.4,40.498875,-3.37769,601.7,3,5,235.2,0.703
95.35,1,0.022,-0.005,-0.001,0.034,-0.008,0.009,-1.589,-0.036,-1.307,93.62,99.4,40.498875,-3.37769,601.7,3,5,235.2,0.703
95.46,1,0.009,-0.013,-0.001,0.009,-0.005,-0.001,-1.589,-0.036,-1.307,93.62,99.4,40.498875,-3.37769,601.7,3,5,235.2,0.703
95.56,1,-0.059,0.009,-0.026,-0.018,-0.003,-0.013,-1.589,-0.035,-1.308,93.62,99.4,40.498875,-3.37769,601.7,3,5,235.2,0.703
95.65,1,-0.024,-0.003,-0.003,-0.023,-0.0,-0.01,-1.589,-0.034,-1.308,93.62,99.4,40.498875,-3.37769,601.7,3,5,235.2,0.703
95.76,1,0.011,-0.046,-0.014,-0.02,-0.017,-0.008,-1.589,-0.032,-1.308,94.65,100.5,40.498734,-3.377956,602.4,3,5,235.9,1.406
95.85,1,-0.009,-0.032,-0.019,0.013,-0.038,-0.013,-1.587,-0.028,-1.309,94.65,100.5,40.498734,-3.377956,602.4,3,5,235.9,1.406
95.95,1,0.037,-0.039,-0.005,0.004,-0.028,-0.014,-1.586,-0.024,-1.309,94.65,100.5,40.498734,-3.377956,602.4,3,5,235.9,1.406
96.05,1,-0.037,-0.012,-0.024,0.004,-0.029,-0.012,-1.584,-0.023,-1.31,94.65,100.5,40.498734,-3.377956,602.4,3,5,235.9,1.406
96.15,1,0.034,-0.006,-0.008,0.003,-0.01,-0.017,-1.581,-0.021,-1.31,94.65,100.5,40.498734,-3.377956,602.4,3,5,235.9,1.406
96.25,1,-0.003,0.007,-0.011,0.001,-0.001,-0.014,-1.579,-0.021,-1.31,94.65,100.5,40.498734,-3.377956,602.4,3,5,235.9,1.406
96.36,1,-0.021,-0.021,-0.045,-0.012,-0.009,-0.022,-1.576,-0.02,-1.311,94.65,100.5,40.498734,-3.377956,602.4,3,5,235.9,1.406
96.46,1,-0.013,0.0,-0.019,-0.006,-0.012,-0.029,-1.572,-0.017,-1.311,94.65,100.5,40.498734,-3.377956,602.4,3,5,235.9,1.406
96.55,1,-0.012,-0.004,-0.023,-0.014,-0.002,-0.022,-1.57,-0.02,-1.312,94.65,100.5,40.498734,-3.377956,602.4,3,5,235.9,1.406
96.65,1,-0.025,-0.002,-0.03,-0.016,-0.005,-0.027,-1.567,-0.02,-1.312,94.65,100.5,40.498734,-3.377956,602.4,3,5,235.9,1.406
96.75,1,-0.003,-0.005,-0.021,-0.012,-0.001,-0.023,-1.568,-0.019,-1.312,95.6,106.4,40.498589,-3.378244,602.2,3,5,236.6,1.406
96.85,1,-0.023,0.023,-0.028,-0.019,0.005,-0.026,-1.568,-0.019,-1.312,95.6,106.4,40.498589,-3.378244,602.2,3,5,236.6,1.406
96.96,1,-0.001,0.005,-0.026,-0.012,0.009,-0.027,-1.567,-0.02,-1.312,95.6,106.4,40.498589,-3.378244,602.2,3,5,236.6,1.406
97.06,1,-0.005,0.032,-0.019,-0.008,0.019,-0.025,-1.566,-0.024,-1.313,95.6,106.4,40.498589,-3.378244,602.2,3,5,236.6,1.406
97.16,1,-0.026,0.016,-0.018,-0.004,0.016,-0.017,-1.567,-0.026,-1.313,95.6,106.4,40.498589,-3.378244,602.2,3,5,236.6,1.406
97.25,1,-0.028,0.023,-0.01,-0.029,0.021,-0.018,-1.567,-0.026,-1.314,95.6,106.4,40.498589,-3.378244,602.2,3,5,236.6,1.406
97.36,1,0.012,-0.022,-0.01,-0.011,0.005,-0.012,-1.567,-0.025,-1.314,95.6,106.4,40.498589,-3.378244,602.2,3,5,236.6,1.406
97.46,1,-0.015,0.007,-0.021,-0.004,0.001,-0.015,-1.565,-0.024,-1.315,95.6,106.4,40.498589,-3.378244,602.2,3,5,236.6,1.406
97.56,1,-0.005,0.015,-0.013,-0.008,0.006,-0.015,-1.563,-0.021,-1.315,95.6,106.4,40.498589,-3.378244,602.2,3,5,236.6,1.406
97.66,1,-0.016,-0.003,-0.01,-0.016,0.004,-0.013,-1.562,-0.019,-1.315,95.6,106.4,40.498589,-3.378244,602.2,3,5,236.6,1.406
97.76,1,0.035,-0.004,-0.009,0.008,-0.001,-0.01,-1.56,-0.016,-1.315,96.6,103.2,40.498444,-3.378533,601.9,3,5,236.6,0.703
97.86,1,0.031,0.0,-0.02,0.022,-0.002,-0.01,-1.559,-0.012,-1.315,96.6,103.2,40.498444,-3.378533,601.9,3,5,236.6,0.703
97.96,1,-0.011,-0.001,-0.029,0.013,0.002,-0.023,-1.557,-0.012,-1.316,96.6,103.2,40.498444,-3.378533,601.9,3,5,236.6,0.703
98.06,1,0.004,0.017,-0.025,0.007,0.006,-0.025,-1.557,-0.014,-1.316,96.6,103.2,40.498444,-3.378533,601.9,3,5,236.6,0.703
98.16,1,0.016,0.01,-0.011,0.004,0.015,-0.022,-1.556,-0.016,-1.317,96.6,103.2,40.498444,-3.378533,601.9,3,5,236.6,0.703
98.26,1,-0.016,-0.0,0.011,0.006,0.002,-0.002,-1.555,-0.016,-1.317,96.6,103.2,40.498444,-3.378533,601.9,3,5,236.6,0.703
98.37,1,0.003,-0.001,-0.034,-0.006,0.004,-0.013,-1.552,-0.019,-1.318,96.6,103.2,40.498444,-3.378533,601.9,3,5,236.6,0.703
98.46,1,-0.025,-0.011,-0.013,-0.009,-0.005,-0.019,-1.552,-0.02,-1.318,96.6,103.2,40.498444,-3.378533,601.9,3,5,236.6,0.703
98.56,1,-0.04,0.0,-0.013,-0.025,-0.003,-0.017,-1.551,-0.02,-1.318,96.6,103.2,40.498444,-3.378533,601.9,3,5,236.6,0.703
98.66,1,0.005,-0.018,-0.012,-0.02,-0.008,-0.013,-1.55,-0.019,-1.319,96.6,103.2,40.498444,-3.378533,601.9,3,5,236.6,0.703
98.76,1,0.005,0.006,-0.004,-0.002,-0.008,-0.007,-1.547,-0.02,-1.319,97.6,103.6,40.498295,-3.378815,601.5,3,5,236.6,0.0
98.88,1,0.025,0.003,-0.018,0.011,0.0,-0.012,-1.543,-0.017,-1.319,97.6,103.6,40.498295,-3.378815,601.5,3,5,236.6,0.0
98.96,1,-0.01,-0.008,-0.018,0.009,0.001,-0.014,-1.541,-0.015,-1.318,97.6,103.6,40.498295,-3.378815,601.5,3,5,236.6,0.0
99.06,1,0.006,-0.023,-0.011,0.001,-0.013,-0.015,-1.539,-0.011,-1.318,97.6,103.6,40.498295,-3.378815,601.5,3,5,236.6,0.0
99.16,1,-0.029,0.004,-0.016,-0.016,-0.008,-0.018,-1.539,-0.01,-1.318,97.6,103.6,40.498295,-3.378815,601.5,3,5,236.6,0.0
99.26,1,0.01,-0.026,0.005,-0.003,-0.012,-0.004,-1.54,-0.012,-1.318,97.6,103.6,40.498295,-3.378815,601.5,3,5,236.6,0.0
99.36,1,-0.02,0.007,-0.018,-0.01,-0.01,-0.011,-1.54,-0.013,-1.318,97.6,103.6,40.498295,-3.378815,601.5,3,5,236.6,0.0
99.47,1,-0.016,0.009,-0.007,-0.02,0.003,-0.011,-1.539,-0.013,-1.318,97.6,103.6,40.498295,-3.378815,601.5,3,5,236.6,0.0
99.57,1,-0.009,0.006,0.002,-0.008,0.003,-0.002,-1.539,-0.011,-1.318,97.6,103.6,40.498295,-3.378815,601.5,3,5,236.6,0.0
99.66,1,0.001,0.001,-0.012,-0.005,0.003,-0.004,-1.537,-0.009,-1.318,97.6,103.6,40.498295,-3.378815,601.5,3,5,236.6,0.0
99.76,1,-0.004,0.011,0.004,-0.006,0.008,-0.007,-1.535,-0.008,-1.318,98.65,105.2,40.49815,-3.379098,603.2,3,5,236.6,0.0
99.86,1,-0.006,-0.0,-0.003,-0.001,0.002,0.002,-1.533,-0.008,-1.318,98.65,105.2,40.49815,-3.379098,603.2,3,5,236.6,0.0
99.96,1,-0.028,0.006,0.0,-0.013,0.008,-0.003,-1.532,-0.008,-1.318,98.65,105.2,40.49815,-3.379098,603.2,3,5,236.6,0.0
100.06,1,-0.004,0.011,-0.005,-0.011,0.007,-0.001,-1.532,-0.01,-1.318,98.65,105.2,40.49815,-3.379098,603.2,3,5,236.6,0.0
100.16,1,0.012,-0.023,0.009,-0.004,0.002,0.001,-1.533,-0.01,-1.318,98.65,105.2,40.49815,-3.379098,603.2,3,5,236.6,0.0
100.27,1,-0.032,-0.004,0.002,-0.003,-0.012,0.005,-1.533,-0.007,-1.318,98.65,105.2,40.49815,-3.379098,603.2,3,5,236.6,0.0
100.37,1,-0.044,-0.013,-0.0,-0.038,-0.006,-0.002,-1.532,-0.007,-1.318,98.65,105.2,40.49815,-3.379098,603.2,3,5,236.6,0.0
100.46,1,-0.018,-0.02,0.005,-0.018,-0.021,0.005,-1.532,-0.007,-1.318,98.65,105.2,40.49815,-3.379098,603.2,3,5,236.6,0.0
100.56,1,-0.056,-0.012,-0.006,-0.052,-0.011,-0.001,-1.533,-0.009,-1.318,98.65,105.2,40.49815,-3.379098,603.2,3,5,236.6,0.0
100.66,1,0.0,0.001,0.01,-0.023,-0.008,0.007,-1.536,-0.009,-1.318,98.65,105.2,40.49815,-3.379098,603.2,3,5,236.6,0.0
100.76,1,-0.027,-0.001,0.008,-0.013,-0.007,0.006,-1.535,-0.01,-1.318,99.61,101.9,40.498009,-3.379382,602.1,3,5,237.0,0.352
100.87,1,0.002,0.01,-0.009,-0.014,0.003,-0.004,-1.535,-0.01,-1.318,99.61,101.9,40.498009,-3.379382,602.1,3,5,237.0,0.352
100.97,1,-0.007,0.029,0.006,-0.008,0.014,0.005,-1.535,-0.01,-1.318,99.61,101.9,40.498009,-3.379382,602.1,3,5,237.0,0.352
101.08,1,0.005,-0.003,-0.006,-0.006,0.013,-0.003,-1.535,-0.009,-1.318,99.61,101.9,40.498009,-3.379382,602.1,3,5,237.0,0.352
101.16,1,0.006,-0.0,-0.01,0.001,0.004,-0.006,-1.535,-0.009,-1.318,99.61,101.9,40.498009,-3.379382,602.1,3,5,237.0,0.352
101.26,1,0.01,-0.0,-0.004,0.008,0.001,-0.007,-1.533,-0.008,-1.318,99.61,101.9,40.498009,-3.379382,602.1,3,5,237.0,0.352
101.37,1,0.01,0.006,-0.003,0.001,0.002,-0.005,-1.532,-0.008,-1.318,99.61,101.9,40.498009,-3.379382,602.1,3,5,237.0,0.352
101.47,1,-0.031,0.013,0.006,-0.003,0.008,-0.001,-1.534,-0.01,-1.318,99.61,101.9,40.498009,-3.379382,602.1,3,5,237.0,0.352
101.57,1,-0.019,-0.0,-0.003,-0.015,0.008,-0.001,-1.532,-0.009,-1.318,99.61,101.9,40.498009,-3.379382,602.1,3,5,237.0,0.352
101.67,1,-0.032,-0.019,-0.007,-0.019,-0.006,-0.002,-1.532,-0.006,-1.317,99.61,101.9,40.498009,-3.379382,602.1,3,5,237.0,0.352
101.77,1,-0.036,0.006,0.021,-0.033,-0.003,0.003,-1.532,-0.006,-1.317,100.71,101.9,40.497868,-3.37966,601.9,3,5,237.0,0.352
101.87,1,-0.014,-0.003,-0.012,-0.024,-0.002,0.005,-1.534,-0.005,-1.317,100.71,101.9,40.497868,-3.37966,601.9,3,5,237.0,0.352
101.98,1,0.002,-0.028,0.014,-0.012,-0.015,0.003,-1.532,-0.004,-1.317,100.71,101.9,40.497868,-3.37966,601.9,3,5,237.0,0.352
102.07,1,-0.03,0.007,0.008,-0.02,-0.007,0.009,-1.533,-0.005,-1.316,100.71,101.9,40.497868,-3.37966,601.9,3,5,237.0,0.352
102.17,1,-0.013,-0.0,-0.005,-0.02,-0.001,0.004,-1.533,-0.004,-1.316,100.71,101.9,40.497868,-3.37966,601.9,3,5,237.0,0.352
102.27,1,0.002,-0.003,-0.003,-0.005,-0.0,-0.001,-1.532,-0.005,-1.316,100.71,101.9,40.497868,-3.37966,601.9,3,5,237.0,0.352
102.37,1,-0.002,-0.001,0.003,-0.001,-0.002,-0.0,-1.531,-0.006,-1.316,100.71,101.9,40.497868,-3.37966,601.9,3,5,237.0,0.352
102.47,1,-0.021,0.003,0.005,-0.012,-0.002,0.004,-1.531,-0.006,-1.316,100.71,101.9,40.497868,-3.37966,601.9,3,5,237.0,0.352
102.57,1,-0.002,0.005,0.019,-0.016,0.003,0.008,-1.532,-0.008,-1.316,100.71,101.9,40.497868,-3.37966,601.9,3,5,237.0,0.352
102.77,1,-0.025,0.021,-0.002,-0.019,0.015,0.001,-1.533,-0.012,-1.317,100.71,101.9,40.497868,-3.37966,601.9,3,5,237.0,0.352
102.87,1,-0.041,0.019,0.001,-0.026,0.017,0.003,-1.534,-0.012,-1.318,101.62,101.3,40.497726,-3.379939,601.6,3,5,237.0,0.0
102.97,1,0.014,0.007,0.02,-0.026,0.019,0.004,-1.535,-0.014,-1.319,101.62,101.3,40.497726,-3.379939,601.6,3,5,237.0,0.0
103.07,1,-0.046,0.034,0.01,-0.016,0.018,0.013,-1.536,-0.015,-1.319,101.62,101.3,40.497726,-3.379939,601.6,3,5,237.0,0.0
103.17,1,0.004,0.001,0.005,-0.012,0.017,0.011,-1.537,-0.019,-1.32,101.62,101.3,40.497726,-3.379939,601.6,3,5,237.0,0.0
103.27,1,-0.035,0.021,-0.004,-0.016,0.011,0.004,-1.538,-0.022,-1.321,101.62,101.3,40.497726,-3.379939,601.6,3,5,237.0,0.0
103.38,1,-0.012,-0.007,0.004,-0.017,0.007,0.001,-1.538,-0.022,-1.322,101.62,101.3,40.497726,-3.379939,601.6,3,5,237.0,0.0
103.47,1,-0.032,0.009,0.024,-0.03,0.007,0.008,-1.538,-0.021,-1.322,101.62,101.3,40.497726,-3.379939,601.6,3,5,237.0,0.0
103.57,1,0.015,-0.01,0.022,-0.004,0.0,0.02,-1.538,-0.021,-1.323,101.62,101.3,40.497726,-3.379939,601.6,3,5,237.0,0.0
103.67,1,-0.019,0.017,-0.013,-0.008,0.005,0.003,-1.538,-0.022,-1.323,101.62,101.3,40.497726,-3.379939,601.6,3,5,237.0,0.0
103.77,1,0.003,-0.012,0.023,-0.007,-0.002,0.016,-1.541,-0.023,-1.324,101.62,101.3,40.497726,-3.379939,601.6,3,5,237.0,0.0
103.87,1,-0.008,0.01,0.027,-0.008,0.005,0.018,-1.543,-0.025,-1.324,102.61,100.3,40.497585,-3.380229,601.8,3,5,237.0,0.0
103.97,1,-0.016,-0.007,0.004,-0.008,0.001,0.015,-1.545,-0.023,-1.325,102.61,100.3,40.497585,-3.380229,601.8,3,5,237.0,0.0
104.08,1,-0.019,-0.007,0.012,-0.016,-0.008,0.011,-1.546,-0.022,-1.324,102.61,100.3,40.497585,-3.380229,601.8,3,5,237.0,0.0
104.17,1,-0.025,-0.014,0.027,-0.019,-0.008,0.016,-1.547,-0.021,-1.325,102.61,100.3,40.497585,-3.380229,601.8,3,5,237.0,0.0
104.27,1,-0.002,-0.028,0.012,-0.016,-0.018,0.019,-1.55,-0.019,-1.325,102.61,100.3,40.497585,-3.380229,601.8,3,5,237.0,0.0
104.39,1,-0.011,-0.003,0.015,-0.009,-0.015,0.017,-1.552,-0.019,-1.325,102.61,100.3,40.497585,-3.380229,601.8,3,5,237.0,0.0
104.48,1,-0.023,0.013,0.008,-0.015,0.0,0.01,-1.552,-0.02,-1.325,102.61,100.3,40.497585,-3.380229,601.8,3,5,237.0,0.0
104.58,1,-0.015,-0.005,0.03,-0.017,-0.001,0.017,-1.552,-0.018,-1.325,102.61,100.3,40.497585,-3.380229,601.8,3,5,237.0,0.0
104.68,1,-0.008,-0.009,0.023,-0.019,-0.002,0.023,-1.554,-0.018,-1.324,102.61,100.3,40.497585,-3.380229,601.8,3,5,237.0,0.0
104.78,1,-0.011,-0.027,0.013,-0.006,-0.016,0.022,-1.557,-0.017,-1.324,102.61,100.3,40.497585,-3.380229,601.8,3,5,237.0,0.0
104.88,1,-0.03,-0.023,0.024,-0.024,-0.019,0.017,-1.56,-0.015,-1.324,103.7,99.1,40.497452,-3.380502,601.6,3,5,237.3,0.352
104.99,1,0.032,-0.032,0.035,0.003,-0.028,0.028,-1.561,-0.012,-1.323,103.7,99.1,40.497452,-3.380502,601.6,3,5,237.3,0.352
105.08,1,-0.013,-0.017,0.021,0.004,-0.022,0.023,-1.563,-0.011,-1.322,103.7,99.1,40.497452,-3.380502,601.6,3,5,237.3,0.352
105.18,1,-0.031,-0.017,0.023,-0.014,-0.018,0.025,-1.565,-0.006,-1.321,103.7,99.1,40.497452,-3.380502,601.6,3,5,237.3,0.352
105.28,1,-0.005,-0.014,0.015,-0.015,-0.018,0.021,-1.567,-0.004,-1.32,103.7,99.1,40.497452,-3.380502,601.6,3,5,237.3,0.352
105.38,1,-0.004,-0.012,0.027,-0.009,-0.015,0.02,-1.57,-0.002,-1.319,103.7,99.1,40.497452,-3.380502,601.6,3,5,237.3,0.352
105.48,1,-0.007,0.001,0.003,-0.005,-0.011,0.016,-1.572,-0.001,-1.318,103.7,99.1,40.497452,-3.380502,601.6,3,5,237.3,0.352
105.58,1,0.035,-0.013,0.008,0.011,-0.007,0.01,-1.573,-0.0,-1.317,103.7,99.1,40.497452,-3.380502,601.6,3,5,237.3,0.352
105.68,1,0.026,-0.024,0.005,0.016,-0.013,0.011,-1.572,0.003,-1.317,103.7,99.1,40.497452,-3.380502,601.6,3,5,237.3,0.352
105.78,1,-0.011,-0.016,-0.014,0.014,-0.017,-0.003,-1.572,0.005,-1.316,103.7,99.1,40.497452,-3.380502,601.6,3,5,237.3,0.352
105.88,1,-0.028,-0.023,-0.03,-0.009,-0.02,-0.019,-1.572,0.005,-1.315,104.61,97.9,40.497314,-3.380774,601.2,3,5,238.0,1.055
105.99,1,-0.024,0.003,-0.013,-0.023,-0.011,-0.017,-1.571,0.007,-1.315,104.61,97.9,40.497314,-3.380774,601.2,3,5,238.0,1.055
106.08,1,-0.016,-0.017,-0.017,-0.013,-0.006,-0.019,-1.571,0.007,-1.314,104.61,97.9,40.497314,-3.380774,601.2,3,5,238.0,1.055
106.18,1,-0.012,0.004,-0.007,-0.02,-0.008,-0.012,-1.569,0.007,-1.314,104.61,97.9,40.497314,-3.380774,601.2,3,5,238.0,1.055
106.28,1,0.019,-0.006,-0.007,0.002,-0.01,-0.009,-1.569,0.005,-1.313,104.61,97.9,40.497314,-3.380774,601.2,3,5,238.0,1.055
106.39,1,0.009,-0.006,-0.015,0.006,-0.004,-0.011,-1.571,0.004,-1.313,104.61,97.9,40.497314,-3.380774,601.2,3,5,238.0,1.055
106.49,1,-0.003,-0.002,-0.014,0.005,-0.001,-0.014,-1.57,0.004,-1.313,104.61,97.9,40.497314,-3.380774,601.2,3,5,238.0,1.055
106.58,1,-0.04,0.011,-0.032,-0.014,0.002,-0.02,-1.572,0.006,-1.312,104.61,97.9,40.497314,-3.380774,601.2,3,5,238.0,1.055
106.68,1,-0.012,0.002,-0.007,-0.023,0.003,-0.02,-1.57,0.005,-1.312,104.61,97.9,40.497314,-3.380774,601.2,3,5,238.0,1.055
106.79,1,-0.018,0.008,-0.02,-0.018,0.007,-0.014,-1.571,0.005,-1.311,104.61,97.9,40.497314,-3.380774,601.2,3,5,238.0,1.055
106.88,1,-0.026,0.006,-0.015,-0.017,0.01,-0.018,-1.57,0.006,-1.311,105.61,100.5,40.497181,-3.381048,601.2,3,5,237.3,0.703
106.98,1,0.01,-0.019,0.008,-0.017,-0.001,-0.004,-1.572,0.006,-1.311,105.61,100.5,40.497181,-3.381048,601.2,3,5,237.3,0.703
107.08,1,-0.019,-0.006,-0.023,-0.008,-0.013,-0.009,-1.57,0.005,-1.31,105.61,100.5,40.497181,-3.381048,601.2,3,5,237.3,0.703
107.18,1,-0.029,-0.025,0.001,-0.02,-0.015,-0.011,-1.569,0.006,-1.31,105.61,100.5,40.497181,-3.381048,601.2,3,5,237.3,0.703
107.28,1,-0.01,-0.004,-0.007,-0.017,-0.013,-0.008,-1.567,0.006,-1.31,105.61,100.5,40.497181,-3.381048,601.2,3,5,237.3,0.703
107.38,1,-0.008,0.022,0.001,-0.012,0.001,-0.003,-1.564,0.006,-1.31,105.61,100.5,40.497181,-3.381048,601.2,3,5,237.3,0.703
107.48,1,0.057,-0.032,-0.012,0.017,-0.007,-0.005,-1.563,0.003,-1.309,105.61,100.5,40.497181,-3.381048,601.2,3,5,237.3,0.703
107.58,1,-0.03,-0.016,-0.023,0.002,-0.017,-0.017,-1.562,0.002,-1.309,105.61,100.5,40.497181,-3.381048,601.2,3,5,237.3,0.703
107.68,1,-0.026,-0.016,0.01,-0.011,-0.019,-0.003,-1.563,0.003,-1.308,105.61,100.5,40.497181,-3.381048,601.2,3,5,237.3,0.703
107.79,1,-0.027,0.015,-0.011,-0.025,-0.001,-0.005,-1.563,0.002,-1.308,105.61,100.5,40.497181,-3.381048,601.2,3,5,237.3,0.703
107.88,1,-0.003,0.012,-0.023,-0.012,0.009,-0.011,-1.561,0.003,-1.307,106.63,101.8,40.497044,-3.381331,601.0,3,5,237.0,1.055
107.99,1,-0.044,-0.012,-0.019,-0.024,0.004,-0.02,-1.56,0.004,-1.306,106.63,101.8,40.497044,-3.381331,601.0,3,5,237.0,1.055
108.08,1,-0.045,-0.024,-0.015,-0.029,-0.013,-0.016,-1.56,0.006,-1.306,106.63,101.8,40.497044,-3.381331,601.0,3,5,237.0,1.055
108.19,1,-0.072,-0.038,-0.039,-0.07,-0.02,-0.033,-1.56,0.005,-1.305,106.63,101.8,40.497044,-3.381331,601.0,3,5,237.0,1.055
108.29,1,0.011,-0.012,-0.022,-0.026,-0.031,-0.02,-1.563,-0.0,-1.304,106.63,101.8,40.497044,-3.381331,601.0,3,5,237.0,1.055
108.39,1,0.111,0.006,0.005,0.039,0.006,-0.019,-1.558,-0.006,-1.304,106.63,101.8,40.497044,-3.381331,601.0,3,5,237.0,1.055
108.49,1,0.017,-0.066,-0.062,0.052,-0.036,-0.028,-1.557,-0.005,-1.303,106.63,101.8,40.497044,-3.381331,601.0,3,5,237.0,1.055
108.58,1,-0.11,-0.044,0.013,-0.026,-0.049,-0.01,-1.559,-0.007,-1.302,106.63,101.8,40.497044,-3.381331,601.0,3,5,237.0,1.055
108.68,1,-0.063,-0.006,0.01,-0.055,-0.025,-0.006,-1.559,-0.008,-1.301,106.63,101.8,40.497044,-3.381331,601.0,3,5,237.0,1.055
108.78,1,-0.064,-0.015,-0.018,-0.065,-0.017,-0.015,-1.559,-0.006,-1.3,106.63,101.8,40.497044,-3.381331,601.0,3,5,237.0,1.055
108.89,1,-0.016,-0.059,-0.01,-0.039,-0.037,-0.022,-1.56,-0.003,-1.298,107.73,102.1,40.496906,-3.381614,600.8,3,5,237.0,0.352
108.99,1,0.0,-0.057,-0.027,-0.028,-0.048,-0.014,-1.56,-0.003,-1.296,107.73,102.1,40.496906,-3.381614,600.8,3,5,237.0,0.352
109.09,1,0.024,-0.073,-0.043,0.007,-0.07,-0.019,-1.56,-0.003,-1.294,107.73,102.1,40.496906,-3.381614,600.8,3,5,237.0,0.352
109.19,1,0.006,-0.061,0.007,0.006,-0.062,-0.01,-1.56,-0.003,-1.292,107.73,102.1,40.496906,-3.381614,600.8,3,5,237.0,0.352
109.29,1,-0.026,-0.089,0.04,-0.003,-0.064,0.012,-1.56,-0.003,-1.289,107.73,102.1,40.496906,-3.381614,600.8,3,5,237.0,0.352
109.39,1,-0.033,-0.094,-0.065,-0.026,-0.087,-0.004,-1.56,-0.004,-1.287,107.73,102.1,40.496906,-3.381614,600.8,3,5,237.0,0.352
109.49,1,-0.041,-0.066,-0.014,-0.033,-0.082,-0.012,-1.56,-0.006,-1.284,107.73,102.1,40.496906,-3.381614,600.8,3,5,237.0,0.352
109.6,1,-0.003,-0.061,-0.006,-0.022,-0.069,-0.028,-1.56,-0.005,-1.281,107.73,102.1,40.496906,-3.381614,600.8,3,5,237.0,0.352
109.7,1,0.008,-0.054,-0.03,-0.005,-0.057,-0.026,-1.559,-0.003,-1.279,107.73,102.1,40.496906,-3.381614,600.8,3,5,237.0,0.352
109.79,1,0.018,-0.054,-0.032,0.012,-0.057,-0.03,-1.559,-0.001,-1.277,107.73,102.1,40.496906,-3.381614,600.8,3,5,237.0,0.352
109.89,1,-0.036,-0.058,-0.038,-0.011,-0.061,-0.032,-1.56,-0.001,-1.275,108.62,101.0,40.496769,-3.381893,600.7,3,5,237.0,0.0
109.99,1,-0.024,-0.048,0.001,-0.015,-0.054,-0.017,-1.569,0.003,-1.274,108.62,101.0,40.496769,-3.381893,600.7,3,5,237.0,0.0
110.09,1,-0.01,-0.023,-0.039,-0.028,-0.034,-0.027,-1.57,0.005,-1.274,108.62,101.0,40.496769,-3.381893,600.7,3,5,237.0,0.0
110.19,1,-0.034,-0.011,-0.049,-0.026,-0.026,-0.039,-1.567,0.008,-1.273,108.62,101.0,40.496769,-3.381893,600.7,3,5,237.0,0.0
110.29,1,0.013,-0.014,-0.032,-0.006,-0.021,-0.036,-1.562,0.01,-1.272,108.62,101.0,40.496769,-3.381893,600.7,3,5,237.0,0.0
110.39,1,-0.025,0.007,-0.018,-0.002,-0.008,-0.03,-1.56,0.01,-1.272,108.62,101.0,40.496769,-3.381893,600.7,3,5,237.0,0.0
110.49,1,0.026,-0.002,-0.025,-0.006,0.001,-0.027,-1.561,0.009,-1.271,108.62,101.0,40.496769,-3.381893,600.7,3,5,237.0,0.0
110.59,1,0.045,0.009,-0.015,0.03,-0.0,-0.019,-1.56,0.007,-1.271,108.62,101.0,40.496769,-3.381893,600.7,3,5,237.0,0.0
110.69,1,0.025,-0.032,-0.019,0.021,-0.006,-0.023,-1.556,0.01,-1.271,108.62,101.0,40.496769,-3.381893,600.7,3,5,237.0,0.0
110.8,1,-0.045,0.016,-0.025,0.002,-0.009,-0.019,-1.557,0.013,-1.271,108.62,101.0,40.496769,-3.381893,600.7,3,5,237.0,0.0
110.89,1,-0.014,0.015,-0.004,-0.009,0.008,-0.011,-1.557,0.014,-1.271,109.61,101.2,40.496635,-3.382165,600.8,3,5,236.2,0.703
110.99,1,-0.033,0.021,-0.004,-0.021,0.018,-0.007,-1.554,0.01,-1.271,109.61,101.2,40.496635,-3.382165,600.8,3,5,236.2,0.703
111.09,1,0.011,-0.0,-0.01,-0.014,0.008,-0.009,-1.551,0.01,-1.271,109.61,101.2,40.496635,-3.382165,600.8,3,5,236.2,0.703
111.2,1,-0.041,0.013,0.007,-0.028,0.013,-0.003,-1.55,0.011,-1.271,109.61,101.2,40.496635,-3.382165,600.8,3,5,236.2,0.703
111.3,1,0.061,-0.017,0.005,0.016,-0.005,0.0,-1.551,0.009,-1.271,109.61,101.2,40.496635,-3.382165,600.8,3,5,236.2,0.703
111.4,1,-0.002,0.011,0.001,0.015,0.002,0.005,-1.551,0.005,-1.271,109.61,101.2,40.496635,-3.382165,600.8,3,5,236.2,0.703
111.49,1,-0.006,0.018,0.002,0.0,0.009,0.002,-1.552,0.004,-1.271,109.61,101.2,40.496635,-3.382165,600.8,3,5,236.2,0.703
111.59,1,-0.044,0.02,-0.002,-0.008,0.013,0.001,-1.554,0.003,-1.271,109.61,101.2,40.496635,-3.382165,600.8,3,5,236.2,0.703
111.69,1,-0.057,0.005,-0.018,-0.058,0.019,-0.013,-1.556,0.002,-1.272,109.61,101.2,40.496635,-3.382165,600.8,3,5,236.2,0.703
111.79,1,-0.03,-0.029,-0.005,-0.034,-0.01,-0.005,-1.557,0.002,-1.272,109.61,101.2,40.496635,-3.382165,600.8,3,5,236.2,0.703
111.89,1,-0.021,-0.015,-0.023,-0.033,-0.012,-0.014,-1.557,0.002,-1.272,110.64,99.8,40.49651,-3.382432,600.7,3,5,235.5,1.406
112.0,1,0.005,-0.012,-0.013,-0.011,-0.014,-0.019,-1.558,0.0,-1.273,110.64,99.8,40.49651,-3.382432,600.7,3,5,235.5,1.406
112.09,1,0.02,-0.021,-0.008,0.006,-0.017,-0.007,-1.557,0.001,-1.273,110.64,99.8,40.49651,-3.382432,600.7,3,5,235.5,1.406
112.19,1,-0.006,-0.008,-0.028,0.004,-0.014,-0.02,-1.556,-0.001,-1.272,110.64,99.8,40.49651,-3.382432,600.7,3,5,235.5,1.406
112.3,1,-0.037,-0.016,-0.02,-0.013,-0.013,-0.017,-1.556,0.002,-1.272,110.64,99.8,40.49651,-3.382432,600.7,3,5,235.5,1.406
112.39,1,-0.061,-0.031,-0.003,-0.041,-0.021,-0.017,-1.556,0.005,-1.271,110.64,99.8,40.49651,-3.382432,600.7,3,5,235.5,1.406
112.49,1,-0.05,-0.053,-0.025,-0.052,-0.033,-0.02,-1.556,0.008,-1.269,110.64,99.8,40.49651,-3.382432,600.7,3,5,235.5,1.406
112.6,1,0.021,-0.041,-0.012,-0.017,-0.043,-0.011,-1.557,0.012,-1.267,110.64,99.8,40.49651,-3.382432,600.7,3,5,235.5,1.406
112.9,1,-0.132,0.013,-0.041,-0.032,-0.025,-0.02,-1.558,0.02,-1.263,110.64,99.8,40.49651,-3.382432,600.7,3,5,235.5,1.406
113.0,1,-0.003,-0.006,0.0,-0.059,-0.004,-0.016,-1.56,0.022,-1.263,110.64,99.8,40.49651,-3.382432,600.7,3,5,235.5,1.406
113.1,1,-0.018,0.004,-0.029,-0.026,-0.002,-0.017,-1.559,0.025,-1.262,111.61,99.6,40.496365,-3.382701,600.9,3,5,234.8,1.406
113.2,1,-0.026,0.006,-0.025,-0.013,-0.005,-0.023,-1.56,0.023,-1.261,111.61,99.6,40.496365,-3.382701,600.9,3,5,234.8,1.406
113.3,1,0.015,0.01,-0.006,-0.012,0.007,-0.017,-1.559,0.022,-1.261,111.61,99.6,40.496365,-3.382701,600.9,3,5,234.8,1.406
113.4,1,-0.01,0.017,-0.018,-0.006,0.012,-0.017,-1.559,0.021,-1.26,111.61,99.6,40.496365,-3.382701,600.9,3,5,234.8,1.406
113.5,1,-0.02,0.023,-0.007,-0.006,0.018,-0.011,-1.557,0.018,-1.261,111.61,99.6,40.496365,-3.382701,600.9,3,5,234.8,1.406
113.6,1,0.005,0.022,0.004,-0.007,0.019,-0.006,-1.558,0.016,-1.261,111.61,99.6,40.496365,-3.382701,600.9,3,5,234.8,1.406
113.7,1,0.008,-0.002,-0.011,-0.001,0.012,-0.005,-1.557,0.013,-1.262,111.61,99.6,40.496365,-3.382701,600.9,3,5,234.8,1.406
113.8,1,-0.063,0.034,-0.016,-0.023,0.017,-0.008,-1.557,0.011,-1.262,111.61,99.6,40.496365,-3.382701,600.9,3,5,234.8,1.406
113.9,1,-0.002,-0.0,-0.003,-0.021,0.011,-0.01,-1.558,0.008,-1.263,111.61,99.6,40.496365,-3.382701,600.9,3,5,234.8,1.406
114.0,1,-0.002,0.029,-0.011,-0.01,0.018,-0.006,-1.557,0.005,-1.264,111.61,99.6,40.496365,-3.382701,600.9,3,5,234.8,1.406
114.1,1,0.022,0.048,-0.011,0.003,0.034,-0.012,-1.556,-0.002,-1.265,112.68,99.2,40.496227,-3.382949,600.9,3,5,235.2,0.352
114.2,1,0.009,0.04,-0.011,0.011,0.039,-0.01,-1.556,-0.006,-1.267,112.68,99.2,40.496227,-3.382949,600.9,3,5,235.2,0.352
114.3,1,0.007,0.036,-0.002,0.008,0.039,-0.009,-1.554,-0.008,-1.268,112.68,99.2,40.496227,-3.382949,600.9,3,5,235.2,0.352
114.41,1,-0.024,0.045,0.006,-0.009,0.04,-0.002,-1.553,-0.011,-1.27,112.68,99.2,40.496227,-3.382949,600.9,3,5,235.2,0.352
114.5,1,-0.006,0.037,-0.01,-0.003,0.039,-0.004,-1.553,-0.013,-1.271,112.68,99.2,40.496227,-3.382949,600.9,3,5,235.2,0.352
114.6,1,-0.014,0.02,0.005,-0.015,0.031,-0.002,-1.552,-0.017,-1.273,112.68,99.2,40.496227,-3.382949,600.9,3,5,235.2,0.352
114.7,1,-0.003,0.042,0.006,-0.004,0.03,0.006,-1.552,-0.018,-1.274,112.68,99.2,40.496227,-3.382949,600.9,3,5,235.2,0.352
114.8,1,0.009,0.031,0.018,-0.001,0.033,0.008,-1.552,-0.018,-1.276,112.68,99.2,40.496227,-3.382949,600.9,3,5,235.2,0.352
114.91,1,0.001,0.038,0.007,0.004,0.033,0.009,-1.553,-0.022,-1.277,112.68,99.2,40.496227,-3.382949,600.9,3,5,235.2,0.352
115.0,1,-0.025,0.022,0.013,-0.015,0.035,0.014,-1.554,-0.022,-1.279,112.68,99.2,40.496227,-3.382949,600.9,3,5,235.2,0.352
115.1,1,-0.05,0.01,-0.003,-0.025,0.018,0.007,-1.555,-0.021,-1.28,113.6,98.7,40.496082,-3.383216,600.7,3,5,234.5,0.703
115.22,1,-0.001,-0.006,-0.015,-0.023,0.006,-0.009,-1.555,-0.023,-1.282,113.6,98.7,40.496082,-3.383216,600.7,3,5,234.5,0.703
115.3,1,-0.005,-0.002,-0.035,-0.015,0.001,-0.017,-1.553,-0.022,-1.283,113.6,98.7,40.496082,-3.383216,600.7,3,5,234.5,0.703
115.4,1,0.024,0.015,0.012,0.007,0.006,-0.007,-1.554,-0.021,-1.285,113.6,98.7,40.496082,-3.383216,600.7,3,5,234.5,0.703
115.5,1,-0.005,0.023,-0.051,0.007,0.017,-0.027,-1.555,-0.019,-1.286,113.6,98.7,40.496082,-3.383216,600.7,3,5,234.5,0.703
115.6,1,0.008,0.003,-0.015,0.009,0.008,-0.022,-1.558,-0.017,-1.287,113.6,98.7,40.496082,-3.383216,600.7,3,5,234.5,0.703
115.7,1,-0.05,0.001,-0.002,-0.02,0.007,-0.012,-1.558,-0.015,-1.287,113.6,98.7,40.496082,-3.383216,600.7,3,5,234.5,0.703
115.81,1,-0.011,-0.027,-0.013,-0.026,-0.007,-0.011,-1.559,-0.014,-1.288,113.6,98.7,40.496082,-3.383216,600.7,3,5,234.5,0.703
115.91,1,-0.005,-0.016,0.002,-0.009,-0.017,-0.009,-1.556,-0.01,-1.288,113.6,98.7,40.496082,-3.383216,600.7,3,5,234.5,0.703
116.0,1,-0.026,0.004,-0.007,-0.019,-0.006,-0.002,-1.556,-0.009,-1.288,113.6,98.7,40.496082,-3.383216,600.7,3,5,234.5,0.703
116.1,1,-0.007,-0.034,-0.02,-0.018,-0.014,-0.01,-1.555,-0.006,-1.288,114.68,98.7,40.495941,-3.383473,600.2,3,5,234.1,1.055
116.2,1,-0.061,0.01,-0.017,-0.03,-0.009,-0.017,-1.553,-0.002,-1.288,114.68,98.7,40.495941,-3.383473,600.2,3,5,234.1,1.055
116.3,1,0.016,-0.004,0.044,-0.027,-0.007,0.004,-1.557,-0.0,-1.288,114.68,98.7,40.495941,-3.383473,600.2,3,5,234.1,1.055
116.4,1,0.015,-0.03,0.009,0.01,-0.015,0.02,-1.557,0.001,-1.288,114.68,98.7,40.495941,-3.383473,600.2,3,5,234.1,1.055
116.51,1,-0.006,-0.036,-0.018,-0.004,-0.022,0.005,-1.554,0.004,-1.287,114.68,98.7,40.495941,-3.383473,600.2,3,5,234.1,1.055
116.61,1,-0.001,-0.044,-0.005,0.009,-0.036,-0.009,-1.554,0.007,-1.286,114.68,98.7,40.495941,-3.383473,600.2,3,5,234.1,1.055
116.71,1,-0.039,-0.046,-0.013,-0.022,-0.039,-0.013,-1.553,0.01,-1.284,114.68,98.7,40.495941,-3.383473,600.2,3,5,234.1,1.055
116.81,1,0.006,-0.063,0.02,-0.007,-0.054,0.005,-1.554,0.016,-1.283,114.68,98.7,40.495941,-3.383473,600.2,3,5,234.1,1.055
116.91,1,-0.11,-0.035,-0.017,-0.05,-0.051,0.001,-1.554,0.017,-1.281,114.68,98.7,40.495941,-3.383473,600.2,3,5,234.1,1.055
117.01,1,0.011,-0.06,0.011,-0.032,-0.052,-0.001,-1.552,0.014,-1.279,114.68,98.7,40.495941,-3.383473,600.2,3,5,234.1,1.055
117.12,1,-0.019,-0.045,0.002,-0.028,-0.046,0.002,-1.552,0.014,-1.278,115.65,97.6,40.495792,-3.383739,600.0,3,5,234.8,0.703
117.21,1,-0.003,-0.03,0.005,-0.009,-0.042,0.002,-1.551,0.019,-1.276,115.65,97.6,40.495792,-3.383739,600.0,3,5,234.8,0.703
117.31,1,0.007,-0.036,0.016,0.001,-0.036,0.006,-1.552,0.024,-1.274,115.65,97.6,40.495792,-3.383739,600.0,3,5,234.8,0.703
117.41,1,-0.021,-0.019,0.008,-0.009,-0.028,0.009,-1.552,0.025,-1.273,115.65,97.6,40.495792,-3.383739,600.0,3,5,234.8,0.703
117.52,1,-0.001,-0.004,0.005,-0.014,-0.018,0.011,-1.553,0.027,-1.272,115.65,97.6,40.495792,-3.383739,600.0,3,5,234.8,0.703
117.61,1,0.029,-0.001,0.008,0.008,-0.006,0.006,-1.554,0.027,-1.272,115.65,97.6,40.495792,-3.383739,600.0,3,5,234.8,0.703
117.71,1,-0.004,-0.009,0.0,0.014,-0.009,0.002,-1.556,0.024,-1.271,115.65,97.6,40.495792,-3.383739,600.0,3,5,234.8,0.703
117.81,1,-0.02,-0.017,-0.007,-0.008,-0.014,0.004,-1.557,0.023,-1.271,115.65,97.6,40.495792,-3.383739,600.0,3,5,234.8,0.703
117.91,1,-0.011,-0.003,0.037,-0.009,-0.008,0.016,-1.557,0.025,-1.27,115.65,97.6,40.495792,-3.383739,600.0,3,5,234.8,0.703
118.01,1,0.004,-0.02,-0.01,-0.012,-0.011,0.009,-1.557,0.026,-1.268,115.65,97.6,40.495792,-3.383739,600.0,3,5,234.8,0.703
118.11,1,0.014,-0.043,-0.015,0.003,-0.03,-0.002,-1.557,0.025,-1.267,116.64,97.8,40.495651,-3.384004,600.6,3,5,235.2,1.055
118.21,1,-0.044,0.002,0.03,-0.006,-0.013,-0.002,-1.557,0.025,-1.266,116.64,97.8,40.495651,-3.384004,600.6,3,5,235.2,1.055
118.32,1,-0.011,-0.013,-0.004,-0.021,-0.012,0.007,-1.558,0.025,-1.265,116.64,97.8,40.495651,-3.384004,600.6,3,5,235.2,1.055
118.41,1,0.013,0.001,-0.002,-0.006,-0.008,0.008,-1.558,0.025,-1.264,116.64,97.8,40.495651,-3.384004,600.6,3,5,235.2,1.055
118.51,1,0.001,-0.022,-0.033,0.005,-0.011,-0.006,-1.557,0.025,-1.262,116.64,97.8,40.495651,-3.384004,600.6,3,5,235.2,1.055
118.61,1,-0.013,-0.047,0.038,0.002,-0.03,-0.006,-1.558,0.026,-1.26,116.64,97.8,40.495651,-3.384004,600.6,3,5,235.2,1.055
118.72,1,-0.024,-0.02,-0.004,-0.027,-0.028,-0.002,-1.558,0.026,-1.258,116.64,97.8,40.495651,-3.384004,600.6,3,5,235.2,1.055
118.81,1,-0.07,-0.009,-0.025,-0.028,-0.022,-0.009,-1.559,0.026,-1.256,116.64,97.8,40.495651,-3.384004,600.6,3,5,235.2,1.055
118.92,1,-0.031,-0.041,0.008,-0.044,-0.026,0.004,-1.561,0.026,-1.254,116.64,97.8,40.495651,-3.384004,600.6,3,5,235.2,1.055
119.02,1,0.03,-0.016,0.03,-0.017,-0.025,0.023,-1.56,0.024,-1.253,116.64,97.8,40.495651,-3.384004,600.6,3,5,235.2,1.055
119.11,1,0.027,0.018,0.002,0.017,-0.01,0.012,-1.56,0.022,-1.252,117.66,98.4,40.495506,-3.384275,601.3,3,5,234.5,0.703
119.22,1,-0.015,0.003,0.012,0.005,0.008,0.005,-1.559,0.021,-1.252,117.66,98.4,40.495506,-3.384275,601.3,3,5,234.5,0.703
119.32,1,0.016,0.009,0.004,0.01,0.009,0.007,-1.559,0.021,-1.252,117.66,98.4,40.495506,-3.384275,601.3,3,5,234.5,0.703
119.41,1,-0.033,0.007,-0.003,-0.012,0.01,-0.005,-1.559,0.022,-1.251,117.66,98.4,40.495506,-3.384275,601.3,3,5,234.5,0.703
119.51,1,-0.036,0.013,0.005,-0.029,0.008,0.006,-1.56,0.023,-1.251,117.66,98.4,40.495506,-3.384275,601.3,3,5,234.5,0.703
119.61,1,-0.018,0.001,0.006,-0.024,0.006,0.003,-1.561,0.027,-1.25,117.66,98.4,40.495506,-3.384275,601.3,3,5,234.5,0.703
119.71,1,-0.02,0.018,-0.012,-0.02,0.01,-0.003,-1.564,0.028,-1.25,117.66,98.4,40.495506,-3.384275,601.3,3,5,234.5,0.703
119.81,1,0.037,0.02,-0.004,0.002,0.016,-0.002,-1.568,0.031,-1.25,117.66,98.4,40.495506,-3.384275,601.3,3,5,234.5,0.703
119.91,1,-0.02,0.037,-0.014,0.006,0.024,-0.013,-1.568,0.028,-1.251,117.66,98.4,40.495506,-3.384275,601.3,3,5,234.5,0.703
120.01,1,0.014,0.02,-0.011,-0.002,0.026,-0.01,-1.568,0.025,-1.25,117.66,98.4,40.495506,-3.384275,601.3,3,5,234.5,0.703
120.13,1,-0.039,0.04,-0.015,-0.015,0.032,-0.012,-1.567,0.026,-1.25,118.62,96.3,40.495369,-3.38453,601.4,3,5,231.7,3.516
120.23,1,0.002,-0.016,0.005,-0.014,0.009,-0.003,-1.567,0.029,-1.25,118.62,96.3,40.495369,-3.38453,601.4,3,5,231.7,3.516
120.32,1,-0.025,0.0,-0.019,-0.01,-0.001,-0.012,-1.569,0.024,-1.25,118.62,96.3,40.495369,-3.38453,601.4,3,5,231.7,3.516
120.42,1,0.025,-0.007,0.001,-0.003,-0.001,-0.005,-1.567,0.018,-1.25,118.62,96.3,40.495369,-3.38453,601.4,3,5,231.7,3.516
120.52,1,0.001,0.004,0.013,-0.003,0.002,0.001,-1.568,0.013,-1.25,118.62,96.3,40.495369,-3.38453,601.4,3,5,231.7,3.516
120.63,1,0.089,-0.027,0.014,0.035,-0.012,0.02,-1.567,0.015,-1.249,118.62,96.3,40.495369,-3.38453,601.4,3,5,231.7,3.516
120.72,1,0.03,-0.01,-0.016,0.063,-0.015,-0.004,-1.565,0.016,-1.249,118.62,96.3,40.495369,-3.38453,601.4,3,5,231.7,3.516
120.82,1,0.005,-0.007,0.007,0.027,-0.013,-0.006,-1.566,0.015,-1.248,118.62,96.3,40.495369,-3.38453,601.4,3,5,231.7,3.516
120.92,1,-0.03,-0.013,0.032,0.004,-0.01,0.015,-1.566,0.016,-1.248,118.62,96.3,40.495369,-3.38453,601.4,3,5,231.7,3.516
121.02,1,-0.074,0.016,-0.016,-0.046,0.005,0.007,-1.568,0.014,-1.248,118.62,96.3,40.495369,-3.38453,601.4,3,5,231.7,3.516
121.12,1,-0.006,0.012,-0.013,-0.031,0.007,-0.005,-1.568,0.011,-1.248,119.62,97.1,40.49522,-3.384782,601.9,3,5,232.7,1.758
121.22,1,-0.025,0.004,-0.006,-0.026,0.006,-0.01,-1.566,0.011,-1.248,119.62,97.1,40.49522,-3.384782,601.9,3,5,232.7,1.758
121.32,1,-0.006,0.019,-0.018,-0.016,0.014,-0.008,-1.566,0.009,-1.247,119.62,97.1,40.49522,-3.384782,601.9,3,5,232.7,1.758
121.43,1,-0.015,0.011,0.003,-0.011,0.011,-0.007,-1.563,0.01,-1.247,119.62,97.1,40.49522,-3.384782,601.9,3,5,232.7,1.758
121.52,1,-0.012,0.0,0.012,-0.014,0.006,-0.003,-1.563,0.011,-1.247,119.62,97.1,40.49522,-3.384782,601.9,3,5,232.7,1.758
121.62,1,-0.001,0.036,-0.003,-0.011,0.019,0.006,-1.561,0.011,-1.247,119.62,97.1,40.49522,-3.384782,601.9,3,5,232.7,1.758
121.72,1,0.016,-0.001,0.013,0.01,0.013,0.009,-1.563,0.012,-1.247,119.62,97.1,40.49522,-3.384782,601.9,3,5,232.7,1.758
121.82,1,0.003,-0.015,0.013,0.007,-0.001,0.007,-1.562,0.016,-1.247,119.62,97.1,40.49522,-3.384782,601.9,3,5,232.7,1.758
121.92,1,-0.016,0.035,-0.02,-0.014,0.012,-0.003,-1.565,0.017,-1.247,119.62,97.1,40.49522,-3.384782,601.9,3,5,232.7,1.758
122.03,1,-0.049,0.029,0.014,-0.024,0.022,0.003,-1.568,0.013,-1.247,119.62,97.1,40.49522,-3.384782,601.9,3,5,232.7,1.758
122.13,1,-0.011,0.033,0.026,-0.028,0.028,0.013,-1.568,0.011,-1.248,120.62,96.8,40.495075,-3.385031,601.2,3,5,232.4,0.703
122.22,1,0.037,0.019,0.021,0.005,0.026,0.021,-1.569,0.008,-1.249,120.62,96.8,40.495075,-3.385031,601.2,3,5,232.4,0.703
122.32,1,-0.006,0.01,0.009,0.013,0.017,0.014,-1.567,0.01,-1.249,120.62,96.8,40.495075,-3.385031,601.2,3,5,232.4,0.703
122.42,1,0.001,0.024,0.004,0.009,0.017,0.009,-1.569,0.008,-1.25,120.62,96.8,40.495075,-3.385031,601.2,3,5,232.4,0.703
122.53,1,-0.038,0.031,-0.004,-0.023,0.026,0.004,-1.569,0.005,-1.251,120.62,96.8,40.495075,-3.385031,601.2,3,5,232.4,0.703
122.62,1,-0.023,0.008,-0.015,-0.024,0.021,-0.009,-1.569,0.003,-1.252,120.62,96.8,40.495075,-3.385031,601.2,3,5,232.4,0.703
122.83,1,0.018,0.013,0.02,-0.002,0.013,0.003,-1.572,0.002,-1.252,120.62,96.8,40.495075,-3.385031,601.2,3,5,232.4,0.703
122.92,1,-0.013,-0.032,-0.012,-0.0,-0.005,0.004,-1.573,0.002,-1.251,120.62,96.8,40.495075,-3.385031,601.2,3,5,232.4,0.703
123.02,1,0.003,-0.046,0.011,-0.007,-0.026,0.0,-1.573,0.003,-1.25,120.62,96.8,40.495075,-3.385031,601.2,3,5,232.4,0.703
123.12,1,-0.056,-0.028,-0.007,-0.026,-0.033,-0.002,-1.573,0.003,-1.249,120.62,96.8,40.495075,-3.385031,601.2,3,5,232.4,0.703
123.22,1,-0.034,-0.051,0.0,-0.032,-0.037,-0.004,-1.569,0.007,-1.248,121.62,97.3,40.494926,-3.385282,601.0,3,5,232.0,0.703
123.33,1,-0.009,-0.057,0.005,-0.026,-0.05,0.004,-1.569,0.011,-1.246,121.62,97.3,40.494926,-3.385282,601.0,3,5,232.0,0.703
123.42,1,0.027,-0.039,-0.011,0.004,-0.048,0.0,-1.57,0.015,-1.244,121.62,97.3,40.494926,-3.385282,601.0,3,5,232.0,0.703
123.52,1,-0.001,-0.043,-0.009,0.005,-0.041,-0.007,-1.57,0.016,-1.242,121.62,97.3,40.494926,-3.385282,601.0,3,5,232.0,0.703
123.62,1,-0.032,-0.018,0.014,-0.006,-0.036,0.002,-1.57,0.021,-1.241,121.62,97.3,40.494926,-3.385282,601.0,3,5,232.0,0.703
123.73,1,-0.04,-0.032,-0.009,-0.03,-0.028,-0.002,-1.569,0.024,-1.239,121.62,97.3,40.494926,-3.385282,601.0,3,5,232.0,0.703
123.83,1,-0.008,-0.03,-0.02,-0.028,-0.03,-0.01,-1.57,0.026,-1.238,121.62,97.3,40.494926,-3.385282,601.0,3,5,232.0,0.703
123.93,1,-0.027,-0.017,-0.011,-0.016,-0.028,-0.012,-1.569,0.029,-1.236,121.62,97.3,40.494926,-3.385282,601.0,3,5,232.0,0.703
124.02,1,-0.001,-0.006,0.016,-0.017,-0.017,-0.002,-1.566,0.03,-1.235,121.62,97.3,40.494926,-3.385282,601.0,3,5,232.0,0.703
124.12,1,-0.016,0.011,-0.009,-0.006,-0.002,0.002,-1.566,0.03,-1.234,121.62,97.3,40.494926,-3.385282,601.0,3,5,232.0,0.703
124.22,1,-0.027,-0.019,-0.005,-0.023,-0.005,-0.005,-1.568,0.03,-1.234,122.62,98.5,40.494789,-3.385527,600.9,3,5,231.7,0.703
124.33,1,-0.044,0.012,-0.001,-0.03,-0.005,-0.003,-1.57,0.03,-1.234,122.62,98.5,40.494789,-3.385527,600.9,3,5,231.7,0.703
124.43,1,-0.02,0.027,0.012,-0.029,0.017,0.002,-1.57,0.027,-1.234,122.62,98.5,40.494789,-3.385527,600.9,3,5,231.7,0.703
124.54,1,-0.0,0.04,0.015,-0.016,0.028,0.008,-1.57,0.021,-1.234,122.62,98.5,40.494789,-3.385527,600.9,3,5,231.7,0.703
124.63,1,0.007,0.043,0.002,-0.003,0.034,0.012,-1.571,0.019,-1.235,122.62,98.5,40.494789,-3.385527,600.9,3,5,231.7,0.703
124.73,1,0.004,0.051,-0.004,0.001,0.043,0.001,-1.57,0.013,-1.235,122.62,98.5,40.494789,-3.385527,600.9,3,5,231.7,0.703
