Timestamp_Accel,SystemActivated,accelerometerXAxis,accelerometerYAxis,accelerometerZAxis,AccelX_KF,AccelY_KF,AccelZ_KF,gyroscopeXAxis,gyroscopeYAxis,gyroscopeZAxis,Timestamp_GPS,Speed,latitude,longitude,Altitude,VerticalAccuracy,HorizontalAccuracy,Course,Difcourse
15.04,1,-0.015,-0.003,-0.017,-0.021,0.0,-0.012,-1.564,0.013,-0.038,15.07,83.6,40.505932,-3.358523,604.2,3,5,276.0,0.352
15.14,1,-0.063,0.001,-0.015,-0.029,0.002,-0.012,-1.564,0.015,-0.037,15.07,83.6,40.505932,-3.358523,604.2,3,5,276.0,0.352
15.24,1,-0.035,-0.027,0.009,-0.048,-0.01,-0.008,-1.563,0.016,-0.036,15.07,83.6,40.505932,-3.358523,604.2,3,5,276.0,0.352
15.34,1,-0.046,-0.03,0.022,-0.044,-0.027,0.016,-1.564,0.016,-0.035,15.07,83.6,40.505932,-3.358523,604.2,3,5,276.0,0.352
15.44,1,-0.028,-0.006,0.017,-0.038,-0.016,0.01,-1.565,0.014,-0.034,15.07,83.6,40.505932,-3.358523,604.2,3,5,276.0,0.352
15.55,1,-0.017,-0.004,0.004,-0.022,-0.011,0.015,-1.567,0.011,-0.033,15.07,83.6,40.505932,-3.358523,604.2,3,5,276.0,0.352
15.64,1,-0.069,0.016,-0.021,-0.047,0.003,-0.01,-1.566,0.009,-0.032,15.07,83.6,40.505932,-3.358523,604.2,3,5,276.0,0.352
15.74,1,0.002,-0.032,0.016,-0.032,-0.007,0.002,-1.568,0.011,-0.03,15.07,83.6,40.505932,-3.358523,604.2,3,5,276.0,0.352
15.84,1,-0.013,0.001,-0.065,-0.013,-0.008,-0.02,-1.565,0.014,-0.029,15.07,83.6,40.505932,-3.358523,604.2,3,5,276.0,0.352
15.94,1,0.056,-0.02,-0.009,0.007,-0.016,-0.036,-1.555,0.013,-0.029,15.07,83.6,40.505932,-3.358523,604.2,3,5,276.0,0.352
16.04,1,0.003,-0.023,-0.045,0.026,-0.018,-0.02,-1.552,0.011,-0.027,15.98,83.6,40.505932,-3.358523,604.2,3,5,276.0,0.352
16.14,1,-0.042,-0.026,-0.029,-0.004,-0.017,-0.036,-1.551,0.01,-0.026,15.98,83.6,40.505932,-3.358523,604.2,3,5,276.0,0.352
16.25,1,-0.042,-0.016,-0.015,-0.029,-0.019,-0.023,-1.552,0.009,-0.024,15.98,83.6,40.505932,-3.358523,604.2,3,5,276.0,0.352
16.35,1,0.01,-0.007,-0.037,-0.019,-0.015,-0.031,-1.551,0.005,-0.023,15.98,83.6,40.505932,-3.358523,604.2,3,5,276.0,0.352
16.44,1,0.013,-0.03,-0.01,-0.004,-0.021,-0.023,-1.552,0.005,-0.021,15.98,83.6,40.505932,-3.358523,604.2,3,5,276.0,0.352
16.57,1,-0.022,-0.014,-0.061,0.002,-0.019,-0.033,-1.551,0.004,-0.019,15.98,83.6,40.505932,-3.358523,604.2,3,5,276.0,0.352
16.64,1,-0.071,-0.01,-0.018,-0.042,-0.013,-0.038,-1.553,0.002,-0.018,15.98,83.6,40.505932,-3.358523,604.2,3,5,276.0,0.352
16.75,1,-0.048,-0.025,0.004,-0.043,-0.022,-0.012,-1.556,0.001,-0.016,15.98,83.6,40.505932,-3.358523,604.2,3,5,276.0,0.352
16.85,1,-0.008,-0.015,-0.024,-0.037,-0.013,-0.013,-1.555,0.001,-0.015,15.98,83.6,40.505932,-3.358523,604.2,3,5,276.0,0.352
16.95,1,-0.037,-0.043,-0.032,-0.03,-0.022,-0.024,-1.555,0.006,-0.013,15.98,83.6,40.505932,-3.358523,604.2,3,5,276.0,0.352
17.05,1,-0.021,-0.034,-0.018,-0.027,-0.038,-0.019,-1.556,0.011,-0.011,17.02,85.1,40.505951,-3.358792,603.6,4,5,275.3,0.703
17.15,1,-0.001,-0.041,-0.031,-0.017,-0.041,-0.03,-1.554,0.015,-0.008,17.02,85.1,40.505951,-3.358792,603.6,4,5,275.3,0.703
17.25,1,0.041,-0.055,-0.021,0.013,-0.048,-0.023,-1.552,0.019,-0.006,17.02,85.1,40.505951,-3.358792,603.6,4,5,275.3,0.703
17.35,1,-0.006,0.004,-0.042,0.016,-0.029,-0.029,-1.549,0.021,-0.003,17.02,85.1,40.505951,-3.358792,603.6,4,5,275.3,0.703
17.46,1,0.023,-0.021,-0.041,0.009,-0.017,-0.043,-1.545,0.022,-0.0,17.02,85.1,40.505951,-3.358792,603.6,4,5,275.3,0.703
17.55,1,0.05,-0.02,-0.051,0.026,-0.019,-0.043,-1.539,0.024,0.002,17.02,85.1,40.505951,-3.358792,603.6,4,5,275.3,0.703
17.65,1,-0.034,-0.07,-0.02,0.003,-0.038,-0.039,-1.539,0.03,0.006,17.02,85.1,40.505951,-3.358792,603.6,4,5,275.3,0.703
17.75,1,-0.013,-0.036,-0.005,-0.003,-0.046,-0.014,-1.542,0.033,0.009,17.02,85.1,40.505951,-3.358792,603.6,4,5,275.3,0.703
17.85,1,-0.028,-0.043,-0.013,-0.014,-0.039,-0.011,-1.544,0.036,0.013,17.02,85.1,40.505951,-3.358792,603.6,4,5,275.3,0.703
17.95,1,0.04,-0.074,-0.033,0.008,-0.056,-0.023,-1.544,0.041,0.017,17.02,85.1,40.505951,-3.358792,603.6,4,5,275.3,0.703
18.05,1,-0.003,-0.038,-0.043,0.009,-0.053,-0.033,-1.543,0.046,0.021,17.99,85.5,40.50597,-3.359071,603.5,4,5,274.9,1.055
18.15,1,-0.026,-0.013,-0.007,-0.02,-0.034,-0.031,-1.545,0.046,0.025,17.99,85.5,40.50597,-3.359071,603.5,4,5,274.9,1.055
18.25,1,0.018,-0.033,-0.012,-0.004,-0.028,-0.012,-1.546,0.047,0.029,17.99,85.5,40.50597,-3.359071,603.5,4,5,274.9,1.055
18.35,1,0.01,-0.032,-0.003,0.015,-0.033,-0.008,-1.545,0.053,0.033,17.99,85.5,40.50597,-3.359071,603.5,4,5,274.9,1.055
18.45,1,-0.061,-0.03,-0.027,-0.015,-0.031,-0.015,-1.54,0.057,0.036,17.99,85.5,40.50597,-3.359071,603.5,4,5,274.9,1.055
18.56,1,0.002,-0.014,0.004,-0.022,-0.02,-0.015,-1.538,0.059,0.039,17.99,85.5,40.50597,-3.359071,603.5,4,5,274.9,1.055
18.65,1,-0.003,-0.01,-0.001,-0.008,-0.016,0.001,-1.537,0.057,0.042,17.99,85.5,40.50597,-3.359071,603.5,4,5,274.9,1.055
18.75,1,-0.013,-0.001,-0.011,-0.011,-0.006,-0.002,-1.539,0.057,0.045,17.99,85.5,40.50597,-3.359071,603.5,4,5,274.9,1.055
18.85,1,-0.022,-0.023,0.019,-0.023,-0.017,-0.002,-1.537,0.061,0.049,17.99,85.5,40.50597,-3.359071,603.5,4,5,274.9,1.055
18.95,1,0.076,-0.019,-0.013,0.025,-0.02,-0.0,-1.535,0.061,0.052,17.99,85.5,40.50597,-3.359071,603.5,4,5,274.9,1.055
19.05,1,-0.029,-0.006,-0.035,0.016,-0.01,-0.018,-1.531,0.062,0.054,19.04,85.8,40.505978,-3.359362,603.3,4,5,272.8,2.461
19.15,1,-0.031,-0.004,0.006,-0.019,-0.006,-0.008,-1.534,0.06,0.058,19.04,85.8,40.505978,-3.359362,603.3,4,5,272.8,2.461
19.25,1,-0.001,0.007,0.004,-0.016,-0.003,0.001,-1.535,0.06,0.061,19.04,85.8,40.505978,-3.359362,603.3,4,5,272.8,2.461
19.35,1,-0.031,-0.026,0.028,-0.014,-0.009,0.01,-1.54,0.061,0.064,19.04,85.8,40.505978,-3.359362,603.3,4,5,272.8,2.461
19.45,1,-0.008,0.0,-0.012,-0.009,-0.01,0.008,-1.54,0.064,0.067,19.04,85.8,40.505978,-3.359362,603.3,4,5,272.8,2.461
19.55,1,-0.018,0.013,-0.026,-0.014,-0.003,-0.016,-1.537,0.064,0.07,19.04,85.8,40.505978,-3.359362,603.3,4,5,272.8,2.461
19.65,1,-0.054,-0.02,-0.014,-0.03,0.0,-0.015,-1.536,0.062,0.073,19.04,85.8,40.505978,-3.359362,603.3,4,5,272.8,2.461
19.76,1,-0.065,-0.015,0.038,-0.066,-0.013,0.011,-1.539,0.059,0.076,19.04,85.8,40.505978,-3.359362,603.3,4,5,272.8,2.461
19.85,1,-0.024,0.024,-0.007,-0.036,-0.005,0.008,-1.539,0.057,0.078,19.04,85.8,40.505978,-3.359362,603.3,4,5,272.8,2.461
19.96,1,-0.096,-0.018,0.025,-0.06,0.004,0.005,-1.539,0.055,0.08,19.04,85.8,40.505978,-3.359362,603.3,4,5,272.8,2.461
20.05,1,-0.031,-0.0,0.046,-0.055,-0.004,0.034,-1.544,0.054,0.083,20.06,85.3,40.505985,-3.359627,603.4,4,5,270.7,4.219
20.15,1,-0.037,0.046,-0.014,-0.042,0.016,0.016,-1.544,0.05,0.085,20.06,85.3,40.505985,-3.359627,603.4,4,5,270.7,4.219
20.25,1,-0.03,0.026,0.018,-0.041,0.027,0.007,-1.544,0.049,0.086,20.06,85.3,40.505985,-3.359627,603.4,4,5,270.7,4.219
20.36,1,-0.011,0.007,0.002,-0.019,0.018,0.007,-1.542,0.047,0.087,20.06,85.3,40.505985,-3.359627,603.4,4,5,270.7,4.219
20.45,1,0.003,0.054,-0.017,0.004,0.033,0.0,-1.542,0.044,0.088,20.06,85.3,40.505985,-3.359627,603.4,4,5,270.7,4.219
20.56,1,-0.05,0.035,-0.008,-0.03,0.041,-0.014,-1.542,0.042,0.089,20.06,85.3,40.505985,-3.359627,603.4,4,5,270.7,4.219
20.66,1,-0.025,0.033,0.023,-0.036,0.028,0.005,-1.544,0.041,0.09,20.06,85.3,40.505985,-3.359627,603.4,4,5,270.7,4.219
20.76,1,-0.083,0.05,-0.003,-0.048,0.045,0.007,-1.545,0.036,0.091,20.06,85.3,40.505985,-3.359627,603.4,4,5,270.7,4.219
20.86,1,-0.058,-0.0,0.008,-0.066,0.031,0.005,-1.546,0.033,0.092,20.06,85.3,40.505985,-3.359627,603.4,4,5,270.7,4.219
20.97,1,-0.001,0.005,0.015,-0.04,0.011,0.009,-1.543,0.033,0.093,20.06,85.3,40.505985,-3.359627,603.4,4,5,270.7,4.219
21.06,1,-0.012,0.016,0.022,-0.011,0.012,0.014,-1.542,0.032,0.095,20.99,84.8,40.505993,-3.359898,603.2,4,5,269.6,3.164
21.17,1,-0.042,0.001,-0.012,-0.025,0.01,0.006,-1.54,0.033,0.097,20.99,84.8,40.505993,-3.359898,603.2,4,5,269.6,3.164
21.26,1,-0.018,-0.005,0.022,-0.032,-0.007,0.009,-1.54,0.033,0.099,20.99,84.8,40.505993,-3.359898,603.2,4,5,269.6,3.164
21.36,1,-0.028,0.023,-0.041,-0.022,0.012,-0.007,-1.538,0.033,0.1,20.99,84.8,40.505993,-3.359898,603.2,4,5,269.6,3.164
21.46,1,0.016,-0.009,0.031,-0.014,0.003,-0.003,-1.539,0.033,0.102,20.99,84.8,40.505993,-3.359898,603.2,4,5,269.6,3.164
21.56,1,-0.004,0.023,-0.021,-0.003,0.006,-0.0,-1.54,0.033,0.104,20.99,84.8,40.505993,-3.359898,603.2,4,5,269.6,3.164
21.66,1,-0.009,0.001,-0.002,-0.001,0.009,-0.012,-1.539,0.037,0.106,20.99,84.8,40.505993,-3.359898,603.2,4,5,269.6,3.164
21.76,1,0.034,-0.043,0.04,0.012,-0.01,0.022,-1.542,0.037,0.108,20.99,84.8,40.505993,-3.359898,603.2,4,5,269.6,3.164
21.86,1,0.006,-0.008,0.005,0.015,-0.018,0.017,-1.543,0.037,0.11,20.99,84.8,40.505993,-3.359898,603.2,4,5,269.6,3.164
21.96,1,-0.07,-0.011,-0.022,-0.021,-0.013,-0.005,-1.542,0.036,0.112,20.99,84.8,40.505993,-3.359898,603.2,4,5,269.6,3.164
22.06,1,-0.04,-0.011,-0.016,-0.035,-0.01,-0.009,-1.544,0.034,0.113,22.0,85.3,40.505989,-3.360186,603.2,4,5,268.9,1.758
22.16,1,-0.064,0.023,0.004,-0.062,0.004,-0.015,-1.545,0.034,0.115,22.0,85.3,40.505989,-3.360186,603.2,4,5,268.9,1.758
22.26,1,-0.031,-0.018,0.038,-0.047,0.002,0.015,-1.549,0.036,0.118,22.0,85.3,40.505989,-3.360186,603.2,4,5,268.9,1.758
22.37,1,-0.082,-0.011,0.009,-0.063,-0.01,0.016,-1.548,0.039,0.12,22.0,85.3,40.505989,-3.360186,603.2,4,5,268.9,1.758
22.46,1,0.053,-0.027,0.048,-0.017,-0.017,0.031,-1.55,0.038,0.123,22.0,85.3,40.505989,-3.360186,603.2,4,5,268.9,1.758
22.56,1,0.037,-0.002,-0.036,0.026,-0.018,0.01,-1.548,0.039,0.125,22.0,85.3,40.505989,-3.360186,603.2,4,5,268.9,1.758
22.66,1,-0.039,-0.012,-0.033,0.008,-0.008,-0.021,-1.546,0.043,0.127,22.0,85.3,40.505989,-3.360186,603.2,4,5,268.9,1.758
22.76,1,-0.031,0.007,-0.006,-0.022,-0.006,-0.015,-1.549,0.041,0.129,22.0,85.3,40.505989,-3.360186,603.2,4,5,268.9,1.758
22.87,1,-0.038,0.046,-0.026,-0.032,0.019,-0.015,-1.549,0.04,0.13,22.0,85.3,40.505989,-3.360186,603.2,4,5,268.9,1.758
22.97,1,-0.008,0.015,-0.029,-0.028,0.025,-0.027,-1.546,0.037,0.131,22.0,85.3,40.505989,-3.360186,603.2,4,5,268.9,1.758
23.07,1,0.015,0.04,-0.028,-0.002,0.026,-0.026,-1.545,0.036,0.132,22.99,85.6,40.505978,-3.360462,603.3,3,5,267.5,2.109
23.16,1,-0.014,0.021,-0.046,-0.001,0.029,-0.033,-1.542,0.033,0.133,22.99,85.6,40.505978,-3.360462,603.3,3,5,267.5,2.109
23.26,1,-0.0,0.013,-0.02,-0.006,0.022,-0.035,-1.539,0.03,0.134,22.99,85.6,40.505978,-3.360462,603.3,3,5,267.5,2.109
23.37,1,0.018,0.015,-0.034,0.004,0.019,-0.029,-1.536,0.031,0.135,22.99,85.6,40.505978,-3.360462,603.3,3,5,267.5,2.109
23.47,1,0.006,-0.014,-0.003,0.008,0.003,-0.022,-1.534,0.032,0.138,22.99,85.6,40.505978,-3.360462,603.3,3,5,267.5,2.109
23.56,1,0.023,-0.015,-0.018,0.005,-0.006,-0.011,-1.533,0.032,0.14,22.99,85.6,40.505978,-3.360462,603.3,3,5,267.5,2.109
23.67,1,0.021,-0.023,-0.046,0.022,-0.017,-0.024,-1.529,0.032,0.143,22.99,85.6,40.505978,-3.360462,603.3,3,5,267.5,2.109
23.77,1,-0.081,-0.057,-0.049,-0.014,-0.036,-0.045,-1.525,0.034,0.145,22.99,85.6,40.505978,-3.360462,603.3,3,5,267.5,2.109
23.86,1,0.026,0.007,0.006,-0.023,-0.02,-0.021,-1.527,0.031,0.147,22.99,85.6,40.505978,-3.360462,603.3,3,5,267.5,2.109
23.96,1,-0.013,0.01,-0.034,0.005,0.002,-0.022,-1.524,0.03,0.15,22.99,85.6,40.505978,-3.360462,603.3,3,5,267.5,2.109
24.17,1,0.017,0.031,0.002,-0.016,0.005,-0.002,-1.524,0.027,0.153,24.04,83.4,40.505951,-3.361004,604.3,3,5,265.4,2.812
24.27,1,0.025,0.046,-0.05,0.014,0.032,-0.023,-1.523,0.022,0.153,24.04,83.4,40.505951,-3.361004,604.3,3,5,265.4,2.812
24.37,1,0.028,0.022,-0.008,0.022,0.031,-0.029,-1.522,0.019,0.153,24.04,83.4,40.505951,-3.361004,604.3,3,5,265.4,2.812
24.47,1,0.005,0.024,0.052,0.017,0.021,0.013,-1.524,0.017,0.153,24.04,83.4,40.505951,-3.361004,604.3,3,5,265.4,2.812
24.57,1,-0.025,0.03,0.022,-0.005,0.03,0.031,-1.524,0.015,0.153,24.04,83.4,40.505951,-3.361004,604.3,3,5,265.4,2.812
24.67,1,-0.024,0.028,0.052,-0.02,0.03,0.031,-1.527,0.012,0.154,24.04,83.4,40.505951,-3.361004,604.3,3,5,265.4,2.812
24.77,1,0.008,0.009,0.041,-0.009,0.022,0.045,-1.533,0.011,0.155,24.04,83.4,40.505951,-3.361004,604.3,3,5,265.4,2.812
24.88,1,-0.013,0.015,-0.001,-0.006,0.014,0.023,-1.536,0.012,0.157,24.04,83.4,40.505951,-3.361004,604.3,3,5,265.4,2.812
24.97,1,0.017,-0.024,0.038,-0.001,-0.001,0.018,-1.538,0.016,0.159,24.04,83.4,40.505951,-3.361004,604.3,3,5,265.4,2.812
25.07,1,0.009,-0.021,0.034,0.009,-0.014,0.035,-1.537,0.018,0.161,24.04,83.4,40.505951,-3.361004,604.3,3,5,265.4,2.812
25.17,1,0.001,-0.003,-0.003,0.008,-0.01,0.014,-1.535,0.023,0.164,24.99,83.4,40.505951,-3.361004,604.3,3,5,265.4,2.109
25.27,1,-0.016,0.01,0.04,-0.001,-0.003,0.024,-1.538,0.026,0.166,24.99,83.4,40.505951,-3.361004,604.3,3,5,265.4,2.109
25.38,1,-0.025,-0.018,-0.013,-0.011,-0.004,0.015,-1.54,0.027,0.168,24.99,83.4,40.505951,-3.361004,604.3,3,5,265.4,2.109
25.48,1,-0.014,0.026,-0.01,-0.009,0.007,-0.004,-1.544,0.026,0.169,24.99,83.4,40.505951,-3.361004,604.3,3,5,265.4,2.109
25.58,1,-0.116,0.03,0.009,-0.069,0.021,0.001,-1.549,0.025,0.171,24.99,83.4,40.505951,-3.361004,604.3,3,5,265.4,2.109
25.67,1,0.02,-0.008,0.002,-0.043,0.011,0.008,-1.549,0.024,0.174,24.99,83.4,40.505951,-3.361004,604.3,3,5,265.4,2.109
25.77,1,0.016,-0.001,-0.013,0.005,-0.0,-0.005,-1.549,0.027,0.176,24.99,83.4,40.505951,-3.361004,604.3,3,5,265.4,2.109
25.87,1,-0.003,-0.016,0.028,-0.004,-0.009,0.005,-1.551,0.028,0.177,24.99,83.4,40.505951,-3.361004,604.3,3,5,265.4,2.109
25.97,1,0.06,0.024,-0.014,0.005,-0.001,0.003,-1.549,0.023,0.179,24.99,83.4,40.505951,-3.361004,604.3,3,5,265.4,2.109
26.08,1,0.017,0.015,0.018,0.032,0.016,0.003,-1.549,0.023,0.181,24.99,83.4,40.505951,-3.361004,604.3,3,5,265.4,2.109
26.17,1,-0.023,0.018,0.02,0.021,0.017,0.012,-1.548,0.021,0.183,26.0,82.7,40.505932,-3.361275,605.9,3,5,264.4,1.758
26.27,1,-0.086,0.01,0.034,-0.04,0.014,0.024,-1.548,0.022,0.185,26.0,82.7,40.505932,-3.361275,605.9,3,5,264.4,1.758
26.37,1,-0.053,-0.028,0.052,-0.054,-0.002,0.037,-1.551,0.024,0.186,26.0,82.7,40.505932,-3.361275,605.9,3,5,264.4,1.758
26.47,1,-0.036,-0.002,0.028,-0.053,-0.011,0.042,-1.554,0.024,0.188,26.0,82.7,40.505932,-3.361275,605.9,3,5,264.4,1.758
26.58,1,-0.037,0.046,0.024,-0.036,0.015,0.026,-1.555,0.019,0.19,26.0,82.7,40.505932,-3.361275,605.9,3,5,264.4,1.758
26.68,1,0.015,0.011,0.028,-0.014,0.022,0.026,-1.559,0.016,0.191,26.0,82.7,40.505932,-3.361275,605.9,3,5,264.4,1.758
26.78,1,0.006,0.031,0.018,-0.005,0.024,0.029,-1.56,0.015,0.193,26.0,82.7,40.505932,-3.361275,605.9,3,5,264.4,1.758
26.87,1,0.032,0.017,-0.021,0.017,0.025,0.006,-1.556,0.016,0.195,26.0,82.7,40.505932,-3.361275,605.9,3,5,264.4,1.758
26.97,1,0.003,-0.009,-0.016,0.015,0.008,-0.016,-1.556,0.018,0.196,26.0,82.7,40.505932,-3.361275,605.9,3,5,264.4,1.758
27.07,1,-0.093,0.002,0.031,-0.033,-0.003,0.006,-1.557,0.018,0.198,26.0,82.7,40.505932,-3.361275,605.9,3,5,264.4,1.758
27.17,1,-0.014,0.003,0.044,-0.04,0.005,0.027,-1.558,0.017,0.2,27.06,83.1,40.505905,-3.36155,604.9,3,5,263.0,2.461
27.28,1,0.018,0.0,0.021,-0.018,0.001,0.033,-1.559,0.016,0.201,27.06,83.1,40.505905,-3.36155,604.9,3,5,263.0,2.461
27.37,1,0.03,0.009,-0.012,0.021,0.005,0.012,-1.557,0.014,0.203,27.06,83.1,40.505905,-3.36155,604.9,3,5,263.0,2.461
27.47,1,-0.02,0.01,-0.011,0.007,0.005,-0.008,-1.558,0.015,0.204,27.06,83.1,40.505905,-3.36155,604.9,3,5,263.0,2.461
27.57,1,-0.041,-0.012,0.008,-0.022,0.0,-0.004,-1.561,0.014,0.206,27.06,83.1,40.505905,-3.36155,604.9,3,5,263.0,2.461
27.68,1,0.022,-0.02,-0.006,-0.011,-0.011,0.003,-1.562,0.013,0.208,27.06,83.1,40.505905,-3.36155,604.9,3,5,263.0,2.461
27.78,1,-0.001,0.02,-0.017,0.011,0.003,-0.005,-1.56,0.012,0.209,27.06,83.1,40.505905,-3.36155,604.9,3,5,263.0,2.461
27.89,1,-0.01,-0.003,-0.032,-0.012,0.002,-0.02,-1.556,0.014,0.211,27.06,83.1,40.505905,-3.36155,604.9,3,5,263.0,2.461
27.98,1,-0.016,0.008,0.003,-0.018,0.003,-0.02,-1.556,0.015,0.212,27.06,83.1,40.505905,-3.36155,604.9,3,5,263.0,2.461
28.08,1,-0.016,0.038,0.043,-0.012,0.013,0.016,-1.559,0.013,0.213,27.06,83.1,40.505905,-3.36155,604.9,3,5,263.0,2.461
28.18,1,0.021,0.039,-0.016,0.005,0.028,0.006,-1.559,0.007,0.212,28.0,83.7,40.505871,-3.361823,605.0,3,5,260.9,3.516
28.28,1,-0.036,0.064,-0.005,-0.008,0.044,0.001,-1.559,0.005,0.211,28.0,83.7,40.505871,-3.361823,605.0,3,5,260.9,3.516
28.38,1,-0.057,0.046,-0.014,-0.035,0.06,-0.007,-1.558,-0.002,0.211,28.0,83.7,40.505871,-3.361823,605.0,3,5,260.9,3.516
28.49,1,-0.031,0.029,0.028,-0.039,0.044,0.008,-1.563,-0.008,0.211,28.0,83.7,40.505871,-3.361823,605.0,3,5,260.9,3.516
28.58,1,-0.033,0.012,0.01,-0.029,0.022,0.01,-1.563,-0.008,0.213,28.0,83.7,40.505871,-3.361823,605.0,3,5,260.9,3.516
28.68,1,0.01,0.001,0.003,-0.012,0.014,0.01,-1.559,-0.004,0.214,28.0,83.7,40.505871,-3.361823,605.0,3,5,260.9,3.516
28.78,1,-0.02,0.0,0.021,-0.013,0.004,0.015,-1.56,0.0,0.215,28.0,83.7,40.505871,-3.361823,605.0,3,5,260.9,3.516
28.88,1,-0.036,0.002,0.015,-0.028,0.001,0.009,-1.559,0.003,0.216,28.0,83.7,40.505871,-3.361823,605.0,3,5,260.9,3.516
28.98,1,-0.005,0.024,0.004,-0.02,0.012,0.008,-1.559,0.003,0.216,28.0,83.7,40.505871,-3.361823,605.0,3,5,260.9,3.516
29.08,1,-0.024,0.027,-0.003,-0.019,0.021,0.0,-1.557,-0.001,0.217,28.0,83.7,40.505871,-3.361823,605.0,3,5,260.9,3.516
29.18,1,-0.009,0.01,-0.001,-0.016,0.012,0.004,-1.555,-0.001,0.217,29.0,84.1,40.505836,-3.362092,606.5,3,5,259.5,3.516
29.28,1,0.029,-0.021,0.025,0.005,0.004,0.007,-1.551,-0.0,0.219,29.0,84.1,40.505836,-3.362092,606.5,3,5,259.5,3.516
29.38,1,-0.006,-0.045,0.019,0.006,-0.019,0.018,-1.551,0.002,0.222,29.0,84.1,40.505836,-3.362092,606.5,3,5,259.5,3.516
29.48,1,-0.036,-0.025,0.006,-0.016,-0.025,0.015,-1.551,0.003,0.224,29.0,84.1,40.505836,-3.362092,606.5,3,5,259.5,3.516
29.58,1,-0.014,-0.021,0.013,-0.019,-0.025,0.015,-1.551,0.007,0.227,29.0,84.1,40.505836,-3.362092,606.5,3,5,259.5,3.516
29.68,1,-0.003,0.003,-0.004,-0.011,-0.016,0.008,-1.554,0.007,0.228,29.0,84.1,40.505836,-3.362092,606.5,3,5,259.5,3.516
29.78,1,0.006,0.028,0.014,-0.002,0.009,0.005,-1.554,0.002,0.228,29.0,84.1,40.505836,-3.362092,606.5,3,5,259.5,3.516
29.88,1,0.007,0.036,0.013,0.004,0.022,0.008,-1.553,-0.002,0.228,29.0,84.1,40.505836,-3.362092,606.5,3,5,259.5,3.516
29.98,1,0.003,0.043,-0.011,0.005,0.034,0.003,-1.552,-0.006,0.228,29.0,84.1,40.505836,-3.362092,606.5,3,5,259.5,3.516
30.08,1,-0.031,0.025,0.01,-0.015,0.033,0.002,-1.553,-0.006,0.229,29.0,84.1,40.505836,-3.362092,606.5,3,5,259.5,3.516
30.18,1,0.002,0.04,-0.012,-0.012,0.034,-0.001,-1.553,-0.008,0.229,30.06,85.2,40.505749,-3.36264,606.5,3,5,257.0,2.109
30.28,1,-0.033,0.011,-0.008,-0.012,0.028,-0.007,-1.552,-0.007,0.23,30.06,85.2,40.505749,-3.36264,606.5,3,5,257.0,2.109
30.39,1,-0.011,-0.013,0.03,-0.023,0.006,0.006,-1.552,-0.004,0.23,30.06,85.2,40.505749,-3.36264,606.5,3,5,257.0,2.109
30.49,1,0.021,-0.004,0.021,-0.002,-0.008,0.017,-1.552,-0.004,0.231,30.06,85.2,40.505749,-3.36264,606.5,3,5,257.0,2.109
30.58,1,-0.027,0.03,-0.003,-0.006,0.016,0.015,-1.552,-0.007,0.231,30.06,85.2,40.505749,-3.36264,606.5,3,5,257.0,2.109
30.68,1,0.039,-0.014,0.006,0.009,0.007,0.003,-1.551,-0.009,0.232,30.06,85.2,40.505749,-3.36264,606.5,3,5,257.0,2.109
30.78,1,0.001,0.018,-0.013,0.027,0.006,-0.003,-1.551,-0.011,0.233,30.06,85.2,40.505749,-3.36264,606.5,3,5,257.0,2.109
30.88,1,-0.059,-0.012,0.037,-0.023,0.003,0.014,-1.551,-0.013,0.233,30.06,85.2,40.505749,-3.36264,606.5,3,5,257.0,2.109
30.98,1,0.001,-0.01,0.036,-0.027,-0.009,0.032,-1.553,-0.013,0.234,30.06,85.2,40.505749,-3.36264,606.5,3,5,257.0,2.109
31.09,1,0.004,-0.016,-0.004,-0.007,-0.013,0.015,-1.551,-0.009,0.236,30.06,85.2,40.505749,-3.36264,606.5,3,5,257.0,2.109
31.19,1,-0.008,-0.03,0.014,-0.002,-0.021,0.007,-1.551,-0.004,0.238,31.01,85.2,40.505749,-3.36264,606.5,3,5,257.0,2.461
31.29,1,-0.035,-0.035,0.02,-0.019,-0.032,0.014,-1.552,-0.002,0.24,31.01,85.2,40.505749,-3.36264,606.5,3,5,257.0,2.461
31.4,1,0.03,-0.032,0.013,0.001,-0.029,0.017,-1.555,0.002,0.242,31.01,85.2,40.505749,-3.36264,606.5,3,5,257.0,2.461
31.49,1,0.009,-0.035,0.033,0.01,-0.034,0.024,-1.558,0.006,0.244,31.01,85.2,40.505749,-3.36264,606.5,3,5,257.0,2.461
31.59,1,-0.016,-0.008,-0.017,-0.002,-0.02,0.01,-1.56,0.008,0.246,31.01,85.2,40.505749,-3.36264,606.5,3,5,257.0,2.461
31.69,1,-0.017,-0.031,0.007,-0.009,-0.025,-0.001,-1.561,0.01,0.248,31.01,85.2,40.505749,-3.36264,606.5,3,5,257.0,2.461
31.79,1,0.003,0.0,0.026,-0.013,-0.015,0.011,-1.565,0.009,0.25,31.01,85.2,40.505749,-3.36264,606.5,3,5,257.0,2.461
31.89,1,-0.025,0.005,-0.046,-0.012,0.003,-0.009,-1.565,0.007,0.251,31.01,85.2,40.505749,-3.36264,606.5,3,5,257.0,2.461
31.99,1,0.017,0.005,0.037,-0.004,-0.002,-0.0,-1.566,0.007,0.253,31.01,85.2,40.505749,-3.36264,606.5,3,5,257.0,2.461
32.09,1,0.002,-0.002,0.027,0.003,-0.001,0.02,-1.569,0.009,0.255,31.01,85.2,40.505749,-3.36264,606.5,3,5,257.0,2.461
32.19,1,0.032,-0.024,0.012,0.019,-0.016,0.021,-1.57,0.009,0.256,32.01,85.6,40.505695,-3.362913,607.0,3,5,255.6,3.164
32.29,1,0.017,-0.001,0.003,0.02,-0.01,0.009,-1.568,0.008,0.257,32.01,85.6,40.505695,-3.362913,607.0,3,5,255.6,3.164
32.39,1,-0.031,0.001,0.011,-0.002,0.004,0.011,-1.57,0.008,0.258,32.01,85.6,40.505695,-3.362913,607.0,3,5,255.6,3.164
32.49,1,-0.038,0.016,-0.003,-0.032,0.012,0.001,-1.568,0.006,0.259,32.01,85.6,40.505695,-3.362913,607.0,3,5,255.6,3.164
32.59,1,-0.073,0.006,0.007,-0.048,0.007,0.007,-1.569,0.005,0.26,32.01,85.6,40.505695,-3.362913,607.0,3,5,255.6,3.164
32.7,1,0.006,0.008,0.014,-0.03,0.007,0.012,-1.571,0.007,0.262,32.01,85.6,40.505695,-3.362913,607.0,3,5,255.6,3.164
32.8,1,-0.003,0.001,-0.024,-0.008,0.003,-0.004,-1.57,0.008,0.263,32.01,85.6,40.505695,-3.362913,607.0,3,5,255.6,3.164
32.89,1,0.025,0.002,-0.014,0.004,0.001,-0.012,-1.568,0.007,0.264,32.01,85.6,40.505695,-3.362913,607.0,3,5,255.6,3.164
32.99,1,0.017,0.013,0.01,0.022,0.008,-0.005,-1.569,0.004,0.264,32.01,85.6,40.505695,-3.362913,607.0,3,5,255.6,3.164
33.1,1,0.029,0.03,-0.029,0.019,0.016,-0.012,-1.569,0.005,0.264,32.01,85.6,40.505695,-3.362913,607.0,3,5,255.6,3.164
33.19,1,0.03,0.004,-0.03,0.034,0.015,-0.017,-1.566,0.008,0.265,32.99,86.4,40.505642,-3.363178,607.2,4,5,254.2,2.812
33.3,1,0.012,0.027,-0.034,0.019,0.017,-0.034,-1.563,0.009,0.265,32.99,86.4,40.505642,-3.363178,607.2,4,5,254.2,2.812
33.39,1,0.001,-0.002,-0.001,0.004,0.015,-0.02,-1.562,0.01,0.266,32.99,86.4,40.505642,-3.363178,607.2,4,5,254.2,2.812
33.49,1,-0.066,-0.006,-0.008,-0.016,0.004,-0.01,-1.562,0.012,0.268,32.99,86.4,40.505642,-3.363178,607.2,4,5,254.2,2.812
33.59,1,-0.04,-0.036,0.016,-0.046,-0.014,0.001,-1.562,0.015,0.271,32.99,86.4,40.505642,-3.363178,607.2,4,5,254.2,2.812
33.69,1,-0.018,-0.065,-0.013,-0.029,-0.043,0.001,-1.56,0.02,0.275,32.99,86.4,40.505642,-3.363178,607.2,4,5,254.2,2.812
33.79,1,-0.026,-0.057,-0.015,-0.029,-0.054,-0.011,-1.559,0.026,0.279,32.99,86.4,40.505642,-3.363178,607.2,4,5,254.2,2.812
33.89,1,-0.031,-0.05,-0.007,-0.033,-0.053,-0.01,-1.558,0.032,0.283,32.99,86.4,40.505642,-3.363178,607.2,4,5,254.2,2.812
33.99,1,-0.047,-0.026,-0.002,-0.038,-0.039,-0.005,-1.555,0.033,0.286,32.99,86.4,40.505642,-3.363178,607.2,4,5,254.2,2.812
34.11,1,-0.01,-0.018,-0.027,-0.03,-0.029,-0.013,-1.554,0.033,0.289,32.99,86.4,40.505642,-3.363178,607.2,4,5,254.2,2.812
34.2,1,-0.023,-0.008,0.009,-0.014,-0.018,-0.01,-1.557,0.032,0.291,34.01,88.1,40.505573,-3.36346,607.6,4,5,252.4,3.164
34.29,1,0.006,-0.004,-0.004,-0.02,-0.009,-0.004,-1.562,0.031,0.293,34.01,88.1,40.505573,-3.36346,607.6,4,5,252.4,3.164
34.39,1,0.05,0.01,0.013,0.019,0.001,0.007,-1.565,0.028,0.293,34.01,88.1,40.505573,-3.36346,607.6,4,5,252.4,3.164
34.5,1,-0.007,0.036,-0.008,0.026,0.017,0.003,-1.563,0.022,0.294,34.01,88.1,40.505573,-3.36346,607.6,4,5,252.4,3.164
34.6,1,-0.006,0.049,-0.001,0.009,0.032,-0.004,-1.562,0.019,0.295,34.01,88.1,40.505573,-3.36346,607.6,4,5,252.4,3.164
34.7,1,-0.041,0.019,-0.006,-0.023,0.032,-0.009,-1.561,0.019,0.295,34.01,88.1,40.505573,-3.36346,607.6,4,5,252.4,3.164
34.8,1,-0.04,0.039,0.017,-0.031,0.032,0.007,-1.561,0.018,0.296,34.01,88.1,40.505573,-3.36346,607.6,4,5,252.4,3.164
34.9,1,-0.088,0.016,0.014,-0.06,0.03,0.013,-1.562,0.014,0.296,34.01,88.1,40.505573,-3.36346,607.6,4,5,252.4,3.164
35.0,1,-0.044,0.021,0.044,-0.058,0.02,0.027,-1.561,0.012,0.296,34.01,88.1,40.505573,-3.36346,607.6,4,5,252.4,3.164
35.11,1,-0.053,0.037,-0.004,-0.053,0.028,0.019,-1.561,0.008,0.296,34.01,88.1,40.505573,-3.36346,607.6,4,5,252.4,3.164
35.2,1,-0.068,0.014,0.018,-0.055,0.021,0.01,-1.563,0.004,0.297,35.0,88.8,40.505505,-3.363739,608.3,4,5,251.0,3.164
35.3,1,-0.06,-0.022,0.022,-0.068,0.003,0.021,-1.565,0.002,0.298,35.0,88.8,40.505505,-3.363739,608.3,4,5,251.0,3.164
35.4,1,0.018,-0.034,0.01,-0.027,-0.015,0.015,-1.564,0.002,0.299,35.0,88.8,40.505505,-3.363739,608.3,4,5,251.0,3.164
35.5,1,0.019,0.012,0.013,-0.0,-0.013,0.015,-1.567,-0.002,0.298,35.0,88.8,40.505505,-3.363739,608.3,4,5,251.0,3.164
35.6,1,0.05,0.067,0.011,0.033,0.026,0.011,-1.568,-0.008,0.296,35.0,88.8,40.505505,-3.363739,608.3,4,5,251.0,3.164
35.7,1,0.03,0.046,-0.016,0.043,0.047,-0.001,-1.57,-0.013,0.295,35.0,88.8,40.505505,-3.363739,608.3,4,5,251.0,3.164
35.8,1,-0.04,0.071,-0.004,0.002,0.052,-0.006,-1.571,-0.016,0.294,35.0,88.8,40.505505,-3.363739,608.3,4,5,251.0,3.164
35.91,1,-0.069,0.025,0.016,-0.047,0.051,0.003,-1.571,-0.013,0.294,35.0,88.8,40.505505,-3.363739,608.3,4,5,251.0,3.164
36.0,1,-0.03,-0.018,0.033,-0.048,0.011,0.017,-1.573,-0.011,0.294,35.0,88.8,40.505505,-3.363739,608.3,4,5,251.0,3.164
36.1,1,0.017,-0.019,-0.001,-0.014,-0.004,0.018,-1.574,-0.009,0.295,35.0,88.8,40.505505,-3.363739,608.3,4,5,251.0,3.164
36.2,1,0.041,-0.012,0.009,0.018,-0.013,0.01,-1.571,-0.007,0.295,36.0,89.6,40.505428,-3.364009,608.7,4,5,248.9,3.516
36.3,1,-0.024,0.009,-0.009,0.008,-0.002,0.001,-1.572,-0.007,0.296,36.0,89.6,40.505428,-3.364009,608.7,4,5,248.9,3.516
36.4,1,-0.009,0.041,0.015,-0.006,0.02,-0.001,-1.572,-0.008,0.296,36.0,89.6,40.505428,-3.364009,608.7,4,5,248.9,3.516
36.51,1,-0.029,-0.008,0.007,-0.022,0.012,0.009,-1.574,-0.007,0.296,36.0,89.6,40.505428,-3.364009,608.7,4,5,248.9,3.516
36.6,1,-0.025,-0.009,0.005,-0.031,-0.006,0.008,-1.577,-0.006,0.297,36.0,89.6,40.505428,-3.364009,608.7,4,5,248.9,3.516
36.7,1,0.022,0.013,0.0,-0.003,0.001,0.001,-1.578,-0.004,0.297,36.0,89.6,40.505428,-3.364009,608.7,4,5,248.9,3.516
36.8,1,0.022,0.011,-0.016,0.016,0.008,-0.0,-1.576,-0.005,0.297,36.0,89.6,40.505428,-3.364009,608.7,4,5,248.9,3.516
36.91,1,0.005,-0.002,-0.018,0.012,0.005,-0.016,-1.573,-0.006,0.297,36.0,89.6,40.505428,-3.364009,608.7,4,5,248.9,3.516
37.0,1,-0.007,0.033,-0.004,0.004,0.011,-0.009,-1.572,-0.009,0.296,36.0,89.6,40.505428,-3.364009,608.7,4,5,248.9,3.516
37.11,1,-0.031,0.029,-0.015,-0.012,0.026,-0.011,-1.572,-0.011,0.296,36.0,89.6,40.505428,-3.364009,608.7,4,5,248.9,3.516
37.21,1,-0.047,-0.009,0.013,-0.03,0.021,-0.003,-1.572,-0.013,0.296,37.01,90.7,40.505348,-3.364282,609.5,4,5,248.2,2.812
37.3,1,0.021,-0.002,0.015,-0.017,-0.0,0.012,-1.568,-0.013,0.296,37.01,90.7,40.505348,-3.364282,609.5,4,5,248.2,2.812
37.4,1,-0.039,0.02,0.02,-0.015,0.01,0.013,-1.568,-0.015,0.296,37.01,90.7,40.505348,-3.364282,609.5,4,5,248.2,2.812
37.51,1,0.004,-0.015,0.026,-0.015,-0.001,0.017,-1.571,-0.012,0.296,37.01,90.7,40.505348,-3.364282,609.5,4,5,248.2,2.812
37.61,1,0.064,-0.018,0.032,0.022,-0.014,0.027,-1.571,-0.014,0.296,37.01,90.7,40.505348,-3.364282,609.5,4,5,248.2,2.812
37.71,1,0.038,-0.01,-0.011,0.039,-0.01,0.013,-1.572,-0.016,0.296,37.01,90.7,40.505348,-3.364282,609.5,4,5,248.2,2.812
37.81,1,0.035,-0.013,-0.008,0.039,-0.013,-0.001,-1.572,-0.016,0.297,37.01,90.7,40.505348,-3.364282,609.5,4,5,248.2,2.812
37.9,1,-0.067,-0.003,0.019,-0.005,-0.008,0.004,-1.574,-0.014,0.297,37.01,90.7,40.505348,-3.364282,609.5,4,5,248.2,2.812
38.01,1,-0.007,0.001,-0.021,-0.03,-0.001,0.0,-1.572,-0.014,0.298,37.01,90.7,40.505348,-3.364282,609.5,4,5,248.2,2.812
38.11,1,0.094,-0.031,0.007,0.04,-0.017,-0.002,-1.568,-0.014,0.298,37.01,90.7,40.505348,-3.364282,609.5,4,5,248.2,2.812
38.21,1,0.003,-0.008,-0.033,0.045,-0.016,-0.008,-1.566,-0.014,0.299,37.99,90.8,40.50526,-3.364562,609.2,4,5,248.2,0.703
38.32,1,-0.055,-0.005,-0.082,-0.018,-0.006,-0.047,-1.563,-0.014,0.299,37.99,90.8,40.50526,-3.364562,609.2,4,5,248.2,0.703
38.42,1,-0.024,-0.014,-0.054,-0.037,-0.011,-0.06,-1.558,-0.013,0.301,37.99,90.8,40.50526,-3.364562,609.2,4,5,248.2,0.703
38.51,1,0.014,-0.063,-0.087,-0.008,-0.029,-0.067,-1.554,-0.008,0.303,37.99,90.8,40.50526,-3.364562,609.2,4,5,248.2,0.703
38.61,1,-0.065,-0.042,-0.069,-0.025,-0.05,-0.078,-1.55,-0.003,0.305,37.99,90.8,40.50526,-3.364562,609.2,4,5,248.2,0.703
38.71,1,0.01,-0.03,-0.057,-0.016,-0.035,-0.057,-1.547,-0.002,0.306,37.99,90.8,40.50526,-3.364562,609.2,4,5,248.2,0.703
38.81,1,0.111,-0.046,-0.076,0.043,-0.042,-0.067,-1.544,-0.001,0.308,37.99,90.8,40.50526,-3.364562,609.2,4,5,248.2,0.703
38.92,1,0.01,-0.04,-0.072,0.051,-0.044,-0.074,-1.542,0.001,0.309,37.99,90.8,40.50526,-3.364562,609.2,4,5,248.2,0.703
39.01,1,-0.124,-0.031,-0.063,-0.039,-0.034,-0.073,-1.54,0.004,0.31,37.99,90.8,40.50526,-3.364562,609.2,4,5,248.2,0.703
39.11,1,-0.004,-0.019,-0.053,-0.054,-0.029,-0.061,-1.537,0.006,0.312,37.99,90.8,40.50526,-3.364562,609.2,4,5,248.2,0.703
39.21,1,0.016,-0.037,-0.068,-0.003,-0.027,-0.054,-1.535,0.007,0.312,39.0,90.8,40.505177,-3.364835,609.3,6,5,248.2,0.0
39.31,1,-0.026,-0.014,-0.081,-0.014,-0.023,-0.079,-1.528,0.005,0.313,39.0,90.8,40.505177,-3.364835,609.3,6,5,248.2,0.0
39.42,1,-0.013,0.021,-0.029,-0.009,-0.002,-0.055,-1.525,0.002,0.313,39.0,90.8,40.505177,-3.364835,609.3,6,5,248.2,0.0
39.51,1,0.005,-0.005,-0.022,-0.017,0.001,-0.041,-1.523,0.002,0.314,39.0,90.8,40.505177,-3.364835,609.3,6,5,248.2,0.0
39.62,1,0.046,-0.012,-0.015,0.013,-0.003,-0.024,-1.523,0.001,0.315,39.0,90.8,40.505177,-3.364835,609.3,6,5,248.2,0.0
39.71,1,0.048,-0.009,-0.007,0.047,-0.009,-0.01,-1.525,0.002,0.315,39.0,90.8,40.505177,-3.364835,609.3,6,5,248.2,0.0
39.81,1,0.038,0.015,-0.003,0.032,-0.0,-0.009,-1.526,0.005,0.316,39.0,90.8,40.505177,-3.364835,609.3,6,5,248.2,0.0
39.91,1,-0.011,0.02,0.028,0.021,0.009,0.003,-1.527,0.004,0.316,39.0,90.8,40.505177,-3.364835,609.3,6,5,248.2,0.0
40.01,1,-0.057,0.019,0.023,-0.011,0.013,0.02,-1.526,0.002,0.316,39.0,90.8,40.505177,-3.364835,609.3,6,5,248.2,0.0
40.11,1,-0.124,0.023,0.035,-0.063,0.024,0.024,-1.527,0.0,0.317,39.0,90.8,40.505177,-3.364835,609.3,6,5,248.2,0.0
40.21,1,0.017,0.002,-0.002,-0.052,0.013,0.016,-1.531,-0.0,0.317,40.02,93.2,40.505074,-3.36513,609.2,6,5,244.0,4.219
40.31,1,-0.016,-0.012,0.029,-0.021,-0.002,0.02,-1.533,-0.001,0.317,40.02,93.2,40.505074,-3.36513,609.2,6,5,244.0,4.219
40.41,1,0.021,0.001,-0.014,-0.007,-0.003,0.003,-1.533,-0.002,0.317,40.02,93.2,40.505074,-3.36513,609.2,6,5,244.0,4.219
40.51,1,0.053,0.003,0.058,0.04,0.003,0.023,-1.533,-0.001,0.317,40.02,93.2,40.505074,-3.36513,609.2,6,5,244.0,4.219
40.62,1,-0.027,0.041,0.038,0.01,0.02,0.04,-1.535,-0.0,0.318,40.02,93.2,40.505074,-3.36513,609.2,6,5,244.0,4.219
40.71,1,-0.08,-0.009,0.031,-0.036,0.016,0.037,-1.536,0.002,0.318,40.02,93.2,40.505074,-3.36513,609.2,6,5,244.0,4.219
40.81,1,0.057,-0.025,0.036,-0.02,-0.01,0.035,-1.535,0.005,0.318,40.02,93.2,40.505074,-3.36513,609.2,6,5,244.0,4.219
40.92,1,0.027,0.0,0.015,0.007,-0.012,0.023,-1.534,0.007,0.319,40.02,93.2,40.505074,-3.36513,609.2,6,5,244.0,4.219
41.01,1,0.003,0.029,0.039,0.025,0.007,0.03,-1.536,0.007,0.319,40.02,93.2,40.505074,-3.36513,609.2,6,5,244.0,4.219
41.11,1,-0.051,0.026,-0.022,-0.01,0.018,0.02,-1.534,0.007,0.318,40.02,93.2,40.505074,-3.36513,609.2,6,5,244.0,4.219
41.21,1,-0.024,0.01,-0.031,-0.034,0.018,-0.02,-1.534,0.005,0.318,41.01,90.7,40.504974,-3.365392,609.5,6,5,242.2,5.977
41.31,1,0.006,0.011,0.048,-0.017,0.01,0.006,-1.536,0.004,0.318,41.01,90.7,40.504974,-3.365392,609.5,6,5,242.2,5.977
41.42,1,-0.046,0.012,0.037,-0.008,0.015,0.033,-1.537,0.006,0.319,41.01,90.7,40.504974,-3.365392,609.5,6,5,242.2,5.977
41.52,1,-0.043,-0.023,0.006,-0.034,0.001,0.018,-1.539,0.006,0.319,41.01,90.7,40.504974,-3.365392,609.5,6,5,242.2,5.977
41.62,1,-0.03,-0.034,0.011,-0.034,-0.02,0.015,-1.538,0.004,0.32,41.01,90.7,40.504974,-3.365392,609.5,6,5,242.2,5.977
41.72,1,0.097,-0.008,0.046,0.021,-0.018,0.029,-1.539,0.006,0.321,41.01,90.7,40.504974,-3.365392,609.5,6,5,242.2,5.977
41.82,1,-0.035,0.008,0.008,0.017,0.003,0.022,-1.544,0.008,0.322,41.01,90.7,40.504974,-3.365392,609.5,6,5,242.2,5.977
41.92,1,-0.03,-0.054,0.046,-0.03,-0.025,0.026,-1.544,0.013,0.323,41.01,90.7,40.504974,-3.365392,609.5,6,5,242.2,5.977
42.02,1,0.01,-0.058,0.001,-0.001,-0.052,0.022,-1.544,0.018,0.325,41.01,90.7,40.504974,-3.365392,609.5,6,5,242.2,5.977
42.13,1,-0.006,-0.041,0.034,0.016,-0.05,0.02,-1.544,0.021,0.326,41.01,90.7,40.504974,-3.365392,609.5,6,5,242.2,5.977
42.22,1,-0.071,-0.029,0.062,-0.027,-0.033,0.044,-1.548,0.022,0.327,42.0,93.1,40.504848,-3.365646,609.4,4,5,241.2,2.812
42.32,1,0.097,-0.039,0.011,0.001,-0.036,0.033,-1.55,0.025,0.329,42.0,93.1,40.504848,-3.365646,609.4,4,5,241.2,2.812
42.42,1,0.076,-0.047,0.014,0.049,-0.039,0.018,-1.55,0.032,0.331,42.0,93.1,40.504848,-3.365646,609.4,4,5,241.2,2.812
42.52,1,-0.008,-0.064,0.02,0.031,-0.045,0.02,-1.553,0.034,0.333,42.0,93.1,40.504848,-3.365646,609.4,4,5,241.2,2.812
42.62,1,-0.011,-0.034,0.014,0.015,-0.054,0.014,-1.552,0.036,0.334,42.0,93.1,40.504848,-3.365646,609.4,4,5,241.2,2.812
42.72,1,0.008,-0.035,-0.018,-0.009,-0.042,0.002,-1.549,0.038,0.336,42.0,93.1,40.504848,-3.365646,609.4,4,5,241.2,2.812
42.82,1,0.135,-0.081,0.037,0.061,-0.057,0.011,-1.549,0.04,0.337,42.0,93.1,40.504848,-3.365646,609.4,4,5,241.2,2.812
42.92,1,0.119,-0.012,-0.053,0.112,-0.044,-0.009,-1.547,0.04,0.339,42.0,93.1,40.504848,-3.365646,609.4,4,5,241.2,2.812
43.02,1,-0.108,0.014,-0.002,0.024,-0.011,-0.012,-1.543,0.04,0.339,42.0,93.1,40.504848,-3.365646,609.4,4,5,241.2,2.812
43.12,1,-0.061,0.026,0.002,-0.051,0.011,-0.009,-1.544,0.04,0.338,42.0,93.1,40.504848,-3.365646,609.4,4,5,241.2,2.812
43.23,1,-0.04,0.04,0.072,-0.042,0.023,0.025,-1.547,0.038,0.337,43.01,92.8,40.50473,-3.365906,609.6,6,5,240.1,2.109
43.32,1,-0.101,0.062,0.043,-0.06,0.043,0.053,-1.55,0.033,0.336,43.01,92.8,40.50473,-3.365906,609.6,6,5,240.1,2.109
43.42,1,-0.026,0.062,-0.013,-0.08,0.058,0.016,-1.547,0.033,0.333,43.01,92.8,40.50473,-3.365906,609.6,6,5,240.1,2.109
43.52,1,0.123,0.069,0.01,0.029,0.064,0.007,-1.544,0.032,0.33,43.01,92.8,40.50473,-3.365906,609.6,6,5,240.1,2.109
43.62,1,-0.183,0.126,-0.002,-0.044,0.091,0.004,-1.545,0.033,0.327,43.01,92.8,40.50473,-3.365906,609.6,6,5,240.1,2.109
43.72,1,0.048,0.059,0.037,-0.061,0.089,0.013,-1.548,0.034,0.325,43.01,92.8,40.50473,-3.365906,609.6,6,5,240.1,2.109
43.82,1,0.087,0.033,0.019,0.06,0.054,0.028,-1.55,0.03,0.323,43.01,92.8,40.50473,-3.365906,609.6,6,5,240.1,2.109
43.92,1,-0.016,0.011,-0.015,0.022,0.036,0.005,-1.548,0.031,0.323,43.01,92.8,40.50473,-3.365906,609.6,6,5,240.1,2.109
44.02,1,0.027,-0.028,0.02,0.013,0.003,0.005,-1.547,0.034,0.322,43.01,92.8,40.50473,-3.365906,609.6,6,5,240.1,2.109
44.12,1,-0.006,0.037,0.033,0.02,0.007,0.022,-1.548,0.034,0.321,43.01,92.8,40.50473,-3.365906,609.6,6,5,240.1,2.109
44.22,1,-0.08,0.04,-0.039,-0.028,0.024,0.006,-1.547,0.035,0.319,44.0,94.6,40.504604,-3.366168,609.6,4,5,238.0,3.164
44.33,1,0.097,0.014,0.016,0.008,0.026,-0.009,-1.545,0.035,0.317,44.0,94.6,40.504604,-3.366168,609.6,4,5,238.0,3.164
44.42,1,-0.055,0.046,0.028,0.016,0.03,0.014,-1.547,0.033,0.315,44.0,94.6,40.504604,-3.366168,609.6,4,5,238.0,3.164
44.53,1,-0.05,0.028,0.006,-0.038,0.033,0.013,-1.551,0.031,0.314,44.0,94.6,40.504604,-3.366168,609.6,4,5,238.0,3.164
44.62,1,0.024,0.065,-0.007,-0.014,0.044,0.008,-1.548,0.033,0.312,44.0,94.6,40.504604,-3.366168,609.6,4,5,238.0,3.164
44.72,1,-0.092,0.031,-0.022,-0.04,0.046,-0.015,-1.546,0.034,0.31,44.0,94.6,40.504604,-3.366168,609.6,4,5,238.0,3.164
44.83,1,-0.005,-0.011,0.023,-0.036,0.017,-0.002,-1.547,0.034,0.308,44.0,94.6,40.504604,-3.366168,609.6,4,5,238.0,3.164
44.94,1,-0.078,0.02,0.013,-0.044,0.012,0.018,-1.55,0.032,0.306,44.0,94.6,40.504604,-3.366168,609.6,4,5,238.0,3.164
45.03,1,-0.017,0.009,-0.002,-0.063,0.014,0.005,-1.549,0.033,0.305,44.0,94.6,40.504604,-3.366168,609.6,4,5,238.0,3.164
45.14,1,0.058,0.026,0.016,0.022,0.018,0.011,-1.548,0.036,0.304,44.0,94.6,40.504604,-3.366168,609.6,4,5,238.0,3.164
45.24,1,-0.016,0.009,-0.008,0.014,0.019,-0.002,-1.545,0.039,0.303,45.01,96.6,40.504471,-3.366432,609.7,4,5,237.7,2.461
45.33,1,0.022,0.014,0.013,-0.002,0.009,0.007,-1.543,0.039,0.301,45.01,96.6,40.504471,-3.366432,609.7,4,5,237.7,2.461
45.43,1,-0.019,0.084,0.018,0.02,0.034,0.013,-1.546,0.036,0.297,45.01,96.6,40.504471,-3.366432,609.7,4,5,237.7,2.461
45.53,1,-0.112,0.099,-0.028,-0.065,0.082,-0.002,-1.548,0.033,0.292,45.01,96.6,40.504471,-3.366432,609.7,4,5,237.7,2.461
45.63,1,-0.047,0.033,0.001,-0.071,0.067,-0.011,-1.551,0.031,0.288,45.01,96.6,40.504471,-3.366432,609.7,4,5,237.7,2.461
45.74,1,0.019,0.056,0.014,-0.015,0.053,0.006,-1.554,0.029,0.286,45.01,96.6,40.504471,-3.366432,609.7,4,5,237.7,2.461
45.83,1,-0.018,0.032,-0.03,-0.025,0.044,-0.008,-1.553,0.031,0.284,45.01,96.6,40.504471,-3.366432,609.7,4,5,237.7,2.461
45.93,1,0.084,-0.018,0.022,0.03,0.017,-0.004,-1.554,0.034,0.282,45.01,96.6,40.504471,-3.366432,609.7,4,5,237.7,2.461
46.03,1,-0.104,0.007,-0.021,-0.017,0.007,-0.002,-1.556,0.034,0.28,45.01,96.6,40.504471,-3.366432,609.7,4,5,237.7,2.461
46.14,1,0.001,-0.005,0.005,-0.026,0.002,-0.005,-1.555,0.03,0.278,45.01,96.6,40.504471,-3.366432,609.7,4,5,237.7,2.461
46.23,1,-0.072,0.017,-0.01,-0.037,0.004,-0.006,-1.555,0.028,0.276,46.04,99.4,40.5042,-3.36698,608.9,4,5,237.3,0.703
46.34,1,0.046,0.025,0.002,-0.004,0.017,0.004,-1.556,0.027,0.275,46.04,99.4,40.5042,-3.36698,608.9,4,5,237.3,0.703
46.44,1,0.027,0.018,-0.046,0.031,0.016,-0.022,-1.553,0.03,0.273,46.04,99.4,40.5042,-3.36698,608.9,4,5,237.3,0.703
46.53,1,-0.071,-0.021,-0.025,-0.032,0.001,-0.027,-1.553,0.033,0.272,46.04,99.4,40.5042,-3.36698,608.9,4,5,237.3,0.703
46.63,1,-0.079,0.032,-0.007,-0.044,0.004,-0.018,-1.554,0.034,0.27,46.04,99.4,40.5042,-3.36698,608.9,4,5,237.3,0.703
46.73,1,0.014,0.037,0.002,-0.036,0.034,-0.007,-1.554,0.035,0.267,46.04,99.4,40.5042,-3.36698,608.9,4,5,237.3,0.703
46.83,1,0.004,-0.015,-0.003,-0.001,0.01,-0.003,-1.553,0.038,0.265,46.04,99.4,40.5042,-3.36698,608.9,4,5,237.3,0.703
46.95,1,0.075,0.026,-0.016,0.008,0.015,-0.014,-1.549,0.034,0.262,46.04,99.4,40.5042,-3.36698,608.9,4,5,237.3,0.703
47.03,1,0.023,0.054,0.027,0.062,0.026,0.01,-1.548,0.031,0.26,46.04,99.4,40.5042,-3.36698,608.9,4,5,237.3,0.703
47.13,1,0.041,0.023,0.008,0.018,0.038,0.011,-1.549,0.028,0.257,46.04,99.4,40.5042,-3.36698,608.9,4,5,237.3,0.703
47.23,1,-0.038,0.016,-0.008,0.023,0.023,0.005,-1.549,0.028,0.255,46.99,99.4,40.5042,-3.36698,608.9,4,5,237.3,0.352
47.33,1,-0.038,0.009,-0.028,-0.03,0.015,-0.015,-1.55,0.029,0.253,46.99,99.4,40.5042,-3.36698,608.9,4,5,237.3,0.352
47.43,1,-0.016,0.015,-0.023,-0.023,0.012,-0.02,-1.549,0.028,0.251,46.99,99.4,40.5042,-3.36698,608.9,4,5,237.3,0.352
47.55,1,0.044,-0.017,-0.014,0.002,0.004,-0.019,-1.547,0.028,0.25,46.99,99.4,40.5042,-3.36698,608.9,4,5,237.3,0.352
47.65,1,-0.028,-0.047,-0.004,0.008,-0.023,-0.012,-1.545,0.028,0.25,46.99,99.4,40.5042,-3.36698,608.9,4,5,237.3,0.352
47.73,1,0.056,-0.047,0.015,0.003,-0.041,-0.0,-1.545,0.029,0.25,46.99,99.4,40.5042,-3.36698,608.9,4,5,237.3,0.352
47.83,1,-0.02,-0.024,-0.045,0.016,-0.039,-0.008,-1.545,0.027,0.249,46.99,99.4,40.5042,-3.36698,608.9,4,5,237.3,0.352
47.93,1,-0.007,0.001,0.004,-0.005,-0.019,-0.017,-1.546,0.023,0.246,46.99,99.4,40.5042,-3.36698,608.9,4,5,237.3,0.352
48.03,1,0.029,0.053,0.006,0.016,0.023,0.005,-1.548,0.017,0.243,46.99,99.4,40.5042,-3.36698,608.9,4,5,237.3,0.352
48.14,1,0.002,0.03,-0.03,0.009,0.03,-0.016,-1.547,0.015,0.241,46.99,99.4,40.5042,-3.36698,608.9,4,5,237.3,0.352
48.24,1,-0.019,0.006,0.001,0.0,0.014,-0.016,-1.544,0.016,0.239,48.02,100.9,40.503929,-3.367537,608.6,4,5,237.0,0.0
48.34,1,-0.05,-0.019,-0.016,-0.018,0.006,-0.007,-1.54,0.015,0.237,48.02,100.9,40.503929,-3.367537,608.6,4,5,237.0,0.0
48.44,1,0.102,-0.001,0.013,0.025,-0.003,-0.002,-1.539,0.014,0.236,48.02,100.9,40.503929,-3.367537,608.6,4,5,237.0,0.0
48.54,1,-0.028,-0.007,-0.026,0.015,-0.007,-0.008,-1.538,0.014,0.234,48.02,100.9,40.503929,-3.367537,608.6,4,5,237.0,0.0
48.64,1,-0.007,-0.024,-0.036,-0.012,-0.01,-0.022,-1.538,0.015,0.232,48.02,100.9,40.503929,-3.367537,608.6,4,5,237.0,0.0
48.75,1,-0.038,0.012,-0.003,-0.028,-0.007,-0.022,-1.538,0.013,0.23,48.02,100.9,40.503929,-3.367537,608.6,4,5,237.0,0.0
48.85,1,0.088,0.024,-0.034,0.024,0.014,-0.017,-1.534,0.01,0.228,48.02,100.9,40.503929,-3.367537,608.6,4,5,237.0,0.0
48.94,1,-0.045,-0.002,-0.059,0.021,0.009,-0.038,-1.53,0.012,0.227,48.02,100.9,40.503929,-3.367537,608.6,4,5,237.0,0.0
49.04,1,0.032,-0.037,0.004,0.001,-0.01,-0.035,-1.528,0.016,0.225,48.02,100.9,40.503929,-3.367537,608.6,4,5,237.0,0.0
49.14,1,-0.023,0.005,-0.02,0.001,-0.012,-0.014,-1.527,0.015,0.224,48.02,100.9,40.503929,-3.367537,608.6,4,5,237.0,0.0
49.24,1,0.051,0.022,-0.015,0.015,0.005,-0.016,-1.524,0.014,0.222,49.09,100.8,40.503796,-3.367812,608.1,4,5,237.7,0.703
49.34,1,0.013,-0.014,-0.027,0.008,0.002,-0.024,-1.521,0.015,0.22,49.09,100.8,40.503796,-3.367812,608.1,4,5,237.7,0.703
49.44,1,-0.071,-0.015,-0.005,-0.003,-0.012,-0.015,-1.52,0.015,0.219,49.09,100.8,40.503796,-3.367812,608.1,4,5,237.7,0.703
49.54,1,-0.006,-0.013,-0.001,-0.033,-0.007,-0.002,-1.519,0.013,0.217,49.09,100.8,40.503796,-3.367812,608.1,4,5,237.7,0.703
49.64,1,-0.023,-0.014,-0.002,-0.019,-0.025,-0.009,-1.518,0.014,0.216,49.09,100.8,40.503796,-3.367812,608.1,4,5,237.7,0.703
49.74,1,0.005,0.05,-0.01,-0.018,0.016,-0.001,-1.516,0.007,0.214,49.09,100.8,40.503796,-3.367812,608.1,4,5,237.7,0.703
49.84,1,-0.031,-0.052,-0.007,-0.014,-0.002,-0.011,-1.512,0.007,0.213,49.09,100.8,40.503796,-3.367812,608.1,4,5,237.7,0.703
49.94,1,0.067,-0.027,0.016,0.01,-0.025,0.002,-1.509,0.01,0.212,49.09,100.8,40.503796,-3.367812,608.1,4,5,237.7,0.703
50.05,1,-0.092,-0.008,-0.037,-0.001,-0.016,-0.007,-1.509,0.008,0.21,49.09,100.8,40.503796,-3.367812,608.1,4,5,237.7,0.703
50.14,1,-0.096,-0.018,-0.018,-0.078,-0.011,-0.028,-1.512,0.008,0.209,49.09,100.8,40.503796,-3.367812,608.1,4,5,237.7,0.703
50.24,1,-0.033,-0.004,-0.033,-0.054,-0.015,-0.016,-1.515,0.008,0.208,49.99,100.8,40.503796,-3.367812,608.1,4,5,237.7,0.703
50.34,1,0.009,-0.003,0.007,-0.018,-0.004,-0.012,-1.513,0.008,0.208,49.99,100.8,40.503796,-3.367812,608.1,4,5,237.7,0.703
50.45,1,0.087,-0.045,0.068,0.023,-0.028,0.024,-1.508,0.01,0.208,49.99,100.8,40.503796,-3.367812,608.1,4,5,237.7,0.703
50.55,1,0.174,-0.048,0.037,0.105,-0.04,0.031,-1.507,0.015,0.208,49.99,100.8,40.503796,-3.367812,608.1,4,5,237.7,0.703
50.64,1,0.048,-0.073,-0.035,0.109,-0.054,0.009,-1.504,0.017,0.208,49.99,100.8,40.503796,-3.367812,608.1,4,5,237.7,0.703
50.74,1,-0.06,-0.042,-0.013,0.002,-0.055,-0.011,-1.504,0.017,0.207,49.99,100.8,40.503796,-3.367812,608.1,4,5,237.7,0.703
50.84,1,-0.048,-0.004,-0.008,-0.018,-0.028,-0.011,-1.509,0.014,0.205,49.99,100.8,40.503796,-3.367812,608.1,4,5,237.7,0.703
50.94,1,-0.169,-0.007,-0.044,-0.096,-0.018,-0.021,-1.509,0.011,0.204,49.99,100.8,40.503796,-3.367812,608.1,4,5,237.7,0.703
51.04,1,-0.021,-0.006,-0.001,-0.08,-0.006,-0.017,-1.512,0.01,0.203,49.99,100.8,40.503796,-3.367812,608.1,4,5,237.7,0.703
51.14,1,-0.037,-0.01,-0.029,-0.038,-0.006,-0.018,-1.51,0.009,0.202,49.99,100.8,40.503796,-3.367812,608.1,4,5,237.7,0.703
51.25,1,0.023,-0.02,-0.005,-0.021,-0.014,-0.016,-1.511,0.008,0.201,51.05,103.1,40.503513,-3.368373,607.4,4,5,237.0,0.703
51.34,1,-0.078,-0.019,-0.021,-0.024,-0.016,-0.015,-1.511,0.008,0.2,51.05,103.1,40.503513,-3.368373,607.4,4,5,237.0,0.703
51.44,1,0.055,0.005,0.041,-0.01,-0.009,0.008,-1.51,0.008,0.198,51.05,103.1,40.503513,-3.368373,607.4,4,5,237.0,0.703
51.54,1,-0.099,0.015,0.013,-0.031,0.003,0.017,-1.511,0.006,0.196,51.05,103.1,40.503513,-3.368373,607.4,4,5,237.0,0.703
51.65,1,0.016,0.016,0.023,-0.025,0.011,0.019,-1.512,0.004,0.194,51.05,103.1,40.503513,-3.368373,607.4,4,5,237.0,0.703
51.76,1,0.004,0.015,-0.009,0.001,0.017,0.008,-1.51,0.005,0.192,51.05,103.1,40.503513,-3.368373,607.4,4,5,237.0,0.703
51.85,1,0.103,0.012,-0.009,0.041,0.012,0.0,-1.509,0.006,0.19,51.05,103.1,40.503513,-3.368373,607.4,4,5,237.0,0.703
51.95,1,-0.06,-0.005,-0.012,0.017,0.005,-0.009,-1.507,0.006,0.189,51.05,103.1,40.503513,-3.368373,607.4,4,5,237.0,0.703
52.05,1,-0.038,-0.015,0.03,-0.04,-0.006,0.005,-1.51,0.008,0.187,51.05,103.1,40.503513,-3.368373,607.4,4,5,237.0,0.703
52.15,1,-0.106,0.007,-0.015,-0.066,-0.002,0.002,-1.511,0.01,0.185,51.05,103.1,40.503513,-3.368373,607.4,4,5,237.0,0.703
52.26,1,0.034,-0.008,0.005,-0.029,-0.004,-0.002,-1.514,0.011,0.184,51.99,103.1,40.503513,-3.368373,607.4,4,5,237.0,0.703
52.35,1,-0.064,-0.008,-0.007,-0.029,-0.004,-0.001,-1.514,0.012,0.183,51.99,103.1,40.503513,-3.368373,607.4,4,5,237.0,0.703
52.45,1,0.023,-0.016,0.004,-0.016,-0.01,-0.002,-1.516,0.015,0.183,51.99,103.1,40.503513,-3.368373,607.4,4,5,237.0,0.703
52.55,1,-0.028,-0.024,-0.008,-0.015,-0.018,0.002,-1.519,0.017,0.182,51.99,103.1,40.503513,-3.368373,607.4,4,5,237.0,0.703
52.65,1,0.011,-0.002,0.046,0.001,-0.014,0.016,-1.522,0.02,0.181,51.99,103.1,40.503513,-3.368373,607.4,4,5,237.0,0.703
52.75,1,-0.13,0.003,-0.004,-0.054,-0.002,0.011,-1.522,0.02,0.18,51.99,103.1,40.503513,-3.368373,607.4,4,5,237.0,0.703
52.85,1,0.059,-0.012,0.035,-0.025,-0.008,0.019,-1.523,0.019,0.179,51.99,103.1,40.503513,-3.368373,607.4,4,5,237.0,0.703
52.96,1,-0.117,-0.016,-0.004,-0.045,-0.006,0.016,-1.524,0.018,0.178,51.99,103.1,40.503513,-3.368373,607.4,4,5,237.0,0.703
53.06,1,-0.038,-0.021,0.031,-0.056,-0.019,0.015,-1.527,0.017,0.177,51.99,103.1,40.503513,-3.368373,607.4,4,5,237.0,0.703
53.16,1,-0.036,0.01,0.005,-0.051,-0.007,0.014,-1.53,0.018,0.176,51.99,103.1,40.503513,-3.368373,607.4,4,5,237.0,0.703
53.26,1,-0.066,0.012,-0.021,-0.04,0.006,0.003,-1.531,0.015,0.174,53.05,100.7,40.503239,-3.368937,606.6,4,5,237.3,0.352
53.35,1,-0.029,-0.005,-0.01,-0.056,0.005,-0.014,-1.531,0.015,0.173,53.05,100.7,40.503239,-3.368937,606.6,4,5,237.3,0.352
53.45,1,-0.02,-0.008,0.002,-0.042,-0.006,-0.009,-1.533,0.016,0.171,53.05,100.7,40.503239,-3.368937,606.6,4,5,237.3,0.352
53.55,1,-0.054,0.009,-0.012,-0.015,-0.001,0.002,-1.534,0.016,0.17,53.05,100.7,40.503239,-3.368937,606.6,4,5,237.3,0.352
53.66,1,-0.005,-0.002,-0.008,-0.029,0.003,-0.01,-1.533,0.014,0.169,53.05,100.7,40.503239,-3.368937,606.6,4,5,237.3,0.352
53.75,1,0.022,0.01,-0.003,-0.014,0.005,-0.014,-1.532,0.013,0.167,53.05,100.7,40.503239,-3.368937,606.6,4,5,237.3,0.352
53.85,1,-0.063,0.008,-0.009,-0.02,0.007,-0.004,-1.534,0.014,0.166,53.05,100.7,40.503239,-3.368937,606.6,4,5,237.3,0.352
53.95,1,-0.003,0.002,-0.019,-0.02,0.003,-0.006,-1.536,0.015,0.164,53.05,100.7,40.503239,-3.368937,606.6,4,5,237.3,0.352
54.05,1,-0.046,0.029,-0.004,-0.041,0.012,-0.015,-1.533,0.014,0.163,53.05,100.7,40.503239,-3.368937,606.6,4,5,237.3,0.352
54.17,1,0.038,-0.005,-0.003,0.007,0.011,-0.005,-1.532,0.012,0.162,53.05,100.7,40.503239,-3.368937,606.6,4,5,237.3,0.352
54.26,1,0.013,0.008,0.036,0.011,0.008,0.011,-1.531,0.011,0.161,54.07,101.2,40.503113,-3.369214,606.2,4,5,237.7,0.352
54.36,1,-0.015,-0.011,0.019,0.017,-0.002,0.021,-1.533,0.012,0.16,54.07,101.2,40.503113,-3.369214,606.2,4,5,237.7,0.352
54.46,1,0.008,-0.009,0.003,-0.001,-0.007,0.014,-1.535,0.013,0.158,54.07,101.2,40.503113,-3.369214,606.2,4,5,237.7,0.352
54.56,1,0.053,-0.0,0.009,0.021,-0.003,0.01,-1.537,0.015,0.157,54.07,101.2,40.503113,-3.369214,606.2,4,5,237.7,0.352
54.65,1,0.005,-0.018,0.003,0.014,-0.01,0.006,-1.536,0.018,0.157,54.07,101.2,40.503113,-3.369214,606.2,4,5,237.7,0.352
54.75,1,-0.026,-0.032,-0.034,-0.005,-0.02,-0.013,-1.534,0.02,0.157,54.07,101.2,40.503113,-3.369214,606.2,4,5,237.7,0.352
54.85,1,0.042,-0.027,-0.006,0.006,-0.025,-0.014,-1.532,0.022,0.157,54.07,101.2,40.503113,-3.369214,606.2,4,5,237.7,0.352
54.96,1,-0.035,-0.02,-0.032,0.01,-0.024,-0.018,-1.532,0.022,0.156,54.07,101.2,40.503113,-3.369214,606.2,4,5,237.7,0.352
55.05,1,-0.012,-0.007,-0.037,-0.019,-0.014,-0.029,-1.532,0.021,0.155,54.07,101.2,40.503113,-3.369214,606.2,4,5,237.7,0.352
55.15,1,-0.034,-0.019,-0.027,-0.011,-0.014,-0.03,-1.534,0.02,0.155,54.07,101.2,40.503113,-3.369214,606.2,4,5,237.7,0.352
55.26,1,-0.01,-0.001,-0.005,-0.016,-0.008,-0.02,-1.533,0.022,0.155,55.01,101.2,40.503113,-3.369214,606.2,4,5,237.7,0.352
55.36,1,0.004,-0.017,-0.002,-0.023,-0.017,-0.01,-1.534,0.025,0.155,55.01,101.2,40.503113,-3.369214,606.2,4,5,237.7,0.352
55.46,1,0.044,-0.014,-0.02,0.018,-0.014,-0.009,-1.535,0.029,0.155,55.01,101.2,40.503113,-3.369214,606.2,4,5,237.7,0.352
55.56,1,-0.022,-0.015,-0.011,0.003,-0.013,-0.02,-1.533,0.03,0.155,55.01,101.2,40.503113,-3.369214,606.2,4,5,237.7,0.352
55.66,1,0.009,-0.005,-0.002,0.005,-0.013,-0.0,-1.535,0.03,0.155,55.01,101.2,40.503113,-3.369214,606.2,4,5,237.7,0.352
55.76,1,-0.012,-0.03,-0.003,-0.008,-0.016,-0.006,-1.534,0.029,0.154,55.01,101.2,40.503113,-3.369214,606.2,4,5,237.7,0.352
55.86,1,-0.042,0.005,-0.041,-0.008,-0.009,-0.022,-1.528,0.03,0.154,55.01,101.2,40.503113,-3.369214,606.2,4,5,237.7,0.352
55.96,1,-0.078,-0.002,-0.04,-0.048,-0.001,-0.034,-1.527,0.031,0.154,55.01,101.2,40.503113,-3.369214,606.2,4,5,237.7,0.352
56.06,1,-0.033,-0.017,-0.004,-0.063,-0.014,-0.019,-1.527,0.032,0.154,55.01,101.2,40.503113,-3.369214,606.2,4,5,237.7,0.352
56.16,1,-0.016,-0.006,0.002,-0.032,-0.013,-0.01,-1.526,0.031,0.154,55.01,101.2,40.503113,-3.369214,606.2,4,5,237.7,0.352
56.26,1,0.013,0.005,-0.019,-0.004,0.001,-0.009,-1.523,0.028,0.153,56.02,98.6,40.502991,-3.369486,606.5,4,5,238.7,1.406
56.36,1,-0.023,0.005,-0.038,-0.013,-0.0,-0.029,-1.521,0.027,0.153,56.02,98.6,40.502991,-3.369486,606.5,4,5,238.7,1.406
56.46,1,-0.016,0.006,-0.011,-0.021,0.009,-0.021,-1.52,0.026,0.153,56.02,98.6,40.502991,-3.369486,606.5,4,5,238.7,1.406
56.57,1,-0.011,-0.003,0.003,0.0,0.002,-0.007,-1.516,0.024,0.152,56.02,98.6,40.502991,-3.369486,606.5,4,5,238.7,1.406
56.66,1,0.042,-0.021,0.036,-0.005,-0.011,0.012,-1.513,0.025,0.152,56.02,98.6,40.502991,-3.369486,606.5,4,5,238.7,1.406
56.76,1,-0.027,0.004,-0.019,0.014,-0.006,0.007,-1.511,0.025,0.151,56.02,98.6,40.502991,-3.369486,606.5,4,5,238.7,1.406
56.87,1,0.048,-0.005,0.062,0.016,-0.004,0.023,-1.516,0.023,0.151,56.02,98.6,40.502991,-3.369486,606.5,4,5,238.7,1.406
56.96,1,-0.056,-0.013,-0.014,-0.012,-0.009,0.016,-1.518,0.022,0.151,56.02,98.6,40.502991,-3.369486,606.5,4,5,238.7,1.406
57.06,1,0.024,-0.008,0.009,-0.012,-0.011,0.007,-1.521,0.022,0.151,56.02,98.6,40.502991,-3.369486,606.5,4,5,238.7,1.406
57.16,1,-0.036,-0.019,-0.009,-0.017,-0.012,-0.002,-1.519,0.021,0.151,56.02,98.6,40.502991,-3.369486,606.5,4,5,238.7,1.406
57.28,1,-0.027,-0.026,-0.013,-0.018,-0.021,-0.008,-1.518,0.021,0.151,57.0,100.4,40.502857,-3.369763,606.3,4,5,237.3,1.406
57.36,1,-0.049,-0.018,-0.009,-0.038,-0.019,-0.009,-1.518,0.021,0.15,57.0,100.4,40.502857,-3.369763,606.3,4,5,237.3,1.406
57.46,1,0.072,0.001,-0.009,0.01,-0.011,-0.007,-1.518,0.02,0.15,57.0,100.4,40.502857,-3.369763,606.3,4,5,237.3,1.406
57.56,1,-0.021,0.004,-0.035,0.021,-0.004,-0.015,-1.516,0.018,0.149,57.0,100.4,40.502857,-3.369763,606.3,4,5,237.3,1.406
57.67,1,0.016,0.017,0.006,0.006,0.008,-0.017,-1.511,0.015,0.149,57.0,100.4,40.502857,-3.369763,606.3,4,5,237.3,1.406
57.76,1,-0.1,0.035,-0.032,-0.029,0.024,-0.015,-1.508,0.016,0.147,57.0,100.4,40.502857,-3.369763,606.3,4,5,237.3,1.406
57.87,1,0.077,-0.001,0.032,-0.019,0.014,-0.004,-1.508,0.014,0.146,57.0,100.4,40.502857,-3.369763,606.3,4,5,237.3,1.406
57.96,1,-0.008,0.022,0.02,0.017,0.015,0.023,-1.507,0.009,0.144,57.0,100.4,40.502857,-3.369763,606.3,4,5,237.3,1.406
58.06,1,0.01,0.025,-0.01,0.012,0.019,-0.001,-1.506,0.008,0.143,57.0,100.4,40.502857,-3.369763,606.3,4,5,237.3,1.406
58.16,1,-0.085,0.042,-0.012,-0.028,0.03,0.001,-1.505,0.005,0.142,57.0,100.4,40.502857,-3.369763,606.3,4,5,237.3,1.406
58.26,1,0.083,0.015,0.03,-0.002,0.028,0.007,-1.505,0.003,0.14,58.03,99.4,40.502586,-3.370333,605.7,4,5,237.3,0.352
58.36,1,-0.069,0.006,-0.006,0.005,0.014,0.007,-1.504,0.003,0.138,58.03,99.4,40.502586,-3.370333,605.7,4,5,237.3,0.352
58.47,1,0.084,0.014,0.042,0.01,0.013,0.017,-1.505,0.002,0.136,58.03,99.4,40.502586,-3.370333,605.7,4,5,237.3,0.352
58.57,1,-0.016,0.04,0.009,0.022,0.023,0.023,-1.506,-0.001,0.134,58.03,99.4,40.502586,-3.370333,605.7,4,5,237.3,0.352
58.67,1,0.055,0.02,0.005,0.016,0.026,0.001,-1.507,-0.004,0.132,58.03,99.4,40.502586,-3.370333,605.7,4,5,237.3,0.352
58.77,1,0.118,0.06,0.03,0.075,0.041,0.027,-1.507,-0.005,0.13,58.03,99.4,40.502586,-3.370333,605.7,4,5,237.3,0.352
58.87,1,-0.05,0.005,0.004,0.019,0.034,0.011,-1.503,-0.004,0.129,58.03,99.4,40.502586,-3.370333,605.7,4,5,237.3,0.352
58.97,1,-0.036,-0.023,0.023,-0.004,-0.0,0.013,-1.503,-0.002,0.127,58.03,99.4,40.502586,-3.370333,605.7,4,5,237.3,0.352
59.07,1,-0.012,0.009,0.017,-0.015,-0.001,0.023,-1.505,-0.006,0.126,58.03,99.4,40.502586,-3.370333,605.7,4,5,237.3,0.352
59.17,1,-0.009,-0.04,0.008,-0.025,-0.012,0.01,-1.504,-0.007,0.125,58.03,99.4,40.502586,-3.370333,605.7,4,5,237.3,0.352
59.28,1,0.058,0.015,0.018,0.019,-0.011,0.017,-1.506,-0.006,0.124,59.03,100.0,40.502457,-3.370609,604.8,4,5,237.7,0.703
59.37,1,0.02,-0.023,-0.045,0.026,-0.01,-0.01,-1.503,-0.003,0.123,59.03,100.0,40.502457,-3.370609,604.8,4,5,237.7,0.703
59.47,1,-0.04,-0.028,0.007,0.001,-0.022,-0.014,-1.506,0.001,0.122,59.03,100.0,40.502457,-3.370609,604.8,4,5,237.7,0.703
59.57,1,-0.037,-0.012,-0.021,-0.03,-0.018,-0.006,-1.51,0.001,0.123,59.03,100.0,40.502457,-3.370609,604.8,4,5,237.7,0.703
59.67,1,-0.038,-0.012,0.002,-0.031,-0.016,-0.01,-1.512,0.002,0.122,59.03,100.0,40.502457,-3.370609,604.8,4,5,237.7,0.703
59.77,1,-0.033,-0.025,-0.008,-0.034,-0.018,-0.005,-1.514,0.002,0.122,59.03,100.0,40.502457,-3.370609,604.8,4,5,237.7,0.703
59.87,1,-0.004,-0.002,0.003,-0.019,-0.011,-0.006,-1.515,0.002,0.121,59.03,100.0,40.502457,-3.370609,604.8,4,5,237.7,0.703
59.98,1,-0.003,-0.022,-0.004,-0.006,-0.012,0.003,-1.516,0.003,0.121,59.03,100.0,40.502457,-3.370609,604.8,4,5,237.7,0.703
60.07,1,-0.002,-0.02,-0.017,-0.006,-0.018,-0.013,-1.516,0.005,0.121,59.03,100.0,40.502457,-3.370609,604.8,4,5,237.7,0.703
60.17,1,-0.011,-0.012,-0.013,-0.009,-0.016,-0.012,-1.514,0.007,0.121,59.03,100.0,40.502457,-3.370609,604.8,4,5,237.7,0.703
60.27,1,0.031,-0.018,-0.013,0.006,-0.018,-0.011,-1.506,0.007,0.121,59.99,100.0,40.502457,-3.370609,604.8,4,5,237.7,0.703
60.37,1,-0.009,-0.001,-0.018,0.014,-0.01,-0.017,-1.496,0.008,0.119,59.99,100.0,40.502457,-3.370609,604.8,4,5,237.7,0.703
60.47,1,-0.03,-0.003,-0.005,-0.017,-0.004,-0.011,-1.494,0.011,0.118,59.99,100.0,40.502457,-3.370609,604.8,4,5,237.7,0.703
60.57,1,0.036,-0.038,-0.004,-0.004,-0.02,-0.003,-1.493,0.015,0.118,59.99,100.0,40.502457,-3.370609,604.8,4,5,237.7,0.703
60.67,1,-0.119,0.006,-0.026,-0.024,-0.012,-0.019,-1.495,0.014,0.117,59.99,100.0,40.502457,-3.370609,604.8,4,5,237.7,0.703
60.77,1,0.073,-0.02,-0.006,-0.015,-0.011,-0.01,-1.495,0.014,0.117,59.99,100.0,40.502457,-3.370609,604.8,4,5,237.7,0.703
60.88,1,-0.014,0.0,-0.02,0.008,-0.006,-0.014,-1.496,0.013,0.117,59.99,100.0,40.502457,-3.370609,604.8,4,5,237.7,0.703
60.97,1,-0.001,-0.021,-0.019,-0.01,-0.015,-0.019,-1.496,0.013,0.117,59.99,100.0,40.502457,-3.370609,604.8,4,5,237.7,0.703
61.08,1,-0.016,-0.009,-0.009,-0.007,-0.013,-0.018,-1.496,0.012,0.116,59.99,100.0,40.502457,-3.370609,604.8,4,5,237.7,0.703
61.18,1,-0.019,-0.012,-0.017,-0.012,-0.009,-0.01,-1.501,0.012,0.117,59.99,100.0,40.502457,-3.370609,604.8,4,5,237.7,0.703
61.27,1,-0.003,-0.005,0.008,-0.01,-0.014,-0.005,-1.505,0.015,0.117,61.05,98.1,40.502197,-3.371154,604.8,3,5,237.7,0.703
61.37,1,-0.023,-0.001,-0.047,-0.015,-0.0,-0.024,-1.506,0.016,0.117,61.05,98.1,40.502197,-3.371154,604.8,3,5,237.7,0.703
61.47,1,-0.005,-0.06,-0.001,-0.014,-0.032,-0.02,-1.507,0.019,0.118,61.05,98.1,40.502197,-3.371154,604.8,3,5,237.7,0.703
61.57,1,0.01,0.006,-0.013,-0.001,-0.019,-0.01,-1.503,0.017,0.118,61.05,98.1,40.502197,-3.371154,604.8,3,5,237.7,0.703
61.68,1,-0.011,0.0,-0.019,-0.0,0.0,-0.013,-1.502,0.017,0.116,61.05,98.1,40.502197,-3.371154,604.8,3,5,237.7,0.703
61.77,1,-0.038,0.008,-0.013,-0.024,0.0,-0.017,-1.506,0.019,0.115,61.05,98.1,40.502197,-3.371154,604.8,3,5,237.7,0.703
61.87,1,-0.02,0.029,0.03,-0.029,0.008,0.006,-1.511,0.021,0.115,61.05,98.1,40.502197,-3.371154,604.8,3,5,237.7,0.703
61.97,1,0.037,-0.0,0.019,0.011,0.02,0.02,-1.506,0.016,0.115,61.05,98.1,40.502197,-3.371154,604.8,3,5,237.7,0.703
62.07,1,0.055,-0.013,-0.05,0.039,-0.002,-0.015,-1.5,0.015,0.114,61.05,98.1,40.502197,-3.371154,604.8,3,5,237.7,0.703
62.18,1,0.019,0.032,-0.011,0.029,0.004,-0.016,-1.495,0.014,0.113,61.05,98.1,40.502197,-3.371154,604.8,3,5,237.7,0.703
62.29,1,-0.08,0.065,-0.017,-0.016,0.042,-0.023,-1.494,0.016,0.109,62.0,98.1,40.502197,-3.371154,604.8,3,5,237.7,0.352
62.38,1,-0.038,-0.046,-0.001,-0.049,0.011,-0.005,-1.496,0.021,0.109,62.0,98.1,40.502197,-3.371154,604.8,3,5,237.7,0.352
62.48,1,-0.044,-0.042,-0.035,-0.044,-0.026,-0.023,-1.495,0.025,0.113,62.0,98.1,40.502197,-3.371154,604.8,3,5,237.7,0.352
62.58,1,-0.011,-0.026,0.001,-0.026,-0.029,-0.009,-1.5,0.025,0.114,62.0,98.1,40.502197,-3.371154,604.8,3,5,237.7,0.352
62.68,1,0.006,-0.026,0.011,-0.011,-0.03,-0.002,-1.5,0.026,0.114,62.0,98.1,40.502197,-3.371154,604.8,3,5,237.7,0.352
62.78,1,0.017,-0.016,0.001,0.007,-0.023,0.0,-1.497,0.027,0.114,62.0,98.1,40.502197,-3.371154,604.8,3,5,237.7,0.352
62.88,1,-0.014,-0.022,0.014,0.003,-0.016,0.004,-1.499,0.027,0.115,62.0,98.1,40.502197,-3.371154,604.8,3,5,237.7,0.352
62.98,1,-0.031,-0.048,0.001,-0.021,-0.033,0.011,-1.505,0.028,0.117,62.0,98.1,40.502197,-3.371154,604.8,3,5,237.7,0.352
63.08,1,0.003,-0.031,-0.018,-0.014,-0.034,-0.006,-1.508,0.027,0.118,62.0,98.1,40.502197,-3.371154,604.8,3,5,237.7,0.352
63.18,1,-0.026,-0.031,0.029,-0.013,-0.037,0.003,-1.523,0.025,0.123,62.0,98.1,40.502197,-3.371154,604.8,3,5,237.7,0.352
63.28,1,0.025,0.004,0.031,-0.002,-0.015,0.023,-1.516,0.026,0.122,62.99,97.6,40.50206,-3.371425,604.9,3,5,237.3,0.703
63.38,1,0.039,-0.006,-0.003,0.022,-0.005,0.012,-1.507,0.027,0.121,62.99,97.6,40.50206,-3.371425,604.9,3,5,237.3,0.703
63.48,1,0.021,-0.012,0.017,0.028,-0.007,0.015,-1.507,0.029,0.122,62.99,97.6,40.50206,-3.371425,604.9,3,5,237.3,0.703
63.59,1,-0.023,-0.014,0.022,0.009,-0.014,0.018,-1.509,0.033,0.122,62.99,97.6,40.50206,-3.371425,604.9,3,5,237.3,0.703
63.68,1,-0.03,-0.021,0.005,-0.024,-0.017,0.009,-1.51,0.033,0.122,62.99,97.6,40.50206,-3.371425,604.9,3,5,237.3,0.703
63.78,1,-0.015,-0.005,0.024,-0.014,-0.014,0.018,-1.511,0.033,0.121,62.99,97.6,40.50206,-3.371425,604.9,3,5,237.3,0.703
63.88,1,-0.032,0.041,0.066,-0.027,0.007,0.041,-1.513,0.031,0.121,62.99,97.6,40.50206,-3.371425,604.9,3,5,237.3,0.703
63.99,1,0.026,0.023,0.005,-0.006,0.025,0.03,-1.511,0.031,0.12,62.99,97.6,40.50206,-3.371425,604.9,3,5,237.3,0.703
64.09,1,0.075,0.012,0.013,0.033,0.02,0.018,-1.51,0.032,0.12,62.99,97.6,40.50206,-3.371425,604.9,3,5,237.3,0.703
64.18,1,0.022,0.001,0.018,0.039,0.01,0.016,-1.51,0.033,0.12,62.99,97.6,40.50206,-3.371425,604.9,3,5,237.3,0.703
64.28,1,0.047,0.021,0.04,0.042,0.008,0.025,-1.513,0.031,0.119,64.08,94.8,40.501801,-3.371955,603.9,3,5,237.3,0.352
64.38,1,-0.025,0.032,0.014,0.017,0.025,0.025,-1.514,0.027,0.119,64.08,94.8,40.501801,-3.371955,603.9,3,5,237.3,0.352
64.48,1,-0.041,0.011,-0.012,-0.014,0.024,0.009,-1.51,0.028,0.118,64.08,94.8,40.501801,-3.371955,603.9,3,5,237.3,0.352
64.59,1,-0.044,0.0,0.021,-0.049,0.007,0.005,-1.511,0.028,0.118,64.08,94.8,40.501801,-3.371955,603.9,3,5,237.3,0.352
64.68,1,0.072,0.022,0.001,0.01,0.014,0.013,-1.512,0.025,0.117,64.08,94.8,40.501801,-3.371955,603.9,3,5,237.3,0.352
64.79,1,-0.018,0.029,0.025,0.018,0.021,0.011,-1.511,0.027,0.117,64.08,94.8,40.501801,-3.371955,603.9,3,5,237.3,0.352
64.89,1,-0.048,0.045,0.0,-0.012,0.031,0.014,-1.513,0.023,0.116,64.08,94.8,40.501801,-3.371955,603.9,3,5,237.3,0.352
64.98,1,-0.11,0.017,0.039,-0.068,0.031,0.018,-1.513,0.02,0.115,64.08,94.8,40.501801,-3.371955,603.9,3,5,237.3,0.352
65.08,1,-0.029,0.017,-0.028,-0.063,0.018,0.007,-1.516,0.016,0.114,64.08,94.8,40.501801,-3.371955,603.9,3,5,237.3,0.352
65.18,1,0.065,0.02,-0.008,0.002,0.02,-0.012,-1.515,0.015,0.114,64.08,94.8,40.501801,-3.371955,603.9,3,5,237.3,0.352
65.28,1,0.009,0.011,0.011,0.029,0.016,0.001,-1.515,0.016,0.113,65.0,94.8,40.501801,-3.371955,603.9,3,5,237.3,0.352
65.39,1,-0.032,0.015,0.013,-0.01,0.017,0.006,-1.516,0.014,0.112,65.0,94.8,40.501801,-3.371955,603.9,3,5,237.3,0.352
65.5,1,-0.055,-0.014,0.016,-0.038,0.006,0.01,-1.52,0.014,0.112,65.0,94.8,40.501801,-3.371955,603.9,3,5,237.3,0.352
65.59,1,0.027,-0.014,0.072,-0.017,-0.009,0.041,-1.525,0.015,0.112,65.0,94.8,40.501801,-3.371955,603.9,3,5,237.3,0.352
65.68,1,-0.04,0.002,0.03,-0.013,-0.003,0.045,-1.529,0.015,0.112,65.0,94.8,40.501801,-3.371955,603.9,3,5,237.3,0.352
65.79,1,-0.11,0.002,-0.006,-0.058,-0.0,0.019,-1.532,0.013,0.111,65.0,94.8,40.501801,-3.371955,603.9,3,5,237.3,0.352
65.89,1,0.001,-0.022,0.017,-0.063,-0.009,0.009,-1.535,0.01,0.111,65.0,94.8,40.501801,-3.371955,603.9,3,5,237.3,0.352
65.99,1,0.051,-0.004,0.017,0.015,-0.011,0.018,-1.542,0.007,0.111,65.0,94.8,40.501801,-3.371955,603.9,3,5,237.3,0.352
66.09,1,-0.002,-0.007,-0.015,0.026,-0.008,0.001,-1.54,0.007,0.111,65.0,94.8,40.501801,-3.371955,603.9,3,5,237.3,0.352
66.19,1,-0.075,-0.012,0.031,-0.029,-0.008,0.007,-1.542,0.009,0.112,65.0,94.8,40.501801,-3.371955,603.9,3,5,237.3,0.352
66.29,1,0.001,-0.012,0.031,-0.027,-0.011,0.023,-1.546,0.011,0.112,65.99,92.6,40.501671,-3.372205,603.4,3,5,237.0,0.703
66.39,1,0.01,-0.008,0.037,-0.008,-0.011,0.035,-1.55,0.009,0.111,65.99,92.6,40.501671,-3.372205,603.4,3,5,237.0,0.703
66.49,1,-0.041,-0.005,0.025,-0.013,-0.005,0.027,-1.552,0.008,0.111,65.99,92.6,40.501671,-3.372205,603.4,3,5,237.0,0.703
66.6,1,-0.023,-0.008,0.013,-0.028,-0.005,0.025,-1.554,0.006,0.111,65.99,92.6,40.501671,-3.372205,603.4,3,5,237.0,0.703
66.7,1,-0.033,-0.027,0.007,-0.029,-0.017,0.011,-1.556,0.006,0.111,65.99,92.6,40.501671,-3.372205,603.4,3,5,237.0,0.703
66.79,1,0.007,-0.015,0.007,-0.018,-0.02,0.012,-1.558,0.006,0.111,65.99,92.6,40.501671,-3.372205,603.4,3,5,237.0,0.703
66.89,1,-0.02,0.009,0.016,-0.011,-0.006,0.012,-1.557,0.006,0.111,65.99,92.6,40.501671,-3.372205,603.4,3,5,237.0,0.703
66.99,1,0.019,-0.001,0.007,0.005,0.001,0.015,-1.555,0.004,0.111,65.99,92.6,40.501671,-3.372205,603.4,3,5,237.0,0.703
67.09,1,0.001,0.0,-0.002,0.004,0.001,0.002,-1.553,0.002,0.11,65.99,92.6,40.501671,-3.372205,603.4,3,5,237.0,0.703
67.2,1,-0.009,0.014,0.026,-0.004,0.005,0.012,-1.554,0.002,0.11,65.99,92.6,40.501671,-3.372205,603.4,3,5,237.0,0.703
67.29,1,-0.013,0.0,-0.005,-0.011,0.007,0.013,-1.553,0.001,0.109,67.06,93.3,40.501423,-3.372715,603.3,4,5,237.3,0.352
67.39,1,-0.004,-0.01,-0.002,-0.004,-0.0,-0.007,-1.551,0.003,0.108,67.06,93.3,40.501423,-3.372715,603.3,4,5,237.3,0.352
67.49,1,-0.055,0.032,-0.001,-0.026,0.006,-0.003,-1.552,0.004,0.107,67.06,93.3,40.501423,-3.372715,603.3,4,5,237.3,0.352
67.59,1,-0.004,0.004,0.049,-0.029,0.011,0.02,-1.557,0.005,0.107,67.06,93.3,40.501423,-3.372715,603.3,4,5,237.3,0.352
67.69,1,-0.001,-0.001,0.021,-0.007,0.006,0.03,-1.558,0.006,0.106,67.06,93.3,40.501423,-3.372715,603.3,4,5,237.3,0.352
67.8,1,-0.034,-0.011,0.057,-0.016,-0.002,0.038,-1.561,0.006,0.106,67.06,93.3,40.501423,-3.372715,603.3,4,5,237.3,0.352
67.9,1,-0.038,-0.009,0.026,-0.038,-0.006,0.034,-1.565,0.006,0.105,67.06,93.3,40.501423,-3.372715,603.3,4,5,237.3,0.352
67.99,1,-0.071,-0.021,0.044,-0.052,-0.015,0.04,-1.57,0.004,0.105,67.06,93.3,40.501423,-3.372715,603.3,4,5,237.3,0.352
68.09,1,0.063,-0.011,0.037,-0.004,-0.017,0.042,-1.571,0.002,0.104,67.06,93.3,40.501423,-3.372715,603.3,4,5,237.3,0.352
68.19,1,-0.056,0.0,0.046,-0.007,-0.001,0.038,-1.571,0.003,0.104,67.06,93.3,40.501423,-3.372715,603.3,4,5,237.3,0.352
68.29,1,0.035,0.001,0.005,-0.011,-0.002,0.033,-1.569,0.001,0.104,67.99,93.3,40.501423,-3.372715,603.3,4,5,237.3,0.352
68.41,1,0.003,-0.038,-0.019,0.02,-0.02,0.003,-1.567,0.004,0.105,67.99,93.3,40.501423,-3.372715,603.3,4,5,237.3,0.352
68.49,1,-0.071,-0.034,0.03,-0.019,-0.029,0.003,-1.569,0.004,0.105,67.99,93.3,40.501423,-3.372715,603.3,4,5,237.3,0.352
68.59,1,-0.072,-0.014,0.006,-0.062,-0.025,0.018,-1.57,0.003,0.105,67.99,93.3,40.501423,-3.372715,603.3,4,5,237.3,0.352
68.69,1,0.048,-0.021,-0.003,-0.017,-0.017,0.003,-1.569,0.001,0.105,67.99,93.3,40.501423,-3.372715,603.3,4,5,237.3,0.352
68.79,1,-0.015,0.01,-0.001,0.003,-0.012,0.0,-1.572,0.001,0.105,67.99,93.3,40.501423,-3.372715,603.3,4,5,237.3,0.352
68.89,1,-0.04,-0.009,0.001,-0.036,0.001,0.003,-1.573,0.002,0.106,67.99,93.3,40.501423,-3.372715,603.3,4,5,237.3,0.352
68.99,1,0.057,-0.025,0.039,0.003,-0.014,0.01,-1.574,0.003,0.106,67.99,93.3,40.501423,-3.372715,603.3,4,5,237.3,0.352
69.11,1,0.041,-0.01,-0.009,0.04,-0.016,0.011,-1.575,0.006,0.105,67.99,93.3,40.501423,-3.372715,603.3,4,5,237.3,0.352
69.2,1,-0.051,-0.032,0.014,0.003,-0.022,0.011,-1.573,0.009,0.105,67.99,93.3,40.501423,-3.372715,603.3,4,5,237.3,0.352
69.3,1,0.04,0.004,0.013,-0.002,-0.02,0.006,-1.574,0.006,0.105,68.99,93.5,40.501293,-3.372972,602.9,4,5,237.0,0.352
69.43,1,-0.011,0.037,0.02,0.024,0.017,0.021,-1.575,0.001,0.104,68.99,93.5,40.501293,-3.372972,602.9,4,5,237.0,0.352
69.5,1,-0.046,-0.003,0.009,-0.038,0.011,0.013,-1.572,-0.002,0.103,68.99,93.5,40.501293,-3.372972,602.9,4,5,237.0,0.352
69.6,1,-0.07,0.02,-0.026,-0.034,0.004,-0.005,-1.572,-0.002,0.102,68.99,93.5,40.501293,-3.372972,602.9,4,5,237.0,0.352
69.7,1,0.005,0.002,0.004,-0.041,0.013,-0.001,-1.574,-0.001,0.1,68.99,93.5,40.501293,-3.372972,602.9,4,5,237.0,0.352
69.8,1,-0.047,0.019,0.001,-0.021,0.014,-0.005,-1.571,0.001,0.099,68.99,93.5,40.501293,-3.372972,602.9,4,5,237.0,0.352
69.9,1,0.006,0.019,0.013,-0.01,0.014,0.009,-1.573,0.003,0.098,68.99,93.5,40.501293,-3.372972,602.9,4,5,237.0,0.352
70.0,1,-0.075,0.021,-0.001,-0.047,0.024,-0.0,-1.573,0.006,0.097,68.99,93.5,40.501293,-3.372972,602.9,4,5,237.0,0.352
70.11,1,0.063,-0.014,0.022,-0.005,0.001,0.007,-1.573,0.006,0.096,68.99,93.5,40.501293,-3.372972,602.9,4,5,237.0,0.352
70.2,1,-0.046,-0.001,0.063,0.003,-0.004,0.04,-1.572,0.005,0.096,68.99,93.5,40.501293,-3.372972,602.9,4,5,237.0,0.352
70.31,1,-0.047,-0.004,-0.009,-0.042,-0.001,0.024,-1.572,0.003,0.096,70.01,95.4,40.501156,-3.373231,602.6,4,5,237.3,0.352
70.4,1,0.064,-0.044,0.0,0.002,-0.018,0.007,-1.571,0.004,0.096,70.01,95.4,40.501156,-3.373231,602.6,4,5,237.3,0.352
70.5,1,-0.024,0.009,0.025,0.016,-0.012,0.011,-1.572,0.005,0.095,70.01,95.4,40.501156,-3.373231,602.6,4,5,237.3,0.352
70.66,1,-0.029,0.01,0.041,-0.034,0.002,0.03,-1.576,0.004,0.095,70.01,95.4,40.501156,-3.373231,602.6,4,5,237.3,0.352
70.7,1,0.039,-0.017,0.044,0.03,-0.002,0.034,-1.575,0.004,0.095,70.01,95.4,40.501156,-3.373231,602.6,4,5,237.3,0.352
70.81,1,-0.053,-0.023,0.011,-0.016,-0.017,0.032,-1.573,0.003,0.095,70.01,95.4,40.501156,-3.373231,602.6,4,5,237.3,0.352
70.9,1,-0.008,-0.0,-0.002,-0.03,-0.017,0.01,-1.572,0.001,0.094,70.01,95.4,40.501156,-3.373231,602.6,4,5,237.3,0.352
71.01,1,-0.029,0.028,0.011,-0.009,0.013,0.007,-1.573,-0.003,0.094,70.01,95.4,40.501156,-3.373231,602.6,4,5,237.3,0.352
71.1,1,0.014,-0.015,0.009,-0.016,0.004,0.01,-1.576,-0.001,0.093,70.01,95.4,40.501156,-3.373231,602.6,4,5,237.3,0.352
71.2,1,0.01,0.0,0.014,0.004,-0.005,0.012,-1.579,0.002,0.093,70.01,95.4,40.501156,-3.373231,602.6,4,5,237.3,0.352
71.31,1,-0.027,0.014,-0.007,-0.014,0.005,0.006,-1.578,0.003,0.092,71.0,95.5,40.501026,-3.373492,602.7,4,5,236.6,0.703
71.4,1,0.047,-0.001,-0.025,0.014,0.004,-0.012,-1.575,0.005,0.091,71.0,95.5,40.501026,-3.373492,602.7,4,5,236.6,0.703
71.51,1,-0.074,0.009,-0.034,-0.014,0.008,-0.026,-1.578,0.006,0.091,71.0,95.5,40.501026,-3.373492,602.7,4,5,236.6,0.703
71.6,1,-0.029,-0.027,0.004,-0.046,-0.004,-0.017,-1.579,0.007,0.091,71.0,95.5,40.501026,-3.373492,602.7,4,5,236.6,0.703
71.7,1,0.021,-0.029,-0.011,-0.005,-0.024,-0.002,-1.577,0.009,0.091,71.0,95.5,40.501026,-3.373492,602.7,4,5,236.6,0.703
71.8,1,-0.037,0.005,-0.023,-0.004,-0.014,-0.016,-1.572,0.01,0.091,71.0,95.5,40.501026,-3.373492,602.7,4,5,236.6,0.703
71.91,1,-0.035,0.015,-0.014,-0.036,0.005,-0.023,-1.57,0.009,0.091,71.0,95.5,40.501026,-3.373492,602.7,4,5,236.6,0.703
72.01,1,0.02,-0.009,0.001,-0.009,-0.003,0.004,-1.573,0.01,0.091,71.0,95.5,40.501026,-3.373492,602.7,4,5,236.6,0.703
72.1,1,0.017,-0.006,-0.017,0.004,-0.008,-0.019,-1.57,0.014,0.091,71.0,95.5,40.501026,-3.373492,602.7,4,5,236.6,0.703
72.2,1,0.01,0.01,-0.025,0.018,0.004,-0.017,-1.57,0.015,0.091,71.0,95.5,40.501026,-3.373492,602.7,4,5,236.6,0.703
72.3,1,-0.006,-0.012,-0.028,0.002,-0.002,-0.021,-1.569,0.016,0.092,72.02,97.8,40.500748,-3.374023,602.0,4,5,237.3,0.703
72.4,1,-0.008,-0.009,0.006,-0.005,-0.003,-0.016,-1.57,0.016,0.092,72.02,97.8,40.500748,-3.374023,602.0,4,5,237.3,0.703
72.52,1,0.007,-0.036,0.007,0.009,-0.021,0.002,-1.57,0.019,0.092,72.02,97.8,40.500748,-3.374023,602.0,4,5,237.3,0.703
72.61,1,-0.028,-0.007,-0.002,-0.013,-0.02,-0.003,-1.568,0.018,0.093,72.02,97.8,40.500748,-3.374023,602.0,4,5,237.3,0.703
72.72,1,0.03,0.011,0.014,0.004,-0.006,0.008,-1.57,0.014,0.093,72.02,97.8,40.500748,-3.374023,602.0,4,5,237.3,0.703
72.81,1,-0.051,0.018,0.003,-0.017,0.012,0.009,-1.568,0.014,0.093,72.02,97.8,40.500748,-3.374023,602.0,4,5,237.3,0.703
72.91,1,-0.049,-0.015,0.018,-0.037,0.003,0.004,-1.569,0.015,0.093,72.02,97.8,40.500748,-3.374023,602.0,4,5,237.3,0.703
73.01,1,-0.011,-0.01,0.043,-0.027,-0.008,0.03,-1.574,0.017,0.093,72.02,97.8,40.500748,-3.374023,602.0,4,5,237.3,0.703
73.11,1,-0.009,-0.016,-0.003,-0.024,-0.009,0.02,-1.573,0.017,0.093,72.02,97.8,40.500748,-3.374023,602.0,4,5,237.3,0.703
73.21,1,0.027,0.019,0.042,0.013,0.001,0.023,-1.573,0.016,0.093,72.02,97.8,40.500748,-3.374023,602.0,4,5,237.3,0.703
73.31,1,-0.011,0.012,-0.022,0.011,0.011,0.005,-1.574,0.014,0.093,73.01,97.8,40.500748,-3.374023,602.0,4,5,237.3,0.703
73.41,1,-0.012,0.012,0.015,-0.004,0.005,0.003,-1.574,0.013,0.093,73.01,97.8,40.500748,-3.374023,602.0,4,5,237.3,0.703
73.52,1,-0.096,0.024,-0.002,-0.05,0.02,0.004,-1.575,0.012,0.092,73.01,97.8,40.500748,-3.374023,602.0,4,5,237.3,0.703
73.61,1,0.082,0.013,-0.001,-0.007,0.017,0.005,-1.574,0.012,0.092,73.01,97.8,40.500748,-3.374023,602.0,4,5,237.3,0.703
73.71,1,-0.034,0.015,-0.026,0.004,0.015,-0.008,-1.571,0.01,0.093,73.01,97.8,40.500748,-3.374023,602.0,4,5,237.3,0.703
73.81,1,-0.027,0.011,0.002,-0.015,0.015,-0.015,-1.568,0.012,0.093,73.01,97.8,40.500748,-3.374023,602.0,4,5,237.3,0.703
73.91,1,-0.038,-0.019,-0.014,-0.027,-0.002,-0.007,-1.566,0.016,0.093,73.01,97.8,40.500748,-3.374023,602.0,4,5,237.3,0.703
74.01,1,0.013,-0.007,0.015,-0.021,-0.011,0.001,-1.566,0.018,0.092,73.01,97.8,40.500748,-3.374023,602.0,4,5,237.3,0.703
74.21,1,0.05,-0.003,0.022,-0.0,-0.005,0.005,-1.563,0.017,0.092,73.01,97.8,40.500748,-3.374023,602.0,4,5,237.3,0.703
74.31,1,-0.087,-0.004,-0.007,-0.025,-0.005,0.005,-1.561,0.016,0.092,73.01,97.8,40.500748,-3.374023,602.0,4,5,237.3,0.703
74.41,1,0.007,-0.011,0.02,-0.02,-0.004,0.003,-1.562,0.017,0.092,74.06,100.0,40.500481,-3.374562,601.9,4,5,237.0,0.352
74.52,1,0.01,-0.028,0.012,-0.001,-0.02,0.015,-1.564,0.017,0.093,74.06,100.0,40.500481,-3.374562,601.9,4,5,237.0,0.352
74.61,1,0.045,-0.011,-0.008,0.014,-0.018,0.003,-1.561,0.018,0.094,74.06,100.0,40.500481,-3.374562,601.9,4,5,237.0,0.352
74.71,1,-0.032,-0.009,-0.013,0.012,-0.011,-0.005,-1.561,0.019,0.094,74.06,100.0,40.500481,-3.374562,601.9,4,5,237.0,0.352
74.81,1,-0.025,0.02,0.012,-0.03,-0.005,-0.003,-1.561,0.017,0.094,74.06,100.0,40.500481,-3.374562,601.9,4,5,237.0,0.352
74.91,1,-0.099,0.013,-0.001,-0.047,0.016,0.005,-1.564,0.015,0.094,74.06,100.0,40.500481,-3.374562,601.9,4,5,237.0,0.352
75.01,1,0.026,-0.02,0.01,-0.031,-0.002,0.003,-1.565,0.018,0.094,74.06,100.0,40.500481,-3.374562,601.9,4,5,237.0,0.352
75.11,1,0.059,-0.005,-0.006,0.02,-0.009,-0.0,-1.565,0.02,0.094,74.06,100.0,40.500481,-3.374562,601.9,4,5,237.0,0.352
75.21,1,-0.113,-0.004,-0.035,-0.029,-0.004,-0.014,-1.565,0.021,0.095,74.06,100.0,40.500481,-3.374562,601.9,4,5,237.0,0.352
75.31,1,0.055,0.0,0.006,-0.012,-0.002,-0.012,-1.563,0.022,0.095,74.06,100.0,40.500481,-3.374562,601.9,4,5,237.0,0.352
75.41,1,0.023,0.001,-0.009,0.023,-0.001,-0.006,-1.558,0.023,0.095,74.99,100.0,40.500481,-3.374562,601.9,4,5,237.0,0.352
75.51,1,0.002,-0.008,0.008,-0.002,-0.007,-0.004,-1.556,0.022,0.096,74.99,100.0,40.500481,-3.374562,601.9,4,5,237.0,0.352
75.62,1,0.004,0.004,0.016,0.025,-0.002,0.008,-1.555,0.022,0.096,74.99,100.0,40.500481,-3.374562,601.9,4,5,237.0,0.352
75.72,1,0.003,0.001,-0.015,-0.006,0.003,0.001,-1.553,0.021,0.095,74.99,100.0,40.500481,-3.374562,601.9,4,5,237.0,0.352
75.82,1,-0.051,0.039,-0.0,-0.003,0.019,0.001,-1.553,0.017,0.095,74.99,100.0,40.500481,-3.374562,601.9,4,5,237.0,0.352
75.92,1,0.043,-0.007,0.01,-0.004,0.015,0.003,-1.554,0.016,0.095,74.99,100.0,40.500481,-3.374562,601.9,4,5,237.0,0.352
76.02,1,0.038,-0.002,0.017,0.024,-0.005,0.011,-1.556,0.017,0.095,74.99,100.0,40.500481,-3.374562,601.9,4,5,237.0,0.352
76.12,1,0.022,0.03,-0.006,0.017,0.012,0.002,-1.555,0.014,0.094,74.99,100.0,40.500481,-3.374562,601.9,4,5,237.0,0.352
76.22,1,-0.039,-0.005,-0.012,0.004,0.012,-0.005,-1.553,0.012,0.094,74.99,100.0,40.500481,-3.374562,601.9,4,5,237.0,0.352
76.32,1,0.026,0.005,-0.014,-0.016,0.002,-0.009,-1.552,0.012,0.094,74.99,100.0,40.500481,-3.374562,601.9,4,5,237.0,0.352
76.42,1,-0.044,-0.004,-0.026,-0.002,0.001,-0.019,-1.549,0.013,0.095,76.0,99.9,40.50034,-3.374834,601.8,4,5,237.0,0.0
76.52,1,-0.065,-0.027,-0.021,-0.048,-0.012,-0.022,-1.548,0.014,0.095,76.0,99.9,40.50034,-3.374834,601.8,4,5,237.0,0.0
76.62,1,-0.024,-0.005,-0.012,-0.029,-0.011,-0.013,-1.549,0.013,0.095,76.0,99.9,40.50034,-3.374834,601.8,4,5,237.0,0.0
76.72,1,0.066,0.021,-0.014,0.01,0.003,-0.014,-1.548,0.012,0.094,76.0,99.9,40.50034,-3.374834,601.8,4,5,237.0,0.0
76.82,1,-0.041,0.023,-0.007,0.011,0.015,-0.014,-1.547,0.013,0.095,76.0,99.9,40.50034,-3.374834,601.8,4,5,237.0,0.0
76.92,1,-0.005,-0.009,-0.009,-0.027,0.007,-0.011,-1.547,0.017,0.095,76.0,99.9,40.50034,-3.374834,601.8,4,5,237.0,0.0
77.03,1,-0.006,0.007,-0.001,-0.001,0.005,-0.004,-1.546,0.018,0.095,76.0,99.9,40.50034,-3.374834,601.8,4,5,237.0,0.0
77.13,1,-0.008,0.009,0.001,-0.015,0.003,-0.002,-1.546,0.018,0.095,76.0,99.9,40.50034,-3.374834,601.8,4,5,237.0,0.0
77.22,1,-0.035,-0.006,-0.021,-0.008,0.005,-0.007,-1.546,0.016,0.095,76.0,99.9,40.50034,-3.374834,601.8,4,5,237.0,0.0
77.32,1,-0.007,-0.02,-0.005,-0.023,-0.009,-0.015,-1.544,0.014,0.095,76.0,99.9,40.50034,-3.374834,601.8,4,5,237.0,0.0
77.42,1,-0.009,-0.008,0.015,-0.007,-0.011,0.004,-1.543,0.01,0.095,77.03,100.1,40.500202,-3.375113,601.6,4,5,237.0,0.0
77.53,1,0.051,0.03,-0.001,0.008,0.007,0.004,-1.543,0.009,0.095,77.03,100.1,40.500202,-3.375113,601.6,4,5,237.0,0.0
77.62,1,0.013,-0.007,-0.002,0.026,0.005,0.0,-1.543,0.009,0.095,77.03,100.1,40.500202,-3.375113,601.6,4,5,237.0,0.0
77.73,1,-0.031,0.01,-0.03,-0.004,0.004,-0.014,-1.542,0.008,0.094,77.03,100.1,40.500202,-3.375113,601.6,4,5,237.0,0.0
77.82,1,-0.003,0.026,-0.021,-0.004,0.016,-0.021,-1.54,0.008,0.093,77.03,100.1,40.500202,-3.375113,601.6,4,5,237.0,0.0
77.92,1,-0.026,0.021,-0.037,-0.017,0.022,-0.026,-1.538,0.006,0.092,77.03,100.1,40.500202,-3.375113,601.6,4,5,237.0,0.0
78.02,1,0.045,0.031,-0.028,0.01,0.022,-0.027,-1.536,0.006,0.091,77.03,100.1,40.500202,-3.375113,601.6,4,5,237.0,0.0
78.13,1,-0.007,0.027,-0.01,0.014,0.027,-0.019,-1.537,0.006,0.09,77.03,100.1,40.500202,-3.375113,601.6,4,5,237.0,0.0
78.22,1,-0.024,0.055,-0.005,-0.019,0.035,-0.016,-1.537,0.004,0.089,77.03,100.1,40.500202,-3.375113,601.6,4,5,237.0,0.0
78.32,1,-0.026,0.023,-0.01,-0.012,0.039,-0.014,-1.534,0.003,0.088,77.03,100.1,40.500202,-3.375113,601.6,4,5,237.0,0.0
78.42,1,0.003,-0.008,0.013,-0.019,0.013,0.001,-1.532,0.003,0.087,78.07,100.3,40.499924,-3.375659,600.9,3,5,236.6,0.352
78.52,1,0.065,-0.003,0.006,0.032,0.006,0.01,-1.529,0.001,0.087,78.07,100.3,40.499924,-3.375659,600.9,3,5,236.6,0.352
78.62,1,-0.059,-0.013,-0.041,-0.008,-0.006,-0.018,-1.527,0.001,0.087,78.07,100.3,40.499924,-3.375659,600.9,3,5,236.6,0.352
78.73,1,-0.052,-0.026,-0.004,-0.035,-0.015,-0.013,-1.527,0.005,0.087,78.07,100.3,40.499924,-3.375659,600.9,3,5,236.6,0.352
78.82,1,-0.037,-0.034,0.009,-0.04,-0.025,-0.006,-1.525,0.011,0.089,78.07,100.3,40.499924,-3.375659,600.9,3,5,236.6,0.352
78.93,1,-0.032,-0.039,0.006,-0.029,-0.034,0.009,-1.525,0.015,0.09,78.07,100.3,40.499924,-3.375659,600.9,3,5,236.6,0.352
79.02,1,-0.041,-0.042,-0.018,-0.037,-0.037,-0.004,-1.522,0.015,0.091,78.07,100.3,40.499924,-3.375659,600.9,3,5,236.6,0.352
79.12,1,0.088,-0.031,-0.011,0.019,-0.038,-0.013,-1.521,0.016,0.091,78.07,100.3,40.499924,-3.375659,600.9,3,5,236.6,0.352
79.22,1,-0.018,-0.026,-0.019,0.015,-0.032,-0.014,-1.518,0.019,0.092,78.07,100.3,40.499924,-3.375659,600.9,3,5,236.6,0.352
79.33,1,0.008,-0.018,0.039,0.006,-0.021,0.008,-1.522,0.017,0.092,78.07,100.3,40.499924,-3.375659,600.9,3,5,236.6,0.352
79.43,1,-0.014,0.024,0.021,0.0,-0.006,0.022,-1.525,0.016,0.092,79.03,98.9,40.499794,-3.375931,600.6,4,5,237.0,0.352
79.54,1,-0.026,-0.007,0.004,-0.022,0.002,0.01,-1.525,0.016,0.092,79.03,98.9,40.499794,-3.375931,600.6,4,5,237.0,0.352
79.63,1,-0.028,-0.017,0.032,-0.02,-0.007,0.021,-1.528,0.016,0.092,79.03,98.9,40.499794,-3.375931,600.6,4,5,237.0,0.352
79.73,1,-0.001,-0.02,-0.003,-0.022,-0.017,0.01,-1.528,0.017,0.093,79.03,98.9,40.499794,-3.375931,600.6,4,5,237.0,0.352
79.83,1,-0.022,-0.027,0.003,-0.014,-0.023,0.006,-1.529,0.019,0.093,79.03,98.9,40.499794,-3.375931,600.6,4,5,237.0,0.352
79.93,1,-0.054,-0.006,0.004,-0.035,-0.016,0.006,-1.529,0.019,0.094,79.03,98.9,40.499794,-3.375931,600.6,4,5,237.0,0.352
80.03,1,0.007,0.007,0.018,-0.014,-0.002,0.009,-1.531,0.02,0.094,79.03,98.9,40.499794,-3.375931,600.6,4,5,237.0,0.352
80.13,1,0.008,-0.04,0.014,-0.004,-0.02,0.014,-1.531,0.023,0.095,79.03,98.9,40.499794,-3.375931,600.6,4,5,237.0,0.352
80.24,1,-0.033,-0.023,-0.002,0.003,-0.018,0.006,-1.528,0.023,0.095,79.03,98.9,40.499794,-3.375931,600.6,4,5,237.0,0.352
80.33,1,-0.051,-0.0,0.028,-0.033,-0.014,0.016,-1.527,0.026,0.096,79.03,98.9,40.499794,-3.375931,600.6,4,5,237.0,0.352
80.43,1,0.064,0.036,-0.0,-0.009,0.008,0.01,-1.529,0.023,0.097,80.01,98.9,40.499794,-3.375931,600.6,4,5,237.0,0.352
80.53,1,0.015,0.004,0.013,0.018,0.011,0.004,-1.528,0.021,0.097,80.01,98.9,40.499794,-3.375931,600.6,4,5,237.0,0.352
80.63,1,-0.058,-0.028,0.008,-0.015,-0.004,0.012,-1.53,0.021,0.098,80.01,98.9,40.499794,-3.375931,600.6,4,5,237.0,0.352
80.73,1,0.052,0.001,0.038,0.005,-0.01,0.02,-1.529,0.022,0.098,80.01,98.9,40.499794,-3.375931,600.6,4,5,237.0,0.352
80.84,1,0.019,0.008,0.02,0.024,0.003,0.029,-1.53,0.022,0.099,80.01,98.9,40.499794,-3.375931,600.6,4,5,237.0,0.352
80.93,1,-0.019,-0.007,-0.019,0.006,0.001,0.007,-1.53,0.024,0.099,80.01,98.9,40.499794,-3.375931,600.6,4,5,237.0,0.352
81.03,1,0.027,-0.024,0.015,0.02,-0.011,0.007,-1.532,0.025,0.1,80.01,98.9,40.499794,-3.375931,600.6,4,5,237.0,0.352
81.13,1,-0.056,0.008,0.001,-0.016,-0.008,-0.0,-1.531,0.024,0.101,80.01,98.9,40.499794,-3.375931,600.6,4,5,237.0,0.352
81.23,1,0.032,-0.044,0.004,-0.014,-0.016,0.003,-1.528,0.026,0.102,80.01,98.9,40.499794,-3.375931,600.6,4,5,237.0,0.352
81.34,1,-0.025,0.004,0.004,0.002,-0.018,-0.0,-1.527,0.023,0.102,80.01,98.9,40.499794,-3.375931,600.6,4,5,237.0,0.352
81.44,1,-0.001,-0.011,0.015,-0.013,-0.005,0.012,-1.528,0.018,0.103,81.05,97.7,40.499508,-3.376478,600.3,3,5,235.5,1.406
81.53,1,-0.043,-0.033,0.029,-0.022,-0.022,0.017,-1.529,0.019,0.104,81.05,97.7,40.499508,-3.376478,600.3,3,5,235.5,1.406
81.63,1,-0.051,-0.052,-0.0,-0.039,-0.035,0.017,-1.53,0.021,0.107,81.05,97.7,40.499508,-3.376478,600.3,3,5,235.5,1.406
81.73,1,0.077,-0.045,-0.014,0.011,-0.043,-0.003,-1.53,0.022,0.109,81.05,97.7,40.499508,-3.376478,600.3,3,5,235.5,1.406
81.83,1,0.042,-0.065,0.024,0.036,-0.05,0.011,-1.528,0.026,0.111,81.05,97.7,40.499508,-3.376478,600.3,3,5,235.5,1.406
81.93,1,0.024,-0.035,0.029,0.026,-0.052,0.015,-1.526,0.026,0.113,81.05,97.7,40.499508,-3.376478,600.3,3,5,235.5,1.406
82.03,1,-0.069,-0.021,0.011,-0.001,-0.036,0.018,-1.525,0.026,0.114,81.05,97.7,40.499508,-3.376478,600.3,3,5,235.5,1.406
82.13,1,-0.1,-0.012,0.002,-0.074,-0.019,0.013,-1.528,0.027,0.116,81.05,97.7,40.499508,-3.376478,600.3,3,5,235.5,1.406
82.23,1,0.032,-0.031,0.035,-0.027,-0.024,0.017,-1.528,0.026,0.117,81.05,97.7,40.499508,-3.376478,600.3,3,5,235.5,1.406
82.33,1,-0.055,-0.018,-0.017,-0.027,-0.02,0.005,-1.526,0.028,0.118,81.05,97.7,40.499508,-3.376478,600.3,3,5,235.5,1.406
82.44,1,0.021,-0.055,0.01,-0.012,-0.042,0.006,-1.528,0.033,0.12,82.0,97.7,40.499508,-3.376478,600.3,3,5,235.5,1.406
82.53,1,-0.049,-0.017,0.029,-0.018,-0.035,0.013,-1.53,0.034,0.122,82.0,97.7,40.499508,-3.376478,600.3,3,5,235.5,1.406
82.64,1,0.149,-0.019,0.017,0.026,-0.022,0.024,-1.53,0.033,0.124,82.0,97.7,40.499508,-3.376478,600.3,3,5,235.5,1.406
82.73,1,-0.029,-0.015,-0.017,0.052,-0.014,-0.0,-1.53,0.033,0.126,82.0,97.7,40.499508,-3.376478,600.3,3,5,235.5,1.406
82.84,1,0.04,-0.028,0.031,0.023,-0.024,0.01,-1.53,0.032,0.128,82.0,97.7,40.499508,-3.376478,600.3,3,5,235.5,1.406
82.94,1,-0.076,0.027,0.011,-0.011,-0.008,0.018,-1.534,0.031,0.128,82.0,97.7,40.499508,-3.376478,600.3,3,5,235.5,1.406
83.04,1,-0.038,0.005,-0.005,-0.059,0.01,0.002,-1.536,0.029,0.128,82.0,97.7,40.499508,-3.376478,600.3,3,5,235.5,1.406
83.14,1,0.064,0.035,-0.001,0.015,0.017,0.001,-1.535,0.026,0.127,82.0,97.7,40.499508,-3.376478,600.3,3,5,235.5,1.406
83.25,1,0.018,0.045,-0.007,0.017,0.04,-0.002,-1.533,0.025,0.127,82.0,97.7,40.499508,-3.376478,600.3,3,5,235.5,1.406
83.34,1,-0.06,0.009,0.007,-0.009,0.021,0.002,-1.532,0.025,0.127,82.0,97.7,40.499508,-3.376478,600.3,3,5,235.5,1.406
83.44,1,0.014,0.026,-0.004,0.007,0.018,0.003,-1.532,0.018,0.126,83.07,98.4,40.499229,-3.377005,599.4,3,5,234.1,1.406
83.54,1,-0.06,0.04,-0.011,-0.027,0.032,-0.007,-1.533,0.014,0.125,83.07,98.4,40.499229,-3.377005,599.4,3,5,234.1,1.406
83.64,1,-0.078,0.012,-0.027,-0.061,0.026,-0.017,-1.535,0.012,0.124,83.07,98.4,40.499229,-3.377005,599.4,3,5,234.1,1.406
83.74,1,-0.029,0.031,-0.005,-0.039,0.023,-0.015,-1.538,0.008,0.124,83.07,98.4,40.499229,-3.377005,599.4,3,5,234.1,1.406
83.85,1,-0.08,0.048,0.002,-0.058,0.038,-0.001,-1.539,0.007,0.123,83.07,98.4,40.499229,-3.377005,599.4,3,5,234.1,1.406
83.94,1,0.088,0.039,0.021,-0.011,0.04,0.008,-1.54,0.007,0.121,83.07,98.4,40.499229,-3.377005,599.4,3,5,234.1,1.406
84.04,1,0.037,0.032,-0.017,0.045,0.039,-0.001,-1.541,0.004,0.119,83.07,98.4,40.499229,-3.377005,599.4,3,5,234.1,1.406
84.14,1,-0.041,0.041,-0.038,-0.012,0.038,-0.024,-1.54,0.001,0.117,83.07,98.4,40.499229,-3.377005,599.4,3,5,234.1,1.406
84.25,1,0.022,0.065,0.006,0.002,0.045,-0.013,-1.54,-0.002,0.114,83.07,98.4,40.499229,-3.377005,599.4,3,5,234.1,1.406
84.35,1,-0.096,0.071,0.002,-0.034,0.067,-0.001,-1.539,-0.002,0.112,83.07,98.4,40.499229,-3.377005,599.4,3,5,234.1,1.406
84.45,1,-0.022,0.032,-0.021,-0.047,0.051,-0.008,-1.539,-0.003,0.11,84.05,98.4,40.499229,-3.377005,599.4,3,5,234.1,1.406
84.55,1,0.002,0.043,-0.039,-0.012,0.042,-0.023,-1.535,-0.003,0.108,84.05,98.4,40.499229,-3.377005,599.4,3,5,234.1,1.406
84.64,1,0.016,0.042,-0.014,-0.001,0.04,-0.021,-1.537,-0.006,0.106,84.05,98.4,40.499229,-3.377005,599.4,3,5,234.1,1.406
84.74,1,0.006,0.05,-0.004,0.01,0.048,-0.016,-1.535,-0.011,0.103,84.05,98.4,40.499229,-3.377005,599.4,3,5,234.1,1.406
84.84,1,-0.038,0.014,0.009,-0.016,0.035,-0.002,-1.536,-0.011,0.101,84.05,98.4,40.499229,-3.377005,599.4,3,5,234.1,1.406
84.94,1,0.001,0.015,0.024,-0.015,0.021,0.007,-1.539,-0.013,0.099,84.05,98.4,40.499229,-3.377005,599.4,3,5,234.1,1.406
85.05,1,0.003,0.002,0.042,0.001,0.013,0.03,-1.546,-0.014,0.097,84.05,98.4,40.499229,-3.377005,599.4,3,5,234.1,1.406
85.14,1,0.013,-0.002,0.023,-0.004,0.007,0.03,-1.549,-0.015,0.096,84.05,98.4,40.499229,-3.377005,599.4,3,5,234.1,1.406
85.24,1,0.077,0.012,0.018,0.039,0.005,0.019,-1.551,-0.015,0.094,84.05,98.4,40.499229,-3.377005,599.4,3,5,234.1,1.406
85.34,1,-0.025,0.022,-0.0,0.027,0.013,0.018,-1.55,-0.018,0.093,84.05,98.4,40.499229,-3.377005,599.4,3,5,234.1,1.406
85.44,1,-0.047,0.019,0.008,-0.015,0.018,0.003,-1.548,-0.019,0.092,85.03,97.2,40.498951,-3.377537,599.4,3,5,235.2,1.055
85.55,1,-0.062,-0.007,0.034,-0.04,0.007,0.018,-1.552,-0.016,0.09,85.03,97.2,40.498951,-3.377537,599.4,3,5,235.2,1.055
85.65,1,-0.023,-0.018,0.004,-0.053,-0.005,0.021,-1.554,-0.015,0.09,85.03,97.2,40.498951,-3.377537,599.4,3,5,235.2,1.055
85.75,1,0.023,0.015,0.002,0.005,-0.002,0.001,-1.555,-0.014,0.089,85.03,97.2,40.498951,-3.377537,599.4,3,5,235.2,1.055
85.84,1,-0.067,0.003,0.009,-0.03,0.006,0.006,-1.556,-0.015,0.088,85.03,97.2,40.498951,-3.377537,599.4,3,5,235.2,1.055
85.94,1,0.015,-0.042,0.075,-0.023,-0.011,0.044,-1.564,-0.011,0.087,85.03,97.2,40.498951,-3.377537,599.4,3,5,235.2,1.055
86.04,1,-0.008,-0.023,-0.025,0.004,-0.029,0.021,-1.565,-0.007,0.087,85.03,97.2,40.498951,-3.377537,599.4,3,5,235.2,1.055
86.14,1,0.01,-0.06,-0.023,0.001,-0.04,-0.009,-1.562,-0.004,0.087,85.03,97.2,40.498951,-3.377537,599.4,3,5,235.2,1.055
86.25,1,0.041,-0.011,-0.003,0.014,-0.034,-0.015,-1.558,-0.004,0.086,85.03,97.2,40.498951,-3.377537,599.4,3,5,235.2,1.055
86.34,1,-0.002,0.02,-0.01,0.009,-0.004,-0.007,-1.554,-0.008,0.084,85.03,97.2,40.498951,-3.377537,599.4,3,5,235.2,1.055
86.44,1,-0.052,0.032,-0.002,-0.01,0.017,-0.004,-1.555,-0.014,0.081,86.03,98.2,40.498814,-3.377797,599.0,3,5,235.5,1.406
86.55,1,-0.026,0.038,-0.01,-0.03,0.028,-0.006,-1.556,-0.018,0.079,86.03,98.2,40.498814,-3.377797,599.0,3,5,235.5,1.406
86.65,1,-0.047,0.072,-0.022,-0.028,0.047,-0.013,-1.558,-0.023,0.077,86.03,98.2,40.498814,-3.377797,599.0,3,5,235.5,1.406
86.75,1,0.006,0.03,-0.017,-0.038,0.048,-0.018,-1.558,-0.025,0.075,86.03,98.2,40.498814,-3.377797,599.0,3,5,235.5,1.406
86.86,1,0.039,0.033,0.003,0.017,0.039,-0.011,-1.558,-0.023,0.073,86.03,98.2,40.498814,-3.377797,599.0,3,5,235.5,1.406
86.96,1,-0.012,0.027,-0.011,0.003,0.03,-0.003,-1.557,-0.022,0.07,86.03,98.2,40.498814,-3.377797,599.0,3,5,235.5,1.406
87.05,1,0.051,0.042,0.006,0.019,0.034,-0.004,-1.556,-0.024,0.068,86.03,98.2,40.498814,-3.377797,599.0,3,5,235.5,1.406
87.15,1,-0.064,0.012,-0.008,-0.002,0.027,-0.006,-1.555,-0.026,0.065,86.03,98.2,40.498814,-3.377797,599.0,3,5,235.5,1.406
87.25,1,-0.012,0.007,-0.013,-0.021,0.017,-0.005,-1.554,-0.027,0.063,86.03,98.2,40.498814,-3.377797,599.0,3,5,235.5,1.406
87.35,1,-0.058,0.002,0.033,-0.032,0.015,0.001,-1.554,-0.027,0.062,86.03,98.2,40.498814,-3.377797,599.0,3,5,235.5,1.406
87.45,1,-0.028,-0.046,0.042,-0.052,-0.019,0.032,-1.555,-0.024,0.062,87.0,98.1,40.498676,-3.378064,599.1,3,5,236.2,1.406
87.55,1,-0.081,-0.027,0.031,-0.039,-0.029,0.034,-1.555,-0.022,0.062,87.0,98.1,40.498676,-3.378064,599.1,3,5,236.2,1.406
87.65,1,-0.039,-0.053,0.032,-0.056,-0.035,0.033,-1.558,-0.021,0.062,87.0,98.1,40.498676,-3.378064,599.1,3,5,236.2,1.406
87.75,1,0.037,-0.046,0.034,-0.009,-0.045,0.032,-1.559,-0.019,0.062,87.0,98.1,40.498676,-3.378064,599.1,3,5,236.2,1.406
87.85,1,-0.003,-0.034,0.013,-0.001,-0.042,0.026,-1.561,-0.016,0.063,87.0,98.1,40.498676,-3.378064,599.1,3,5,236.2,1.406
87.96,1,0.061,-0.038,-0.003,0.018,-0.039,0.007,-1.559,-0.013,0.063,87.0,98.1,40.498676,-3.378064,599.1,3,5,236.2,1.406
88.05,1,0.016,-0.013,0.001,0.04,-0.026,0.01,-1.56,-0.011,0.063,87.0,98.1,40.498676,-3.378064,599.1,3,5,236.2,1.406
88.16,1,0.014,-0.038,-0.022,0.01,-0.028,-0.011,-1.559,-0.01,0.064,87.0,98.1,40.498676,-3.378064,599.1,3,5,236.2,1.406
88.25,1,0.041,-0.053,0.012,0.038,-0.043,-0.002,-1.56,-0.009,0.064,87.0,98.1,40.498676,-3.378064,599.1,3,5,236.2,1.406
88.35,1,-0.022,-0.01,0.019,0.009,-0.032,0.009,-1.558,-0.008,0.063,87.0,98.1,40.498676,-3.378064,599.1,3,5,236.2,1.406
88.45,1,0.071,-0.008,0.015,0.022,-0.016,0.015,-1.56,-0.007,0.063,88.0,98.1,40.498676,-3.378064,599.1,3,5,236.2,1.055
88.56,1,-0.003,0.004,-0.021,0.025,-0.006,-0.0,-1.559,-0.005,0.062,88.0,98.1,40.498676,-3.378064,599.1,3,5,236.2,1.055
88.65,1,-0.008,0.015,-0.04,0.01,0.007,-0.02,-1.555,-0.005,0.061,88.0,98.1,40.498676,-3.378064,599.1,3,5,236.2,1.055
88.75,1,-0.03,0.001,-0.019,-0.015,0.005,-0.026,-1.552,-0.004,0.06,88.0,98.1,40.498676,-3.378064,599.1,3,5,236.2,1.055
88.85,1,0.017,-0.0,0.001,-0.004,0.002,-0.012,-1.552,-0.006,0.059,88.0,98.1,40.498676,-3.378064,599.1,3,5,236.2,1.055
88.96,1,0.037,0.015,-0.004,0.024,0.002,-0.005,-1.551,-0.008,0.058,88.0,98.1,40.498676,-3.378064,599.1,3,5,236.2,1.055
89.05,1,-0.026,-0.022,-0.026,0.001,-0.0,-0.013,-1.55,-0.01,0.058,88.0,98.1,40.498676,-3.378064,599.1,3,5,236.2,1.055
89.15,1,-0.008,-0.028,-0.03,-0.008,-0.017,-0.025,-1.547,-0.007,0.058,88.0,98.1,40.498676,-3.378064,599.1,3,5,236.2,1.055
89.25,1,-0.002,-0.043,-0.008,-0.006,-0.031,-0.018,-1.546,-0.003,0.059,88.0,98.1,40.498676,-3.378064,599.1,3,5,236.2,1.055
89.36,1,-0.061,-0.032,0.001,-0.027,-0.035,-0.006,-1.547,0.002,0.059,88.0,98.1,40.498676,-3.378064,599.1,3,5,236.2,1.055
89.45,1,-0.018,-0.014,-0.0,-0.04,-0.027,-0.005,-1.55,0.005,0.06,89.05,98.2,40.498402,-3.378598,599.3,3,5,236.6,0.703
89.55,1,0.015,-0.023,0.01,-0.002,-0.024,0.001,-1.551,0.003,0.06,89.05,98.2,40.498402,-3.378598,599.3,3,5,236.6,0.703
89.65,1,-0.05,-0.015,0.008,-0.021,-0.021,0.01,-1.552,0.003,0.06,89.05,98.2,40.498402,-3.378598,599.3,3,5,236.6,0.703
89.75,1,0.024,0.025,-0.011,-0.006,-0.001,-0.001,-1.552,0.002,0.059,89.05,98.2,40.498402,-3.378598,599.3,3,5,236.6,0.703
89.85,1,-0.026,0.033,-0.025,-0.008,0.023,-0.009,-1.551,-0.002,0.058,89.05,98.2,40.498402,-3.378598,599.3,3,5,236.6,0.703
89.96,1,-0.007,0.011,-0.004,-0.011,0.021,-0.016,-1.55,-0.003,0.057,89.05,98.2,40.498402,-3.378598,599.3,3,5,236.6,0.703
90.07,1,-0.011,0.04,-0.009,-0.005,0.027,-0.008,-1.549,-0.005,0.057,89.05,98.2,40.498402,-3.378598,599.3,3,5,236.6,0.703
90.16,1,0.011,0.005,-0.003,-0.015,0.021,-0.007,-1.548,-0.003,0.056,89.05,98.2,40.498402,-3.378598,599.3,3,5,236.6,0.703
90.26,1,-0.034,0.002,-0.004,-0.003,0.008,-0.004,-1.547,-0.002,0.055,89.05,98.2,40.498402,-3.378598,599.3,3,5,236.6,0.703
90.36,1,-0.038,0.006,-0.042,-0.038,0.005,-0.019,-1.546,-0.001,0.055,89.05,98.2,40.498402,-3.378598,599.3,3,5,236.6,0.703
90.46,1,0.036,-0.004,-0.008,0.009,0.003,-0.021,-1.546,0.0,0.054,90.05,99.0,40.498268,-3.378869,600.8,3,5,236.2,0.352
90.56,1,-0.018,-0.013,-0.012,-0.005,-0.005,-0.015,-1.545,0.003,0.054,90.05,99.0,40.498268,-3.378869,600.8,3,5,236.2,0.352
90.66,1,0.03,0.008,-0.032,0.007,-0.001,-0.023,-1.543,0.004,0.054,90.05,99.0,40.498268,-3.378869,600.8,3,5,236.2,0.352
90.76,1,-0.026,0.014,-0.012,0.0,0.006,-0.018,-1.54,0.002,0.053,90.05,99.0,40.498268,-3.378869,600.8,3,5,236.2,0.352
90.86,1,0.005,0.027,-0.001,-0.009,0.015,-0.012,-1.539,0.001,0.052,90.05,99.0,40.498268,-3.378869,600.8,3,5,236.2,0.352
90.96,1,-0.022,-0.0,-0.014,-0.009,0.011,-0.007,-1.541,0.001,0.051,90.05,99.0,40.498268,-3.378869,600.8,3,5,236.2,0.352
91.07,1,0.009,-0.008,0.015,-0.009,0.005,0.002,-1.539,-0.0,0.051,90.05,99.0,40.498268,-3.378869,600.8,3,5,236.2,0.352
91.16,1,0.081,-0.001,-0.037,0.037,-0.004,-0.013,-1.539,0.0,0.051,90.05,99.0,40.498268,-3.378869,600.8,3,5,236.2,0.352
91.27,1,0.019,-0.021,-0.036,0.04,-0.01,-0.031,-1.535,-0.002,0.051,90.05,99.0,40.498268,-3.378869,600.8,3,5,236.2,0.352
91.36,1,-0.031,-0.045,0.009,0.006,-0.022,-0.014,-1.534,-0.001,0.052,90.05,99.0,40.498268,-3.378869,600.8,3,5,236.2,0.352
91.46,1,-0.034,-0.067,0.017,-0.022,-0.048,0.003,-1.534,0.007,0.053,91.0,99.0,40.498268,-3.378869,600.8,3,5,236.2,0.352
91.56,1,-0.005,-0.059,-0.021,-0.014,-0.059,-0.001,-1.532,0.012,0.055,91.0,99.0,40.498268,-3.378869,600.8,3,5,236.2,0.352
91.66,1,0.061,-0.014,0.017,0.017,-0.041,-0.003,-1.529,0.013,0.056,91.0,99.0,40.498268,-3.378869,600.8,3,5,236.2,0.352
91.76,1,0.041,-0.013,-0.008,0.039,-0.022,0.005,-1.528,0.017,0.056,91.0,99.0,40.498268,-3.378869,600.8,3,5,236.2,0.352
91.86,1,-0.026,-0.002,0.003,0.01,-0.013,-0.003,-1.527,0.019,0.057,91.0,99.0,40.498268,-3.378869,600.8,3,5,236.2,0.352
91.96,1,-0.013,-0.003,0.013,-0.006,-0.008,0.003,-1.529,0.021,0.058,91.0,99.0,40.498268,-3.378869,600.8,3,5,236.2,0.352
92.06,1,-0.046,0.003,0.018,-0.026,-0.002,0.007,-1.534,0.022,0.058,91.0,99.0,40.498268,-3.378869,600.8,3,5,236.2,0.352
92.16,1,-0.01,-0.002,0.025,-0.022,0.0,0.022,-1.536,0.021,0.058,91.0,99.0,40.498268,-3.378869,600.8,3,5,236.2,0.352
92.27,1,-0.01,0.011,-0.014,-0.014,0.002,0.009,-1.536,0.02,0.058,91.0,99.0,40.498268,-3.378869,600.8,3,5,236.2,0.352
92.36,1,-0.019,0.005,0.001,-0.017,0.01,-0.002,-1.536,0.019,0.058,91.0,99.0,40.498268,-3.378869,600.8,3,5,236.2,0.352
92.46,1,-0.001,0.008,0.04,-0.009,0.005,0.015,-1.539,0.019,0.059,92.0,98.6,40.498135,-3.379151,600.0,3,5,237.0,0.703
92.56,1,0.023,0.001,0.024,-0.001,0.003,0.029,-1.54,0.019,0.059,92.0,98.6,40.498135,-3.379151,600.0,3,5,237.0,0.703
92.66,1,-0.001,0.002,0.016,0.013,0.004,0.022,-1.541,0.019,0.059,92.0,98.6,40.498135,-3.379151,600.0,3,5,237.0,0.703
92.76,1,-0.023,0.018,-0.001,-0.008,0.008,0.009,-1.54,0.019,0.059,92.0,98.6,40.498135,-3.379151,600.0,3,5,237.0,0.703
92.87,1,-0.011,-0.005,0.027,-0.013,0.006,0.017,-1.539,0.02,0.059,92.0,98.6,40.498135,-3.379151,600.0,3,5,237.0,0.703
92.97,1,0.044,0.009,0.025,0.011,0.003,0.024,-1.543,0.021,0.059,92.0,98.6,40.498135,-3.379151,600.0,3,5,237.0,0.703
93.06,1,-0.009,0.026,-0.018,0.01,0.015,0.007,-1.543,0.022,0.059,92.0,98.6,40.498135,-3.379151,600.0,3,5,237.0,0.703
93.16,1,0.023,-0.0,0.012,0.007,0.012,0.003,-1.542,0.02,0.059,92.0,98.6,40.498135,-3.379151,600.0,3,5,237.0,0.703
93.28,1,-0.042,0.019,-0.007,0.002,0.015,-0.002,-1.544,0.022,0.059,92.0,98.6,40.498135,-3.379151,600.0,3,5,237.0,0.703
93.36,1,-0.016,0.013,0.009,-0.028,0.013,0.006,-1.546,0.021,0.058,92.0,98.6,40.498135,-3.379151,600.0,3,5,237.0,0.703
93.47,1,-0.002,0.024,0.028,0.006,0.019,0.013,-1.547,0.018,0.058,93.09,97.7,40.497868,-3.379687,599.9,3,5,236.2,0.703
93.56,1,-0.052,0.044,0.037,-0.034,0.03,0.027,-1.549,0.017,0.057,93.09,97.7,40.497868,-3.379687,599.9,3,5,236.2,0.703
93.67,1,-0.015,0.001,0.014,-0.037,0.021,0.022,-1.551,0.017,0.057,93.09,97.7,40.497868,-3.379687,599.9,3,5,236.2,0.703
93.77,1,0.004,0.015,0.014,-0.008,0.015,0.019,-1.556,0.015,0.057,93.09,97.7,40.497868,-3.379687,599.9,3,5,236.2,0.703
93.87,1,-0.003,0.006,0.023,-0.006,0.01,0.021,-1.561,0.014,0.056,93.09,97.7,40.497868,-3.379687,599.9,3,5,236.2,0.703
93.97,1,-0.004,0.024,0.005,-0.001,0.014,0.013,-1.564,0.013,0.056,93.09,97.7,40.497868,-3.379687,599.9,3,5,236.2,0.703
94.17,1,0.021,0.029,-0.023,0.01,0.012,0.011,-1.565,0.011,0.055,93.09,97.7,40.497868,-3.379687,599.9,3,5,236.2,0.703
94.27,1,0.027,-0.0,0.009,0.018,0.018,0.0,-1.563,0.01,0.055,93.09,97.7,40.497868,-3.379687,599.9,3,5,236.2,0.703
94.38,1,0.042,0.007,0.016,0.039,0.005,0.008,-1.562,0.009,0.054,93.09,97.7,40.497868,-3.379687,599.9,3,5,236.2,0.703
94.47,1,-0.006,0.009,0.026,0.018,0.008,0.013,-1.562,0.008,0.054,93.09,97.7,40.497868,-3.379687,599.9,3,5,236.2,0.703
94.57,1,-0.071,-0.007,0.042,-0.028,0.005,0.033,-1.564,0.008,0.054,94.01,97.7,40.497868,-3.379687,599.9,3,5,236.2,0.703
94.67,1,-0.043,-0.011,0.015,-0.044,-0.006,0.031,-1.566,0.008,0.054,94.01,97.7,40.497868,-3.379687,599.9,3,5,236.2,0.703
94.77,1,-0.038,-0.008,0.022,-0.028,-0.006,0.021,-1.564,0.011,0.054,94.01,97.7,40.497868,-3.379687,599.9,3,5,236.2,0.703
94.88,1,0.038,-0.007,0.023,-0.01,-0.005,0.025,-1.566,0.012,0.054,94.01,97.7,40.497868,-3.379687,599.9,3,5,236.2,0.703
94.97,1,0.021,0.013,-0.007,0.009,-0.003,0.006,-1.566,0.012,0.054,94.01,97.7,40.497868,-3.379687,599.9,3,5,236.2,0.703
95.07,1,-0.057,-0.008,0.017,-0.015,0.0,0.008,-1.567,0.01,0.054,94.01,97.7,40.497868,-3.379687,599.9,3,5,236.2,0.703
95.18,1,-0.005,-0.008,0.004,-0.025,-0.006,0.01,-1.567,0.012,0.054,94.01,97.7,40.497868,-3.379687,599.9,3,5,236.2,0.703
95.28,1,0.012,0.028,-0.009,0.001,0.008,0.002,-1.568,0.012,0.054,94.01,97.7,40.497868,-3.379687,599.9,3,5,236.2,0.703
95.38,1,-0.024,-0.004,0.023,-0.012,0.007,0.005,-1.569,0.012,0.054,94.01,97.7,40.497868,-3.379687,599.9,3,5,236.2,0.703
95.47,1,0.028,0.003,0.022,0.004,0.003,0.019,-1.571,0.011,0.054,94.01,97.7,40.497868,-3.379687,599.9,3,5,236.2,0.703
95.58,1,-0.022,-0.001,0.002,-0.001,-0.002,0.013,-1.571,0.01,0.053,95.1,99.1,40.497597,-3.380238,600.8,4,5,235.5,1.055
95.67,1,0.012,-0.002,0.011,-0.001,0.002,0.007,-1.571,0.009,0.053,95.1,99.1,40.497597,-3.380238,600.8,4,5,235.5,1.055
95.77,1,-0.009,-0.008,0.011,0.001,-0.004,0.013,-1.571,0.01,0.053,95.1,99.1,40.497597,-3.380238,600.8,4,5,235.5,1.055
95.87,1,-0.005,0.008,0.009,-0.007,-0.001,0.011,-1.569,0.011,0.054,95.1,99.1,40.497597,-3.380238,600.8,4,5,235.5,1.055
95.97,1,-0.016,-0.011,0.008,-0.016,-0.002,0.008,-1.567,0.012,0.054,95.1,99.1,40.497597,-3.380238,600.8,4,5,235.5,1.055
96.08,1,0.012,-0.019,0.004,0.003,-0.009,0.006,-1.567,0.014,0.054,95.1,99.1,40.497597,-3.380238,600.8,4,5,235.5,1.055
96.17,1,-0.042,0.001,0.004,-0.011,-0.01,0.004,-1.567,0.015,0.054,95.1,99.1,40.497597,-3.380238,600.8,4,5,235.5,1.055
96.27,1,-0.044,-0.001,0.007,-0.033,-0.001,0.005,-1.566,0.013,0.054,95.1,99.1,40.497597,-3.380238,600.8,4,5,235.5,1.055
96.37,1,-0.028,-0.018,0.024,-0.037,-0.012,0.014,-1.566,0.012,0.054,95.1,99.1,40.497597,-3.380238,600.8,4,5,235.5,1.055
96.48,1,0.019,0.004,0.012,-0.009,-0.004,0.02,-1.565,0.011,0.054,95.1,99.1,40.497597,-3.380238,600.8,4,5,235.5,1.055
96.57,1,-0.009,0.002,0.029,-0.003,-0.003,0.019,-1.564,0.013,0.054,96.0,99.1,40.497597,-3.380238,600.8,4,5,235.5,1.055
96.67,1,0.007,-0.004,0.004,-0.0,0.006,0.006,-1.564,0.014,0.055,96.0,99.1,40.497597,-3.380238,600.8,4,5,235.5,1.055
96.78,1,0.015,-0.011,-0.01,0.014,-0.01,0.007,-1.566,0.016,0.055,96.0,99.1,40.497597,-3.380238,600.8,4,5,235.5,1.055
96.88,1,-0.012,0.009,-0.004,-0.007,0.001,-0.006,-1.563,0.015,0.055,96.0,99.1,40.497597,-3.380238,600.8,4,5,235.5,1.055
96.98,1,-0.026,-0.005,-0.012,-0.011,-0.001,-0.003,-1.564,0.014,0.055,96.0,99.1,40.497597,-3.380238,600.8,4,5,235.5,1.055
97.07,1,-0.02,-0.003,-0.01,-0.021,-0.004,-0.009,-1.563,0.012,0.055,96.0,99.1,40.497597,-3.380238,600.8,4,5,235.5,1.055
97.18,1,-0.006,-0.002,-0.001,-0.019,-0.0,-0.008,-1.565,0.011,0.055,96.0,99.1,40.497597,-3.380238,600.8,4,5,235.5,1.055
97.28,1,-0.018,-0.006,-0.01,-0.01,-0.005,-0.002,-1.567,0.012,0.055,96.0,99.1,40.497597,-3.380238,600.8,4,5,235.5,1.055
97.38,1,0.0,-0.008,0.011,-0.006,-0.005,-0.002,-1.566,0.011,0.055,96.0,99.1,40.497597,-3.380238,600.8,4,5,235.5,1.055
97.48,1,-0.04,0.014,-0.009,-0.016,0.003,-0.0,-1.568,0.01,0.054,96.0,99.1,40.497597,-3.380238,600.8,4,5,235.5,1.055
97.58,1,-0.035,-0.03,0.004,-0.034,-0.01,-0.002,-1.569,0.01,0.055,97.09,100.9,40.497322,-3.380783,601.0,4,5,236.6,1.055
97.68,1,-0.004,0.007,0.006,-0.021,-0.01,0.006,-1.571,0.01,0.055,97.09,100.9,40.497322,-3.380783,601.0,4,5,236.6,1.055
97.79,1,-0.014,-0.006,-0.002,-0.018,0.001,-0.003,-1.571,0.009,0.055,97.09,100.9,40.497322,-3.380783,601.0,4,5,236.6,1.055
97.88,1,0.005,-0.003,0.01,-0.004,-0.009,0.006,-1.573,0.011,0.056,97.09,100.9,40.497322,-3.380783,601.0,4,5,236.6,1.055
97.99,1,-0.001,0.01,-0.031,-0.003,0.005,-0.011,-1.569,0.008,0.056,97.09,100.9,40.497322,-3.380783,601.0,4,5,236.6,1.055
98.08,1,0.003,0.009,0.027,0.006,0.003,0.003,-1.567,0.008,0.056,97.09,100.9,40.497322,-3.380783,601.0,4,5,236.6,1.055
98.18,1,-0.05,0.005,0.036,-0.029,0.012,0.018,-1.566,0.005,0.056,97.09,100.9,40.497322,-3.380783,601.0,4,5,236.6,1.055
98.28,1,-0.008,-0.004,0.023,-0.014,0.001,0.029,-1.569,0.006,0.056,97.09,100.9,40.497322,-3.380783,601.0,4,5,236.6,1.055
98.38,1,-0.013,0.002,0.008,-0.013,0.001,0.016,-1.569,0.005,0.056,97.09,100.9,40.497322,-3.380783,601.0,4,5,236.6,1.055
98.49,1,-0.004,0.001,-0.008,-0.013,-0.0,0.005,-1.566,0.006,0.056,97.09,100.9,40.497322,-3.380783,601.0,4,5,236.6,1.055
98.58,1,0.033,-0.014,0.014,0.014,-0.006,0.005,-1.565,0.003,0.056,98.09,100.0,40.497177,-3.381059,599.3,4,5,236.6,1.055
98.68,1,-0.004,0.016,0.018,0.016,0.003,0.015,-1.565,-0.001,0.056,98.09,100.0,40.497177,-3.381059,599.3,4,5,236.6,1.055
98.78,1,-0.007,-0.004,0.025,-0.01,0.004,0.016,-1.566,0.001,0.057,98.09,100.0,40.497177,-3.381059,599.3,4,5,236.6,1.055
98.88,1,-0.018,-0.019,0.012,-0.01,-0.006,0.019,-1.569,0.003,0.057,98.09,100.0,40.497177,-3.381059,599.3,4,5,236.6,1.055
98.99,1,-0.021,-0.007,0.001,-0.016,-0.012,0.007,-1.569,0.005,0.057,98.09,100.0,40.497177,-3.381059,599.3,4,5,236.6,1.055
99.08,1,-0.057,-0.002,-0.005,-0.042,-0.004,-0.0,-1.569,0.007,0.058,98.09,100.0,40.497177,-3.381059,599.3,4,5,236.6,1.055
99.18,1,0.029,-0.01,0.007,-0.01,-0.009,0.006,-1.57,0.007,0.058,98.09,100.0,40.497177,-3.381059,599.3,4,5,236.6,1.055
99.28,1,0.002,-0.006,-0.006,0.004,-0.007,0.0,-1.568,0.008,0.059,98.09,100.0,40.497177,-3.381059,599.3,4,5,236.6,1.055
99.38,1,-0.006,0.006,-0.014,0.003,0.001,-0.007,-1.567,0.009,0.059,98.09,100.0,40.497177,-3.381059,599.3,4,5,236.6,1.055
99.48,1,0.018,-0.008,0.016,0.005,-0.006,-0.0,-1.569,0.01,0.059,98.09,100.0,40.497177,-3.381059,599.3,4,5,236.6,1.055
99.58,1,-0.076,0.024,-0.012,-0.023,0.006,0.001,-1.572,0.011,0.059,99.0,100.0,40.497177,-3.381059,599.3,4,5,236.6,0.0
99.69,1,-0.014,-0.004,0.012,-0.035,0.009,-0.001,-1.572,0.01,0.059,99.0,100.0,40.497177,-3.381059,599.3,4,5,236.6,0.0
99.78,1,-0.037,0.0,0.008,-0.03,0.001,0.006,-1.573,0.009,0.058,99.0,100.0,40.497177,-3.381059,599.3,4,5,236.6,0.0
99.88,1,0.027,0.028,-0.018,-0.008,0.014,0.004,-1.575,0.009,0.058,99.0,100.0,40.497177,-3.381059,599.3,4,5,236.6,0.0
99.98,1,0.006,0.001,-0.046,0.004,0.007,-0.027,-1.572,0.011,0.057,99.0,100.0,40.497177,-3.381059,599.3,4,5,236.6,0.0
100.08,1,-0.042,-0.003,0.008,-0.007,0.007,-0.02,-1.572,0.009,0.057,99.0,100.0,40.497177,-3.381059,599.3,4,5,236.6,0.0
100.18,1,-0.005,0.008,-0.017,-0.018,0.004,-0.006,-1.574,0.008,0.057,99.0,100.0,40.497177,-3.381059,599.3,4,5,236.6,0.0
100.28,1,0.013,0.016,-0.016,-0.0,0.011,-0.019,-1.574,0.008,0.057,99.0,100.0,40.497177,-3.381059,599.3,4,5,236.6,0.0
100.38,1,-0.023,-0.005,-0.017,-0.012,0.006,-0.018,-1.571,0.007,0.057,99.0,100.0,40.497177,-3.381059,599.3,4,5,236.6,0.0
100.49,1,-0.025,0.016,-0.051,-0.023,0.008,-0.029,-1.571,0.007,0.057,99.0,100.0,40.497177,-3.381059,599.3,4,5,236.6,0.0
100.58,1,-0.016,0.003,-0.007,-0.01,0.005,-0.028,-1.571,0.005,0.057,100.04,103.5,40.496902,-3.381614,596.1,4,5,236.2,0.352
100.69,1,-0.014,0.05,0.014,-0.021,0.02,-0.007,-1.57,0.002,0.057,100.04,103.5,40.496902,-3.381614,596.1,4,5,236.2,0.352
100.79,1,-0.013,-0.029,-0.024,-0.023,0.012,-0.006,-1.569,0.005,0.058,100.04,103.5,40.496902,-3.381614,596.1,4,5,236.2,0.352
100.9,1,0.027,-0.011,-0.034,0.017,-0.01,-0.019,-1.564,0.006,0.058,100.04,103.5,40.496902,-3.381614,596.1,4,5,236.2,0.352
100.99,1,-0.034,0.023,-0.018,-0.01,0.004,-0.026,-1.56,0.006,0.058,100.04,103.5,40.496902,-3.381614,596.1,4,5,236.2,0.352
101.09,1,-0.019,-0.02,-0.003,-0.018,-0.003,-0.012,-1.559,0.006,0.058,100.04,103.5,40.496902,-3.381614,596.1,4,5,236.2,0.352
101.2,1,0.002,0.0,-0.0,-0.011,-0.005,-0.006,-1.556,0.005,0.058,100.04,103.5,40.496902,-3.381614,596.1,4,5,236.2,0.352
101.29,1,-0.03,0.005,-0.017,-0.016,-0.001,-0.01,-1.554,0.003,0.058,100.04,103.5,40.496902,-3.381614,596.1,4,5,236.2,0.352
101.39,1,0.008,0.003,0.008,-0.01,0.006,-0.007,-1.552,0.001,0.058,100.04,103.5,40.496902,-3.381614,596.1,4,5,236.2,0.352
101.49,1,-0.039,-0.027,0.016,-0.026,-0.007,0.006,-1.553,0.002,0.058,100.04,103.5,40.496902,-3.381614,596.1,4,5,236.2,0.352
101.59,1,-0.037,-0.016,-0.01,-0.022,-0.014,0.007,-1.55,0.004,0.059,101.01,103.5,40.496902,-3.381614,596.1,4,5,236.2,0.352
101.69,1,0.01,-0.029,0.008,-0.016,-0.025,0.001,-1.548,0.005,0.06,101.01,103.5,40.496902,-3.381614,596.1,4,5,236.2,0.352
101.79,1,-0.018,-0.017,0.019,-0.011,-0.024,0.011,-1.551,0.008,0.061,101.01,103.5,40.496902,-3.381614,596.1,4,5,236.2,0.352
101.89,1,0.006,-0.021,0.006,-0.006,-0.016,0.009,-1.551,0.009,0.062,101.01,103.5,40.496902,-3.381614,596.1,4,5,236.2,0.352
101.99,1,-0.015,-0.01,-0.018,-0.006,-0.014,-0.004,-1.549,0.011,0.063,101.01,103.5,40.496902,-3.381614,596.1,4,5,236.2,0.352
102.09,1,0.02,-0.003,0.009,0.008,-0.015,0.004,-1.548,0.014,0.064,101.01,103.5,40.496902,-3.381614,596.1,4,5,236.2,0.352
102.19,1,0.016,0.001,-0.018,0.004,-0.002,-0.008,-1.547,0.013,0.064,101.01,103.5,40.496902,-3.381614,596.1,4,5,236.2,0.352
102.3,1,-0.039,0.008,-0.032,0.0,0.003,-0.02,-1.546,0.012,0.064,101.01,103.5,40.496902,-3.381614,596.1,4,5,236.2,0.352
102.4,1,-0.028,0.034,0.015,-0.02,0.016,-0.008,-1.546,0.009,0.064,101.01,103.5,40.496902,-3.381614,596.1,4,5,236.2,0.352
102.49,1,-0.04,0.024,-0.018,-0.038,0.023,-0.005,-1.547,0.011,0.064,101.01,103.5,40.496902,-3.381614,596.1,4,5,236.2,0.352
102.59,1,0.032,-0.007,0.007,-0.003,0.012,-0.002,-1.549,0.016,0.065,102.01,103.9,40.49662,-3.382176,596.8,4,5,236.6,0.352
102.69,1,0.028,-0.006,0.002,0.016,0.002,-0.001,-1.548,0.018,0.066,102.01,103.9,40.49662,-3.382176,596.8,4,5,236.6,0.352
102.8,1,-0.033,-0.031,-0.013,0.004,-0.016,-0.005,-1.546,0.019,0.067,102.01,103.9,40.49662,-3.382176,596.8,4,5,236.6,0.352
102.89,1,0.006,-0.006,0.013,-0.021,-0.016,-0.002,-1.546,0.02,0.068,102.01,103.9,40.49662,-3.382176,596.8,4,5,236.6,0.352
102.99,1,-0.0,-0.036,0.018,0.016,-0.019,0.013,-1.547,0.022,0.07,102.01,103.9,40.49662,-3.382176,596.8,4,5,236.6,0.352
103.09,1,-0.042,-0.032,0.021,-0.026,-0.03,0.014,-1.548,0.024,0.072,102.01,103.9,40.49662,-3.382176,596.8,4,5,236.6,0.352
103.19,1,0.009,-0.045,0.007,-0.012,-0.038,0.018,-1.549,0.025,0.073,102.01,103.9,40.49662,-3.382176,596.8,4,5,236.6,0.352
103.29,1,0.026,-0.04,0.046,0.003,-0.038,0.025,-1.551,0.027,0.075,102.01,103.9,40.49662,-3.382176,596.8,4,5,236.6,0.352
103.4,1,0.027,-0.011,0.001,0.032,-0.027,0.02,-1.546,0.026,0.076,102.01,103.9,40.49662,-3.382176,596.8,4,5,236.6,0.352
103.5,1,-0.019,-0.001,0.007,-0.009,-0.014,0.004,-1.544,0.025,0.078,102.01,103.9,40.49662,-3.382176,596.8,4,5,236.6,0.352
103.59,1,0.013,-0.021,0.02,0.014,-0.013,0.023,-1.548,0.028,0.08,103.01,103.6,40.496475,-3.382455,597.1,4,5,236.2,0.352
103.69,1,-0.037,-0.015,0.009,-0.013,-0.018,0.007,-1.547,0.028,0.081,103.01,103.6,40.496475,-3.382455,597.1,4,5,236.2,0.352
103.79,1,-0.056,-0.003,0.01,-0.031,-0.013,0.013,-1.55,0.027,0.082,103.01,103.6,40.496475,-3.382455,597.1,4,5,236.2,0.352
103.89,1,-0.004,-0.031,0.034,-0.021,-0.018,0.026,-1.553,0.024,0.084,103.01,103.6,40.496475,-3.382455,597.1,4,5,236.2,0.352
104.0,1,0.07,-0.02,0.041,0.009,-0.02,0.029,-1.557,0.024,0.085,103.01,103.6,40.496475,-3.382455,597.1,4,5,236.2,0.352
104.21,1,-0.021,-0.001,-0.002,-0.013,-0.004,0.011,-1.561,0.026,0.088,103.01,103.6,40.496475,-3.382455,597.1,4,5,236.2,0.352
104.3,1,-0.045,-0.019,-0.008,-0.016,-0.009,0.003,-1.565,0.028,0.09,103.01,103.6,40.496475,-3.382455,597.1,4,5,236.2,0.352
104.39,1,0.01,-0.03,0.014,-0.012,-0.018,0.004,-1.565,0.03,0.09,103.01,103.6,40.496475,-3.382455,597.1,4,5,236.2,0.352
104.5,1,-0.051,0.008,0.007,-0.025,-0.009,0.005,-1.567,0.031,0.091,103.01,103.6,40.496475,-3.382455,597.1,4,5,236.2,0.352
104.6,1,0.005,0.023,0.003,-0.02,0.003,0.008,-1.568,0.026,0.092,103.01,103.6,40.496475,-3.382455,597.1,4,5,236.2,0.352
104.69,1,-0.019,0.004,0.004,-0.014,0.01,0.003,-1.57,0.025,0.093,104.08,103.2,40.49633,-3.38273,597.2,4,5,235.9,0.703
104.8,1,-0.021,-0.009,-0.017,-0.021,0.003,-0.004,-1.57,0.023,0.094,104.08,103.2,40.49633,-3.38273,597.2,4,5,235.9,0.703
104.89,1,0.04,-0.01,0.011,0.009,-0.009,0.001,-1.567,0.021,0.095,104.08,103.2,40.49633,-3.38273,597.2,4,5,235.9,0.703
104.99,1,-0.031,-0.001,-0.017,-0.003,-0.003,-0.009,-1.563,0.019,0.096,104.08,103.2,40.49633,-3.38273,597.2,4,5,235.9,0.703
105.09,1,-0.075,-0.016,-0.006,-0.031,-0.01,-0.005,-1.564,0.02,0.097,104.08,103.2,40.49633,-3.38273,597.2,4,5,235.9,0.703
105.19,1,-0.009,-0.039,0.009,-0.037,-0.021,-0.005,-1.566,0.02,0.098,104.08,103.2,40.49633,-3.38273,597.2,4,5,235.9,0.703
105.29,1,0.024,-0.016,-0.004,-0.003,-0.025,0.002,-1.564,0.022,0.099,104.08,103.2,40.49633,-3.38273,597.2,4,5,235.9,0.703
105.4,1,-0.005,-0.003,-0.009,-0.001,-0.016,-0.006,-1.561,0.021,0.1,104.08,103.2,40.49633,-3.38273,597.2,4,5,235.9,0.703
105.51,1,-0.003,-0.019,-0.01,-0.002,-0.015,-0.011,-1.563,0.021,0.1,104.08,103.2,40.49633,-3.38273,597.2,4,5,235.9,0.703
105.59,1,-0.059,0.001,0.008,-0.025,-0.004,0.002,-1.564,0.02,0.101,104.08,103.2,40.49633,-3.38273,597.2,4,5,235.9,0.703
105.69,1,-0.005,-0.011,-0.033,-0.028,-0.009,-0.015,-1.561,0.02,0.102,104.98,103.2,40.49633,-3.38273,597.2,4,5,235.9,0.703
105.79,1,-0.013,-0.008,0.003,-0.012,-0.006,-0.011,-1.562,0.019,0.103,104.98,103.2,40.49633,-3.38273,597.2,4,5,235.9,0.703
105.9,1,-0.017,-0.019,-0.005,-0.02,-0.014,-0.002,-1.562,0.02,0.104,104.98,103.2,40.49633,-3.38273,597.2,4,5,235.9,0.703
106.0,1,-0.028,0.006,-0.008,-0.021,-0.004,-0.007,-1.559,0.019,0.105,104.98,103.2,40.49633,-3.38273,597.2,4,5,235.9,0.703
106.1,1,0.023,0.002,-0.034,-0.006,-0.003,-0.019,-1.555,0.019,0.106,104.98,103.2,40.49633,-3.38273,597.2,4,5,235.9,0.703
106.2,1,0.035,-0.006,-0.042,0.015,-0.001,-0.032,-1.55,0.019,0.106,104.98,103.2,40.49633,-3.38273,597.2,4,5,235.9,0.703
106.3,1,-0.041,0.011,-0.03,-0.003,0.002,-0.035,-1.546,0.017,0.107,104.98,103.2,40.49633,-3.38273,597.2,4,5,235.9,0.703
106.4,1,-0.028,0.018,-0.009,-0.02,0.011,-0.02,-1.545,0.015,0.107,104.98,103.2,40.49633,-3.38273,597.2,4,5,235.9,0.703
106.5,1,0.022,0.014,-0.002,-0.01,0.012,-0.012,-1.546,0.015,0.106,104.98,103.2,40.49633,-3.38273,597.2,4,5,235.9,0.703
106.61,1,0.013,0.017,-0.006,0.011,0.014,-0.008,-1.548,0.014,0.106,104.98,103.2,40.49633,-3.38273,597.2,4,5,235.9,0.703
106.7,1,-0.013,0.016,-0.005,0.006,0.021,-0.005,-1.547,0.011,0.107,105.98,103.8,40.496178,-3.38301,597.6,3,5,235.2,1.055
106.8,1,-0.01,0.011,0.012,-0.007,0.016,0.001,-1.543,0.01,0.107,105.98,103.8,40.496178,-3.38301,597.6,3,5,235.2,1.055
106.9,1,-0.029,-0.011,-0.007,-0.015,0.0,0.003,-1.542,0.012,0.107,105.98,103.8,40.496178,-3.38301,597.6,3,5,235.2,1.055
107.0,1,0.06,-0.009,-0.026,0.014,-0.004,-0.012,-1.538,0.013,0.108,105.98,103.8,40.496178,-3.38301,597.6,3,5,235.2,1.055
107.1,1,0.019,0.007,0.017,0.03,-0.004,-0.004,-1.536,0.012,0.108,105.98,103.8,40.496178,-3.38301,597.6,3,5,235.2,1.055
107.2,1,-0.007,0.001,0.007,0.008,0.002,0.005,-1.537,0.011,0.108,105.98,103.8,40.496178,-3.38301,597.6,3,5,235.2,1.055
107.3,1,-0.008,0.013,0.007,-0.007,0.006,0.001,-1.539,0.009,0.109,105.98,103.8,40.496178,-3.38301,597.6,3,5,235.2,1.055
107.4,1,-0.03,-0.006,0.025,-0.01,0.004,0.021,-1.542,0.01,0.109,105.98,103.8,40.496178,-3.38301,597.6,3,5,235.2,1.055
107.5,1,-0.012,0.005,0.005,-0.025,0.003,0.008,-1.541,0.01,0.11,105.98,103.8,40.496178,-3.38301,597.6,3,5,235.2,1.055
107.6,1,-0.023,-0.008,-0.012,-0.011,-0.004,0.002,-1.541,0.011,0.11,105.98,103.8,40.496178,-3.38301,597.6,3,5,235.2,1.055
107.7,1,-0.028,-0.006,0.038,-0.024,-0.002,0.015,-1.543,0.011,0.111,106.99,104.3,40.496025,-3.383291,598.1,3,5,234.8,1.055
107.81,1,0.026,0.0,0.023,-0.01,-0.003,0.023,-1.542,0.013,0.111,106.99,104.3,40.496025,-3.383291,598.1,3,5,234.8,1.055
107.91,1,0.006,-0.013,0.009,0.017,-0.008,0.016,-1.542,0.015,0.111,106.99,104.3,40.496025,-3.383291,598.1,3,5,234.8,1.055
108.0,1,0.018,-0.012,0.026,0.001,-0.01,0.018,-1.543,0.016,0.112,106.99,104.3,40.496025,-3.383291,598.1,3,5,234.8,1.055
108.1,1,-0.047,0.006,0.003,-0.013,-0.005,0.01,-1.542,0.017,0.113,106.99,104.3,40.496025,-3.383291,598.1,3,5,234.8,1.055
108.2,1,0.039,-0.045,0.046,-0.0,-0.013,0.028,-1.544,0.019,0.114,106.99,104.3,40.496025,-3.383291,598.1,3,5,234.8,1.055
108.31,1,-0.024,-0.004,-0.011,0.0,-0.022,0.014,-1.544,0.023,0.114,106.99,104.3,40.496025,-3.383291,598.1,3,5,234.8,1.055
108.41,1,0.01,0.019,0.014,-0.004,-0.0,0.009,-1.546,0.023,0.115,106.99,104.3,40.496025,-3.383291,598.1,3,5,234.8,1.055
108.5,1,-0.003,-0.004,0.044,0.005,0.002,0.026,-1.55,0.024,0.115,106.99,104.3,40.496025,-3.383291,598.1,3,5,234.8,1.055
108.6,1,0.043,-0.0,0.038,0.02,-0.003,0.036,-1.547,0.025,0.116,106.99,104.3,40.496025,-3.383291,598.1,3,5,234.8,1.055
108.7,1,-0.039,-0.001,-0.007,0.0,0.001,0.012,-1.543,0.025,0.116,108.04,103.5,40.495724,-3.383842,598.1,3,5,234.1,0.703
108.8,1,0.037,-0.018,0.051,0.007,-0.005,0.031,-1.544,0.027,0.116,108.04,103.5,40.495724,-3.383842,598.1,3,5,234.1,0.703
108.91,1,-0.008,0.005,0.019,0.006,-0.006,0.029,-1.547,0.028,0.117,108.04,103.5,40.495724,-3.383842,598.1,3,5,234.1,0.703
109.0,1,-0.003,0.025,0.027,0.007,0.008,0.025,-1.549,0.027,0.117,108.04,103.5,40.495724,-3.383842,598.1,3,5,234.1,0.703
109.11,1,0.017,0.009,0.023,-0.004,0.012,0.022,-1.551,0.027,0.117,108.04,103.5,40.495724,-3.383842,598.1,3,5,234.1,0.703
109.2,1,-0.03,0.008,-0.004,-0.0,0.007,0.016,-1.555,0.027,0.117,108.04,103.5,40.495724,-3.383842,598.1,3,5,234.1,0.703
109.3,1,-0.03,-0.004,0.013,-0.028,0.008,0.006,-1.557,0.029,0.118,108.04,103.5,40.495724,-3.383842,598.1,3,5,234.1,0.703
109.4,1,0.003,0.022,-0.021,-0.014,0.008,-0.005,-1.56,0.029,0.118,108.04,103.5,40.495724,-3.383842,598.1,3,5,234.1,0.703
109.51,1,-0.041,0.008,-0.017,-0.012,0.011,-0.006,-1.561,0.029,0.119,108.04,103.5,40.495724,-3.383842,598.1,3,5,234.1,0.703
109.61,1,-0.027,0.002,-0.02,-0.026,0.006,-0.011,-1.56,0.029,0.119,108.04,103.5,40.495724,-3.383842,598.1,3,5,234.1,0.703
109.72,1,-0.038,-0.006,-0.037,-0.038,0.004,-0.03,-1.558,0.03,0.12,109.02,103.7,40.495567,-3.384117,598.0,3,5,233.8,0.703
109.82,1,-0.01,-0.001,-0.017,-0.03,-0.002,-0.031,-1.556,0.029,0.12,109.02,103.7,40.495567,-3.384117,598.0,3,5,233.8,0.703
109.91,1,0.005,0.011,-0.009,-0.012,0.002,-0.014,-1.555,0.027,0.12,109.02,103.7,40.495567,-3.384117,598.0,3,5,233.8,0.703
110.01,1,-0.004,0.033,-0.026,0.003,0.015,-0.015,-1.554,0.023,0.12,109.02,103.7,40.495567,-3.384117,598.0,3,5,233.8,0.703
110.11,1,0.03,0.006,-0.021,0.001,0.018,-0.025,-1.553,0.024,0.121,109.02,103.7,40.495567,-3.384117,598.0,3,5,233.8,0.703
110.21,1,0.032,0.019,-0.031,0.036,0.013,-0.022,-1.552,0.024,0.121,109.02,103.7,40.495567,-3.384117,598.0,3,5,233.8,0.703
110.31,1,-0.023,0.017,0.011,0.004,0.018,-0.014,-1.55,0.024,0.121,109.02,103.7,40.495567,-3.384117,598.0,3,5,233.8,0.703
110.41,1,-0.023,0.005,-0.01,-0.024,0.014,-0.003,-1.551,0.024,0.121,109.02,103.7,40.495567,-3.384117,598.0,3,5,233.8,0.703
110.51,1,0.024,0.014,0.009,0.01,0.01,0.001,-1.549,0.024,0.121,109.02,103.7,40.495567,-3.384117,598.0,3,5,233.8,0.703
110.61,1,0.002,0.022,-0.001,-0.003,0.016,-0.003,-1.548,0.025,0.121,109.02,103.7,40.495567,-3.384117,598.0,3,5,233.8,0.703
110.72,1,-0.005,0.001,0.001,0.006,0.01,0.003,-1.546,0.025,0.121,110.07,102.7,40.495415,-3.384386,597.7,3,5,233.8,0.703
110.81,1,-0.0,0.024,0.01,-0.0,0.014,0.001,-1.546,0.023,0.121,110.07,102.7,40.495415,-3.384386,597.7,3,5,233.8,0.703
110.92,1,-0.011,0.022,0.029,-0.005,0.023,0.017,-1.548,0.022,0.121,110.07,102.7,40.495415,-3.384386,597.7,3,5,233.8,0.703
111.02,1,-0.011,0.012,0.016,0.004,0.015,0.024,-1.552,0.022,0.12,110.07,102.7,40.495415,-3.384386,597.7,3,5,233.8,0.703
111.11,1,-0.059,0.016,0.011,-0.042,0.02,0.012,-1.555,0.022,0.121,110.07,102.7,40.495415,-3.384386,597.7,3,5,233.8,0.703
111.21,1,-0.01,-0.006,0.02,-0.021,0.005,0.016,-1.56,0.023,0.121,110.07,102.7,40.495415,-3.384386,597.7,3,5,233.8,0.703
111.31,1,0.006,0.011,0.043,-0.012,0.007,0.025,-1.561,0.023,0.122,110.07,102.7,40.495415,-3.384386,597.7,3,5,233.8,0.703
111.41,1,-0.008,-0.048,0.024,-0.001,-0.018,0.034,-1.564,0.024,0.124,110.07,102.7,40.495415,-3.384386,597.7,3,5,233.8,0.703
111.52,1,0.039,-0.004,0.017,0.008,-0.015,0.023,-1.563,0.025,0.124,110.07,102.7,40.495415,-3.384386,597.7,3,5,233.8,0.703
111.61,1,0.042,0.01,0.033,0.026,-0.006,0.025,-1.565,0.026,0.124,110.07,102.7,40.495415,-3.384386,597.7,3,5,233.8,0.703
111.71,1,0.026,0.019,0.005,0.035,0.009,0.02,-1.566,0.026,0.124,111.05,102.4,40.495262,-3.384642,597.8,3,5,232.7,1.055
111.81,1,-0.094,-0.005,0.025,-0.024,0.009,0.015,-1.568,0.025,0.124,111.05,102.4,40.495262,-3.384642,597.8,3,5,232.7,1.055
111.91,1,0.0,0.019,0.014,-0.031,0.009,0.02,-1.571,0.025,0.124,111.05,102.4,40.495262,-3.384642,597.8,3,5,232.7,1.055
112.01,1,-0.002,0.003,-0.001,-0.014,0.008,0.007,-1.57,0.024,0.125,111.05,102.4,40.495262,-3.384642,597.8,3,5,232.7,1.055
112.12,1,-0.026,-0.007,0.017,-0.007,-0.002,0.01,-1.57,0.026,0.126,111.05,102.4,40.495262,-3.384642,597.8,3,5,232.7,1.055
112.21,1,-0.017,-0.009,0.018,-0.024,-0.003,0.018,-1.572,0.027,0.126,111.05,102.4,40.495262,-3.384642,597.8,3,5,232.7,1.055
112.31,1,0.059,-0.018,0.001,0.013,-0.008,0.008,-1.571,0.032,0.127,111.05,102.4,40.495262,-3.384642,597.8,3,5,232.7,1.055
112.41,1,-0.007,0.001,0.002,0.021,-0.012,-0.001,-1.57,0.034,0.127,111.05,102.4,40.495262,-3.384642,597.8,3,5,232.7,1.055
112.51,1,-0.038,0.008,0.024,-0.01,0.002,0.02,-1.57,0.033,0.127,111.05,102.4,40.495262,-3.384642,597.8,3,5,232.7,1.055
112.62,1,0.023,0.022,0.019,-0.005,0.014,0.015,-1.57,0.031,0.127,111.05,102.4,40.495262,-3.384642,597.8,3,5,232.7,1.055
112.72,1,0.005,0.016,0.006,0.01,0.012,0.017,-1.572,0.033,0.128,111.98,102.4,40.495262,-3.384642,597.8,3,5,232.7,1.055
112.82,1,0.017,-0.002,0.015,0.001,0.008,0.008,-1.57,0.035,0.129,111.98,102.4,40.495262,-3.384642,597.8,3,5,232.7,1.055
112.92,1,0.108,-0.018,0.024,0.051,-0.005,0.022,-1.569,0.036,0.13,111.98,102.4,40.495262,-3.384642,597.8,3,5,232.7,1.055
113.02,1,0.032,-0.013,-0.041,0.061,-0.008,-0.007,-1.566,0.035,0.131,111.98,102.4,40.495262,-3.384642,597.8,3,5,232.7,1.055
113.12,1,-0.072,0.004,0.021,-0.005,-0.006,-0.001,-1.564,0.035,0.132,111.98,102.4,40.495262,-3.384642,597.8,3,5,232.7,1.055
113.22,1,-0.058,0.003,0.019,-0.039,-0.0,0.008,-1.566,0.032,0.133,111.98,102.4,40.495262,-3.384642,597.8,3,5,232.7,1.055
113.32,1,-0.043,-0.007,0.043,-0.052,-0.005,0.033,-1.566,0.032,0.134,111.98,102.4,40.495262,-3.384642,597.8,3,5,232.7,1.055
113.42,1,-0.046,0.015,-0.025,-0.043,0.009,0.011,-1.566,0.033,0.135,111.98,102.4,40.495262,-3.384642,597.8,3,5,232.7,1.055
113.52,1,-0.075,-0.007,0.022,-0.055,0.006,0.004,-1.568,0.036,0.136,111.98,102.4,40.495262,-3.384642,597.8,3,5,232.7,1.055
113.62,1,0.021,-0.013,0.03,-0.023,-0.008,0.017,-1.571,0.038,0.137,111.98,102.4,40.495262,-3.384642,597.8,3,5,232.7,1.055
113.72,1,0.04,-0.006,0.01,-0.001,-0.014,0.014,-1.572,0.041,0.138,112.99,103.6,40.495106,-3.384915,598.2,3,5,233.1,0.703
113.82,1,-0.052,-0.003,-0.028,-0.007,-0.002,-0.005,-1.572,0.041,0.139,112.99,103.6,40.495106,-3.384915,598.2,3,5,233.1,0.703
113.92,1,-0.056,0.009,0.008,-0.03,0.001,-0.002,-1.571,0.04,0.14,112.99,103.6,40.495106,-3.384915,598.2,3,5,233.1,0.703
114.12,1,-0.023,-0.022,0.002,-0.009,-0.004,0.011,-1.572,0.04,0.142,112.99,103.6,40.495106,-3.384915,598.2,3,5,233.1,0.703
114.22,1,0.018,-0.027,0.014,-0.002,-0.018,0.013,-1.572,0.042,0.143,112.99,103.6,40.495106,-3.384915,598.2,3,5,233.1,0.703
114.32,1,-0.027,0.019,0.016,-0.012,-0.003,0.004,-1.571,0.042,0.143,112.99,103.6,40.495106,-3.384915,598.2,3,5,233.1,0.703
114.42,1,-0.0,0.028,0.008,-0.003,0.013,0.015,-1.57,0.041,0.144,112.99,103.6,40.495106,-3.384915,598.2,3,5,233.1,0.703
114.52,1,0.018,0.014,0.04,-0.003,0.017,0.019,-1.572,0.039,0.144,112.99,103.6,40.495106,-3.384915,598.2,3,5,233.1,0.703
114.62,1,-0.011,0.027,-0.023,0.01,0.021,0.01,-1.569,0.036,0.143,112.99,103.6,40.495106,-3.384915,598.2,3,5,233.1,0.703
114.72,1,0.015,0.043,0.008,0.003,0.034,0.008,-1.57,0.032,0.143,112.99,103.6,40.495106,-3.384915,598.2,3,5,233.1,0.703
114.82,1,-0.05,0.021,0.008,-0.021,0.028,-0.001,-1.568,0.03,0.143,114.01,105.4,40.494789,-3.38546,598.5,3,5,232.0,0.352
114.92,1,-0.039,0.017,0.001,-0.032,0.021,0.003,-1.569,0.03,0.143,114.01,105.4,40.494789,-3.38546,598.5,3,5,232.0,0.352
115.03,1,0.033,0.006,0.023,-0.005,0.014,0.019,-1.571,0.028,0.143,114.01,105.4,40.494789,-3.38546,598.5,3,5,232.0,0.352
115.12,1,-0.017,0.005,0.015,-0.014,0.012,0.007,-1.572,0.028,0.143,114.01,105.4,40.494789,-3.38546,598.5,3,5,232.0,0.352
115.23,1,-0.011,-0.002,-0.005,-0.002,0.005,0.007,-1.571,0.026,0.143,114.01,105.4,40.494789,-3.38546,598.5,3,5,232.0,0.352
115.33,1,-0.005,0.01,-0.002,-0.005,0.002,0.004,-1.571,0.027,0.143,114.01,105.4,40.494789,-3.38546,598.5,3,5,232.0,0.352
115.42,1,0.03,0.005,0.012,0.006,0.005,0.005,-1.571,0.026,0.143,114.01,105.4,40.494789,-3.38546,598.5,3,5,232.0,0.352
115.52,1,-0.039,-0.004,-0.017,-0.009,-0.001,-0.005,-1.57,0.025,0.142,114.01,105.4,40.494789,-3.38546,598.5,3,5,232.0,0.352
115.62,1,-0.012,0.012,0.023,-0.013,0.007,0.007,-1.57,0.023,0.142,114.01,105.4,40.494789,-3.38546,598.5,3,5,232.0,0.352
115.72,1,-0.002,0.013,0.016,-0.001,0.009,0.017,-1.571,0.02,0.141,114.01,105.4,40.494789,-3.38546,598.5,3,5,232.0,0.352
115.83,1,-0.038,0.013,-0.0,-0.027,0.01,0.009,-1.572,0.02,0.141,115.0,105.4,40.494789,-3.38546,598.5,3,5,232.0,1.055
115.93,1,0.023,0.002,0.003,-0.003,0.007,0.001,-1.574,0.021,0.14,115.0,105.4,40.494789,-3.38546,598.5,3,5,232.0,1.055
116.02,1,-0.038,0.005,-0.013,-0.01,0.008,-0.001,-1.574,0.02,0.14,115.0,105.4,40.494789,-3.38546,598.5,3,5,232.0,1.055
116.13,1,-0.018,-0.001,0.019,-0.03,0.005,0.005,-1.574,0.022,0.14,115.0,105.4,40.494789,-3.38546,598.5,3,5,232.0,1.055
116.22,1,-0.016,-0.035,-0.002,-0.02,-0.014,0.001,-1.573,0.026,0.141,115.0,105.4,40.494789,-3.38546,598.5,3,5,232.0,1.055
116.33,1,-0.027,-0.005,-0.016,-0.021,-0.016,-0.006,-1.571,0.027,0.141,115.0,105.4,40.494789,-3.38546,598.5,3,5,232.0,1.055
116.43,1,0.005,-0.007,0.003,-0.012,-0.009,-0.004,-1.573,0.022,0.141,115.0,105.4,40.494789,-3.38546,598.5,3,5,232.0,1.055
116.53,1,-0.025,0.03,0.019,-0.015,0.006,0.013,-1.572,0.017,0.14,115.0,105.4,40.494789,-3.38546,598.5,3,5,232.0,1.055
116.63,1,0.007,0.032,0.01,-0.009,0.027,0.007,-1.57,0.017,0.139,115.0,105.4,40.494789,-3.38546,598.5,3,5,232.0,1.055
116.73,1,-0.029,-0.005,-0.017,-0.01,0.014,0.005,-1.568,0.019,0.14,115.0,105.4,40.494789,-3.38546,598.5,3,5,232.0,1.055
116.83,1,0.01,-0.001,0.031,-0.002,0.002,0.003,-1.567,0.019,0.139,115.98,106.1,40.494621,-3.385733,598.8,3,5,231.7,1.055
