Timestamp_Accel,SystemActivated,accelerometerXAxis,accelerometerYAxis,accelerometerZAxis,AccelX_KF,AccelY_KF,AccelZ_KF,gyroscopeXAxis,gyroscopeYAxis,gyroscopeZAxis,Timestamp_GPS,Speed,latitude,longitude,Altitude,VerticalAccuracy,HorizontalAccuracy,Course,Difcourse
17.46,0,-0.025,-0.005,-0.044,-0.018,-0.012,-0.073,-1.605,-0.02,-0.014,17.43,0.0,40.583706,-3.555486,610.6,20,229,-1.0,-1.0
17.57,0,0.015,-0.043,-0.038,0.0,-0.021,-0.048,-1.607,-0.02,-0.017,17.43,0.0,40.583706,-3.555486,610.6,20,229,-1.0,-1.0
17.67,0,-0.014,0.01,-0.017,-0.002,-0.012,-0.031,-1.608,-0.02,-0.02,17.43,0.0,40.583706,-3.555486,610.6,20,229,-1.0,-1.0
17.76,0,-0.018,-0.006,-0.024,-0.016,-0.007,-0.028,-1.603,-0.023,-0.022,17.43,0.0,40.583706,-3.555486,610.6,20,229,-1.0,-1.0
17.86,1,-0.022,0.014,-0.014,-0.019,0.005,-0.017,-1.593,-0.024,-0.024,17.43,0.0,40.583706,-3.555486,610.6,20,229,-1.0,-1.0
17.97,1,0.001,-0.037,-0.009,-0.006,-0.02,-0.017,-1.59,-0.022,-0.027,17.43,0.0,40.583706,-3.555486,610.6,20,229,-1.0,-1.0
18.07,1,0.032,-0.04,0.014,0.006,-0.028,0.0,-1.588,-0.018,-0.028,17.43,0.0,40.583706,-3.555486,610.6,20,229,-1.0,-1.0
18.17,1,0.019,-0.036,-0.011,0.015,-0.028,0.002,-1.591,-0.016,-0.028,17.43,0.0,40.583706,-3.555486,610.6,20,229,-1.0,-1.0
18.27,1,-0.018,-0.079,-0.009,0.004,-0.052,-0.01,-1.592,-0.014,-0.028,17.43,0.0,40.583706,-3.555486,610.6,20,229,-1.0,-1.0
18.37,1,-0.03,-0.065,0.014,-0.012,-0.067,0.002,-1.593,-0.014,-0.028,17.43,0.0,40.583706,-3.555486,610.6,20,229,-1.0,-1.0
18.47,1,-0.061,-0.07,-0.022,-0.035,-0.062,-0.005,-1.594,-0.016,-0.028,18.44,70.1,40.584461,-3.554302,607.9,16,10,96.0,176.836
18.57,1,0.043,0.004,0.035,-0.01,-0.038,0.005,-1.595,-0.019,-0.03,18.44,70.1,40.584461,-3.554302,607.9,16,10,96.0,176.836
18.67,1,0.068,0.01,-0.0,0.025,-0.014,0.01,-1.593,-0.018,-0.033,18.44,70.1,40.584461,-3.554302,607.9,16,10,96.0,176.836
18.78,1,-0.015,0.019,0.022,0.022,0.006,0.011,-1.593,-0.015,-0.034,18.44,70.1,40.584461,-3.554302,607.9,16,10,96.0,176.836
18.87,1,-0.033,-0.022,-0.0,0.004,-0.005,0.012,-1.594,-0.012,-0.036,18.44,70.1,40.584461,-3.554302,607.9,16,10,96.0,176.836
18.97,1,-0.073,-0.038,0.013,-0.049,-0.016,0.009,-1.597,-0.012,-0.038,18.44,70.1,40.584461,-3.554302,607.9,16,10,96.0,176.836
19.07,1,-0.046,0.017,0.03,-0.053,-0.014,0.021,-1.599,-0.015,-0.041,18.44,70.1,40.584461,-3.554302,607.9,16,10,96.0,176.836
19.17,1,0.027,0.065,0.004,-0.015,0.023,0.007,-1.599,-0.018,-0.046,18.44,70.1,40.584461,-3.554302,607.9,16,10,96.0,176.836
19.27,1,0.048,0.068,-0.006,0.021,0.055,0.004,-1.599,-0.021,-0.051,18.44,70.1,40.584461,-3.554302,607.9,16,10,96.0,176.836
19.37,1,0.052,0.087,0.05,0.043,0.076,0.027,-1.598,-0.022,-0.056,18.44,70.1,40.584461,-3.554302,607.9,16,10,96.0,176.836
19.47,1,-0.077,0.046,-0.049,-0.007,0.068,-0.002,-1.599,-0.022,-0.06,19.45,71.7,40.584423,-3.554038,611.9,4,5,96.7,0.703
19.58,1,-0.068,0.036,0.022,-0.049,0.042,-0.004,-1.601,-0.02,-0.064,19.45,71.7,40.584423,-3.554038,611.9,4,5,96.7,0.703
19.67,1,-0.004,-0.026,0.026,-0.032,0.017,0.016,-1.602,-0.018,-0.067,19.45,71.7,40.584423,-3.554038,611.9,4,5,96.7,0.703
19.77,1,-0.017,0.0,0.028,-0.026,-0.006,0.026,-1.601,-0.017,-0.07,19.45,71.7,40.584423,-3.554038,611.9,4,5,96.7,0.703
19.87,1,0.031,-0.033,0.063,-0.006,-0.017,0.043,-1.603,-0.009,-0.073,19.45,71.7,40.584423,-3.554038,611.9,4,5,96.7,0.703
19.97,1,0.011,0.029,0.039,0.025,0.002,0.032,-1.604,-0.001,-0.076,19.45,71.7,40.584423,-3.554038,611.9,4,5,96.7,0.703
20.08,1,-0.086,-0.017,0.005,-0.023,0.004,0.035,-1.607,0.007,-0.077,19.45,71.7,40.584423,-3.554038,611.9,4,5,96.7,0.703
20.17,1,-0.093,-0.053,0.002,-0.081,-0.028,0.008,-1.61,0.007,-0.077,19.45,71.7,40.584423,-3.554038,611.9,4,5,96.7,0.703
20.27,1,-0.014,-0.04,0.06,-0.056,-0.039,0.036,-1.612,0.005,-0.078,19.45,71.7,40.584423,-3.554038,611.9,4,5,96.7,0.703
20.37,1,0.009,-0.022,0.028,-0.019,-0.031,0.035,-1.609,0.009,-0.078,19.45,71.7,40.584423,-3.554038,611.9,4,5,96.7,0.703
20.47,1,-0.021,-0.084,0.018,-0.015,-0.053,0.027,-1.605,0.014,-0.078,20.43,73.4,40.584396,-3.55377,612.0,3,5,97.7,1.758
20.57,1,0.075,-0.031,0.061,0.021,-0.053,0.035,-1.605,0.016,-0.077,20.43,73.4,40.584396,-3.55377,612.0,3,5,97.7,1.758
20.67,1,-0.002,-0.008,0.026,0.034,-0.027,0.042,-1.605,0.016,-0.076,20.43,73.4,40.584396,-3.55377,612.0,3,5,97.7,1.758
20.78,1,-0.028,-0.078,0.008,-0.009,-0.043,0.015,-1.605,0.017,-0.075,20.43,73.4,40.584396,-3.55377,612.0,3,5,97.7,1.758
20.87,1,0.011,-0.034,0.054,0.005,-0.049,0.033,-1.607,0.017,-0.074,20.43,73.4,40.584396,-3.55377,612.0,3,5,97.7,1.758
20.97,1,-0.037,-0.047,0.018,-0.014,-0.043,0.035,-1.611,0.024,-0.073,20.43,73.4,40.584396,-3.55377,612.0,3,5,97.7,1.758
21.07,1,-0.031,-0.046,0.027,-0.033,-0.04,0.024,-1.61,0.03,-0.072,20.43,73.4,40.584396,-3.55377,612.0,3,5,97.7,1.758
21.17,1,-0.034,-0.008,0.009,-0.028,-0.032,0.022,-1.613,0.041,-0.071,20.43,73.4,40.584396,-3.55377,612.0,3,5,97.7,1.758
21.28,1,-0.016,0.009,0.016,-0.021,-0.012,0.018,-1.617,0.049,-0.07,20.43,73.4,40.584396,-3.55377,612.0,3,5,97.7,1.758
21.37,1,-0.035,0.011,0.026,-0.028,0.008,0.02,-1.62,0.054,-0.069,20.43,73.4,40.584396,-3.55377,612.0,3,5,97.7,1.758
21.48,1,-0.045,-0.006,0.032,-0.036,0.0,0.024,-1.624,0.056,-0.068,21.44,75.9,40.584366,-3.553519,612.0,3,5,98.8,2.109
21.58,1,-0.051,-0.008,0.025,-0.048,-0.011,0.032,-1.626,0.054,-0.067,21.44,75.9,40.584366,-3.553519,612.0,3,5,98.8,2.109
21.67,1,-0.008,0.002,0.003,-0.032,0.001,0.014,-1.627,0.055,-0.067,21.44,75.9,40.584366,-3.553519,612.0,3,5,98.8,2.109
21.77,1,-0.046,-0.035,0.006,-0.023,-0.006,0.013,-1.628,0.054,-0.066,21.44,75.9,40.584366,-3.553519,612.0,3,5,98.8,2.109
21.87,1,0.054,-0.021,0.009,-0.008,-0.032,0.002,-1.624,0.054,-0.066,21.44,75.9,40.584366,-3.553519,612.0,3,5,98.8,2.109
21.97,1,0.039,0.115,0.0,0.038,0.036,0.009,-1.621,0.053,-0.067,21.44,75.9,40.584366,-3.553519,612.0,3,5,98.8,2.109
22.08,1,-0.006,0.026,-0.041,0.022,0.051,-0.014,-1.618,0.053,-0.067,21.44,75.9,40.584366,-3.553519,612.0,3,5,98.8,2.109
22.17,1,-0.021,0.01,-0.009,-0.011,0.02,-0.017,-1.616,0.053,-0.068,21.44,75.9,40.584366,-3.553519,612.0,3,5,98.8,2.109
22.27,1,-0.07,0.03,-0.023,-0.038,0.029,-0.016,-1.616,0.052,-0.069,21.44,75.9,40.584366,-3.553519,612.0,3,5,98.8,2.109
22.38,1,-0.037,0.024,-0.038,-0.047,0.029,-0.029,-1.616,0.051,-0.07,21.44,75.9,40.584366,-3.553519,612.0,3,5,98.8,2.109
22.48,1,-0.043,0.038,0.005,-0.025,0.036,-0.012,-1.62,0.042,-0.072,22.41,79.2,40.584332,-3.553254,612.0,3,5,97.7,1.055
22.58,1,-0.019,0.062,0.005,-0.028,0.046,-0.002,-1.619,0.039,-0.073,22.41,79.2,40.584332,-3.553254,612.0,3,5,97.7,1.055
22.68,1,0.007,0.026,-0.02,-0.034,0.031,-0.011,-1.618,0.039,-0.074,22.41,79.2,40.584332,-3.553254,612.0,3,5,97.7,1.055
22.78,1,0.061,0.015,-0.018,0.001,0.021,-0.02,-1.617,0.039,-0.076,22.41,79.2,40.584332,-3.553254,612.0,3,5,97.7,1.055
22.88,1,0.098,0.027,0.004,0.08,0.024,-0.005,-1.618,0.037,-0.077,22.41,79.2,40.584332,-3.553254,612.0,3,5,97.7,1.055
22.98,1,0.007,-0.006,-0.021,0.051,0.021,-0.008,-1.617,0.031,-0.078,22.41,79.2,40.584332,-3.553254,612.0,3,5,97.7,1.055
23.08,1,0.006,0.022,-0.056,0.019,0.011,-0.034,-1.611,0.019,-0.079,22.41,79.2,40.584332,-3.553254,612.0,3,5,97.7,1.055
23.18,1,0.019,0.038,-0.014,0.016,0.025,-0.028,-1.608,0.019,-0.08,22.41,79.2,40.584332,-3.553254,612.0,3,5,97.7,1.055
23.28,1,-0.051,0.035,-0.021,-0.002,0.034,-0.024,-1.607,0.019,-0.082,22.41,79.2,40.584332,-3.553254,612.0,3,5,97.7,1.055
23.38,1,-0.007,0.03,-0.022,-0.026,0.026,-0.024,-1.607,0.018,-0.083,22.41,79.2,40.584332,-3.553254,612.0,3,5,97.7,1.055
23.48,1,-0.014,0.005,-0.013,-0.012,0.02,-0.019,-1.61,0.02,-0.084,23.43,80.5,40.584309,-3.552999,613.1,3,5,98.4,0.703
23.58,1,-0.067,0.064,-0.053,-0.043,0.036,-0.041,-1.619,0.015,-0.086,23.43,80.5,40.584309,-3.552999,613.1,3,5,98.4,0.703
23.68,1,-0.117,-0.021,0.024,-0.076,0.022,-0.01,-1.621,0.013,-0.088,23.43,80.5,40.584309,-3.552999,613.1,3,5,98.4,0.703
23.78,1,-0.01,0.051,-0.012,-0.051,0.018,-0.0,-1.623,0.011,-0.09,23.43,80.5,40.584309,-3.552999,613.1,3,5,98.4,0.703
23.89,1,-0.025,0.063,-0.014,-0.032,0.05,-0.006,-1.623,0.01,-0.092,23.43,80.5,40.584309,-3.552999,613.1,3,5,98.4,0.703
23.99,1,0.025,0.032,-0.008,-0.009,0.047,-0.012,-1.622,0.011,-0.095,23.43,80.5,40.584309,-3.552999,613.1,3,5,98.4,0.703
24.08,1,0.008,0.043,-0.006,0.004,0.033,-0.009,-1.621,0.011,-0.097,23.43,80.5,40.584309,-3.552999,613.1,3,5,98.4,0.703
24.18,1,0.019,0.031,-0.032,0.01,0.04,-0.02,-1.619,0.009,-0.1,23.43,80.5,40.584309,-3.552999,613.1,3,5,98.4,0.703
24.28,1,0.024,0.048,-0.008,0.022,0.039,-0.012,-1.615,0.007,-0.102,23.43,80.5,40.584309,-3.552999,613.1,3,5,98.4,0.703
24.38,1,-0.001,0.058,-0.051,0.023,0.049,-0.026,-1.616,0.005,-0.105,23.43,80.5,40.584309,-3.552999,613.1,3,5,98.4,0.703
24.48,1,-0.027,0.041,-0.025,-0.008,0.052,-0.039,-1.617,0.005,-0.108,24.44,82.0,40.584274,-3.552727,612.2,3,5,99.1,1.406
24.58,1,-0.076,0.059,-0.025,-0.049,0.044,-0.029,-1.62,0.004,-0.11,24.44,82.0,40.584274,-3.552727,612.2,3,5,99.1,1.406
24.68,1,-0.084,0.077,-0.065,-0.064,0.072,-0.032,-1.623,0.003,-0.112,24.44,82.0,40.584274,-3.552727,612.2,3,5,99.1,1.406
24.78,1,-0.012,0.078,-0.077,-0.057,0.077,-0.058,-1.626,0.003,-0.116,24.44,82.0,40.584274,-3.552727,612.2,3,5,99.1,1.406
24.88,1,-0.026,0.117,-0.003,-0.029,0.093,-0.044,-1.628,0.003,-0.12,24.44,82.0,40.584274,-3.552727,612.2,3,5,99.1,1.406
24.99,1,-0.063,0.072,-0.087,-0.043,0.081,-0.054,-1.628,0.003,-0.123,24.44,82.0,40.584274,-3.552727,612.2,3,5,99.1,1.406
25.08,1,-0.028,0.097,-0.067,-0.041,0.09,-0.069,-1.628,0.003,-0.128,24.44,82.0,40.584274,-3.552727,612.2,3,5,99.1,1.406
25.19,1,0.033,0.103,-0.087,-0.006,0.099,-0.074,-1.628,0.003,-0.133,24.44,82.0,40.584274,-3.552727,612.2,3,5,99.1,1.406
25.28,1,0.033,0.105,-0.072,0.012,0.1,-0.076,-1.625,0.001,-0.138,24.44,82.0,40.584274,-3.552727,612.2,3,5,99.1,1.406
25.38,1,0.06,0.098,-0.07,0.04,0.098,-0.075,-1.619,-0.005,-0.144,24.44,82.0,40.584274,-3.552727,612.2,3,5,99.1,1.406
25.48,1,0.01,0.053,-0.087,0.039,0.078,-0.073,-1.602,-0.019,-0.148,25.41,83.3,40.58424,-3.552464,612.0,3,5,100.5,2.109
25.59,1,-0.004,0.064,-0.057,0.013,0.07,-0.073,-1.588,-0.027,-0.153,25.41,83.3,40.58424,-3.552464,612.0,3,5,100.5,2.109
25.69,1,-0.002,0.051,-0.051,0.0,0.059,-0.061,-1.577,-0.033,-0.157,25.41,83.3,40.58424,-3.552464,612.0,3,5,100.5,2.109
25.79,1,-0.06,0.031,-0.043,-0.024,0.053,-0.05,-1.571,-0.038,-0.161,25.41,83.3,40.58424,-3.552464,612.0,3,5,100.5,2.109
25.89,1,-0.046,0.056,-0.052,-0.036,0.041,-0.051,-1.568,-0.045,-0.165,25.41,83.3,40.58424,-3.552464,612.0,3,5,100.5,2.109
25.98,1,0.016,0.022,-0.007,-0.026,0.04,-0.032,-1.568,-0.05,-0.169,25.41,83.3,40.58424,-3.552464,612.0,3,5,100.5,2.109
26.08,1,0.034,0.002,-0.03,0.006,0.02,-0.034,-1.568,-0.048,-0.172,25.41,83.3,40.58424,-3.552464,612.0,3,5,100.5,2.109
26.18,1,0.082,-0.023,-0.028,0.05,0.002,-0.019,-1.568,-0.046,-0.175,25.41,83.3,40.58424,-3.552464,612.0,3,5,100.5,2.109
26.29,1,-0.08,-0.036,-0.045,0.01,-0.019,-0.035,-1.567,-0.044,-0.177,25.41,83.3,40.58424,-3.552464,612.0,3,5,100.5,2.109
26.4,1,-0.012,-0.044,-0.02,-0.032,-0.036,-0.036,-1.562,-0.04,-0.178,25.41,83.3,40.58424,-3.552464,612.0,3,5,100.5,2.109
26.59,1,-0.078,-0.021,-0.051,-0.034,-0.027,-0.025,-1.566,-0.037,-0.181,26.43,83.4,40.584194,-3.5522,612.8,3,5,103.0,3.867
26.69,1,-0.014,-0.017,-0.013,-0.04,-0.02,-0.027,-1.57,-0.037,-0.183,26.43,83.4,40.584194,-3.5522,612.8,3,5,103.0,3.867
26.79,1,-0.002,0.031,0.009,-0.004,-0.0,-0.011,-1.572,-0.039,-0.185,26.43,83.4,40.584194,-3.5522,612.8,3,5,103.0,3.867
26.89,1,0.026,-0.008,0.007,-0.005,-0.0,-0.004,-1.574,-0.037,-0.187,26.43,83.4,40.584194,-3.5522,612.8,3,5,103.0,3.867
26.99,1,-0.036,0.031,-0.043,-0.003,0.008,-0.012,-1.571,-0.036,-0.189,26.43,83.4,40.584194,-3.5522,612.8,3,5,103.0,3.867
27.09,1,0.004,-0.003,-0.021,-0.014,0.01,-0.025,-1.576,-0.034,-0.192,26.43,83.4,40.584194,-3.5522,612.8,3,5,103.0,3.867
27.19,1,-0.039,0.012,-0.057,-0.011,0.013,-0.038,-1.579,-0.032,-0.194,26.43,83.4,40.584194,-3.5522,612.8,3,5,103.0,3.867
27.29,1,-0.053,-0.021,-0.034,-0.049,-0.003,-0.042,-1.578,-0.031,-0.196,26.43,83.4,40.584194,-3.5522,612.8,3,5,103.0,3.867
27.39,1,-0.002,-0.006,-0.027,-0.02,-0.009,-0.032,-1.577,-0.032,-0.198,26.43,83.4,40.584194,-3.5522,612.8,3,5,103.0,3.867
27.49,1,0.025,-0.004,-0.012,0.001,-0.007,-0.024,-1.576,-0.033,-0.2,26.43,83.4,40.584194,-3.5522,612.8,3,5,103.0,3.867
27.59,1,0.0,-0.021,-0.029,0.005,-0.013,-0.016,-1.575,-0.034,-0.201,27.44,82.9,40.584137,-3.551938,612.0,3,5,105.1,4.57
27.69,1,-0.036,-0.031,-0.022,-0.021,-0.02,-0.03,-1.572,-0.033,-0.203,27.44,82.9,40.584137,-3.551938,612.0,3,5,105.1,4.57
27.79,1,0.015,-0.047,0.028,-0.002,-0.034,-0.003,-1.57,-0.026,-0.205,27.44,82.9,40.584137,-3.551938,612.0,3,5,105.1,4.57
27.89,1,0.034,0.006,-0.024,0.012,-0.023,-0.001,-1.571,-0.026,-0.206,27.44,82.9,40.584137,-3.551938,612.0,3,5,105.1,4.57
27.99,1,-0.012,-0.014,-0.022,0.016,-0.006,-0.019,-1.568,-0.026,-0.206,27.44,82.9,40.584137,-3.551938,612.0,3,5,105.1,4.57
28.09,1,-0.043,-0.002,-0.04,-0.031,-0.014,-0.03,-1.567,-0.028,-0.208,27.44,82.9,40.584137,-3.551938,612.0,3,5,105.1,4.57
28.19,1,0.061,-0.012,0.015,0.005,-0.009,-0.012,-1.569,-0.029,-0.21,27.44,82.9,40.584137,-3.551938,612.0,3,5,105.1,4.57
28.3,1,0.052,0.002,0.023,0.051,-0.007,0.01,-1.569,-0.029,-0.211,27.44,82.9,40.584137,-3.551938,612.0,3,5,105.1,4.57
28.39,1,-0.034,0.011,-0.019,0.01,0.011,-0.001,-1.564,-0.03,-0.213,27.44,82.9,40.584137,-3.551938,612.0,3,5,105.1,4.57
28.49,1,-0.024,0.008,-0.024,-0.016,0.006,-0.014,-1.565,-0.033,-0.216,27.44,82.9,40.584137,-3.551938,612.0,3,5,105.1,4.57
28.59,1,-0.05,0.001,-0.028,-0.026,0.002,-0.026,-1.561,-0.033,-0.218,28.42,82.5,40.58408,-3.551673,613.1,3,5,106.5,3.516
28.69,1,0.0,0.021,0.002,-0.031,0.003,-0.01,-1.561,-0.035,-0.22,28.42,82.5,40.58408,-3.551673,613.1,3,5,106.5,3.516
28.79,1,-0.011,-0.01,0.0,-0.009,0.008,-0.004,-1.561,-0.036,-0.222,28.42,82.5,40.58408,-3.551673,613.1,3,5,106.5,3.516
28.89,1,0.02,0.01,-0.001,0.002,0.008,0.002,-1.566,-0.037,-0.224,28.42,82.5,40.58408,-3.551673,613.1,3,5,106.5,3.516
28.99,1,0.078,0.007,0.033,0.039,0.008,0.011,-1.57,-0.037,-0.226,28.42,82.5,40.58408,-3.551673,613.1,3,5,106.5,3.516
29.09,1,0.007,-0.014,0.011,0.038,0.0,0.016,-1.57,-0.038,-0.227,28.42,82.5,40.58408,-3.551673,613.1,3,5,106.5,3.516
29.19,1,-0.007,0.005,0.002,0.006,-0.004,0.004,-1.568,-0.033,-0.229,28.42,82.5,40.58408,-3.551673,613.1,3,5,106.5,3.516
29.29,1,-0.001,-0.003,0.01,-0.0,-0.003,0.01,-1.566,-0.03,-0.23,28.42,82.5,40.58408,-3.551673,613.1,3,5,106.5,3.516
29.39,1,-0.015,-0.011,0.035,0.004,-0.003,0.02,-1.564,-0.03,-0.232,28.42,82.5,40.58408,-3.551673,613.1,3,5,106.5,3.516
29.5,1,-0.006,-0.026,0.012,-0.014,-0.017,0.017,-1.567,-0.031,-0.233,28.42,82.5,40.58408,-3.551673,613.1,3,5,106.5,3.516
29.59,1,-0.0,0.012,0.05,-0.005,-0.002,0.035,-1.57,-0.03,-0.235,29.41,82.2,40.584011,-3.551411,612.5,3,5,107.9,2.812
29.69,1,-0.038,-0.02,0.026,-0.015,-0.013,0.036,-1.577,-0.025,-0.236,29.41,82.2,40.584011,-3.551411,612.5,3,5,107.9,2.812
29.79,1,0.004,-0.005,0.037,-0.015,-0.01,0.031,-1.583,-0.025,-0.238,29.41,82.2,40.584011,-3.551411,612.5,3,5,107.9,2.812
29.89,1,0.013,0.012,0.036,0.002,0.003,0.036,-1.584,-0.024,-0.239,29.41,82.2,40.584011,-3.551411,612.5,3,5,107.9,2.812
30.0,1,-0.008,0.02,0.026,0.002,0.013,0.032,-1.59,-0.022,-0.24,29.41,82.2,40.584011,-3.551411,612.5,3,5,107.9,2.812
30.1,1,-0.022,-0.038,-0.009,-0.011,-0.006,0.009,-1.595,-0.023,-0.241,29.41,82.2,40.584011,-3.551411,612.5,3,5,107.9,2.812
30.21,1,-0.029,-0.031,0.03,-0.021,-0.025,0.017,-1.599,-0.022,-0.242,29.41,82.2,40.584011,-3.551411,612.5,3,5,107.9,2.812
30.3,1,0.022,-0.038,0.071,-0.008,-0.035,0.042,-1.605,-0.022,-0.243,29.41,82.2,40.584011,-3.551411,612.5,3,5,107.9,2.812
30.4,1,0.014,-0.025,0.01,0.011,-0.026,0.036,-1.609,-0.02,-0.243,29.41,82.2,40.584011,-3.551411,612.5,3,5,107.9,2.812
30.5,1,-0.018,-0.051,0.023,0.003,-0.037,0.026,-1.61,-0.02,-0.243,29.41,82.2,40.584011,-3.551411,612.5,3,5,107.9,2.812
30.6,1,0.004,-0.05,0.036,-0.004,-0.05,0.029,-1.613,-0.018,-0.242,30.43,82.6,40.583939,-3.551152,613.3,3,5,109.7,3.164
30.7,1,-0.015,-0.062,0.037,-0.002,-0.051,0.032,-1.615,-0.017,-0.242,30.43,82.6,40.583939,-3.551152,613.3,3,5,109.7,3.164
30.8,1,-0.074,-0.012,0.02,-0.038,-0.039,0.033,-1.62,-0.016,-0.242,30.43,82.6,40.583939,-3.551152,613.3,3,5,109.7,3.164
30.9,1,-0.021,-0.001,0.027,-0.042,-0.016,0.026,-1.624,-0.013,-0.242,30.43,82.6,40.583939,-3.551152,613.3,3,5,109.7,3.164
31.0,1,0.018,-0.018,0.025,-0.017,-0.012,0.027,-1.63,-0.014,-0.242,30.43,82.6,40.583939,-3.551152,613.3,3,5,109.7,3.164
31.1,1,-0.008,0.015,0.032,0.001,-0.005,0.026,-1.631,-0.01,-0.242,30.43,82.6,40.583939,-3.551152,613.3,3,5,109.7,3.164
31.2,1,-0.026,0.004,-0.012,-0.009,0.005,0.013,-1.631,-0.007,-0.242,30.43,82.6,40.583939,-3.551152,613.3,3,5,109.7,3.164
31.3,1,-0.01,0.016,0.005,-0.02,0.006,0.003,-1.634,-0.007,-0.242,30.43,82.6,40.583939,-3.551152,613.3,3,5,109.7,3.164
31.41,1,-0.005,0.013,0.002,-0.009,0.012,0.001,-1.637,-0.006,-0.242,30.43,82.6,40.583939,-3.551152,613.3,3,5,109.7,3.164
31.51,1,-0.023,0.012,0.012,-0.016,0.01,0.003,-1.639,-0.005,-0.244,30.43,82.6,40.583939,-3.551152,613.3,3,5,109.7,3.164
31.6,1,-0.024,0.032,0.022,-0.023,0.022,0.02,-1.638,-0.01,-0.246,31.43,84.4,40.583862,-3.550893,613.7,3,5,110.7,2.812
31.7,1,0.013,0.052,-0.009,-0.007,0.042,0.007,-1.641,-0.016,-0.248,31.43,84.4,40.583862,-3.550893,613.7,3,5,110.7,2.812
31.8,1,0.006,0.006,0.005,0.006,0.027,-0.001,-1.644,-0.02,-0.249,31.43,84.4,40.583862,-3.550893,613.7,3,5,110.7,2.812
31.9,1,-0.047,0.017,-0.034,-0.014,0.014,-0.009,-1.645,-0.021,-0.25,31.43,84.4,40.583862,-3.550893,613.7,3,5,110.7,2.812
32.0,1,-0.031,0.025,-0.021,-0.034,0.021,-0.023,-1.649,-0.022,-0.252,31.43,84.4,40.583862,-3.550893,613.7,3,5,110.7,2.812
32.1,1,-0.011,0.041,-0.006,-0.02,0.032,-0.015,-1.651,-0.026,-0.253,31.43,84.4,40.583862,-3.550893,613.7,3,5,110.7,2.812
32.2,1,-0.001,0.032,-0.052,-0.012,0.033,-0.023,-1.651,-0.03,-0.256,31.43,84.4,40.583862,-3.550893,613.7,3,5,110.7,2.812
32.3,1,-0.022,0.025,0.002,-0.011,0.029,-0.021,-1.648,-0.03,-0.258,31.43,84.4,40.583862,-3.550893,613.7,3,5,110.7,2.812
32.41,1,-0.038,0.022,-0.014,-0.028,0.023,-0.015,-1.647,-0.036,-0.26,31.43,84.4,40.583862,-3.550893,613.7,3,5,110.7,2.812
32.5,1,-0.012,0.022,-0.002,-0.019,0.025,-0.011,-1.647,-0.039,-0.262,31.43,84.4,40.583862,-3.550893,613.7,3,5,110.7,2.812
32.61,1,-0.012,0.009,-0.025,-0.02,0.019,-0.014,-1.645,-0.04,-0.264,32.46,87.3,40.583778,-3.550631,614.2,3,5,111.4,1.758
32.71,1,-0.006,-0.002,-0.031,-0.009,0.01,-0.024,-1.641,-0.041,-0.266,32.46,87.3,40.583778,-3.550631,614.2,3,5,111.4,1.758
32.8,1,-0.028,0.009,0.006,-0.018,0.005,-0.014,-1.638,-0.043,-0.267,32.46,87.3,40.583778,-3.550631,614.2,3,5,111.4,1.758
32.9,1,-0.044,0.019,-0.016,-0.024,0.014,-0.003,-1.636,-0.046,-0.269,32.46,87.3,40.583778,-3.550631,614.2,3,5,111.4,1.758
33.0,1,0.009,0.029,-0.005,-0.016,0.02,-0.012,-1.637,-0.047,-0.271,32.46,87.3,40.583778,-3.550631,614.2,3,5,111.4,1.758
33.1,1,-0.015,0.037,0.004,-0.015,0.024,-0.01,-1.636,-0.051,-0.274,32.46,87.3,40.583778,-3.550631,614.2,3,5,111.4,1.758
33.2,1,-0.004,0.025,-0.01,-0.012,0.031,0.0,-1.634,-0.052,-0.276,32.46,87.3,40.583778,-3.550631,614.2,3,5,111.4,1.758
33.31,1,-0.008,0.036,-0.049,-0.001,0.033,-0.022,-1.634,-0.055,-0.279,32.46,87.3,40.583778,-3.550631,614.2,3,5,111.4,1.758
33.4,1,-0.047,0.013,-0.033,-0.022,0.023,-0.038,-1.634,-0.057,-0.282,32.46,87.3,40.583778,-3.550631,614.2,3,5,111.4,1.758
33.51,1,0.024,0.013,-0.022,-0.01,0.023,-0.032,-1.631,-0.059,-0.284,32.46,87.3,40.583778,-3.550631,614.2,3,5,111.4,1.758
33.61,1,0.009,0.017,-0.039,0.007,0.012,-0.028,-1.632,-0.059,-0.286,33.45,90.1,40.583683,-3.550353,614.5,3,5,113.2,2.461
33.7,1,-0.023,0.008,-0.019,-0.012,0.014,-0.029,-1.63,-0.058,-0.288,33.45,90.1,40.583683,-3.550353,614.5,3,5,113.2,2.461
33.81,1,-0.002,-0.003,-0.032,-0.012,0.007,-0.029,-1.624,-0.058,-0.29,33.45,90.1,40.583683,-3.550353,614.5,3,5,113.2,2.461
33.91,1,-0.023,0.028,-0.041,-0.005,0.017,-0.031,-1.624,-0.059,-0.292,33.45,90.1,40.583683,-3.550353,614.5,3,5,113.2,2.461
34.0,1,-0.043,0.026,-0.064,-0.028,0.017,-0.043,-1.621,-0.058,-0.294,33.45,90.1,40.583683,-3.550353,614.5,3,5,113.2,2.461
34.11,1,-0.035,0.003,-0.017,-0.035,0.014,-0.042,-1.621,-0.058,-0.296,33.45,90.1,40.583683,-3.550353,614.5,3,5,113.2,2.461
34.21,1,-0.026,-0.021,-0.038,-0.033,-0.001,-0.031,-1.621,-0.057,-0.297,33.45,90.1,40.583683,-3.550353,614.5,3,5,113.2,2.461
34.31,1,0.005,-0.013,-0.021,-0.013,-0.014,-0.025,-1.619,-0.057,-0.298,33.45,90.1,40.583683,-3.550353,614.5,3,5,113.2,2.461
34.41,1,0.001,-0.012,-0.047,-0.005,-0.011,-0.039,-1.617,-0.056,-0.299,33.45,90.1,40.583683,-3.550353,614.5,3,5,113.2,2.461
34.51,1,-0.026,-0.045,-0.033,-0.011,-0.024,-0.039,-1.617,-0.055,-0.3,33.45,90.1,40.583683,-3.550353,614.5,3,5,113.2,2.461
34.61,1,-0.013,-0.019,-0.047,-0.017,-0.026,-0.045,-1.614,-0.05,-0.301,34.41,92.2,40.583584,-3.550076,615.3,3,5,115.3,3.867
34.71,1,-0.005,-0.021,-0.035,-0.013,-0.021,-0.04,-1.608,-0.047,-0.301,34.41,92.2,40.583584,-3.550076,615.3,3,5,115.3,3.867
34.81,1,0.003,-0.017,-0.049,-0.007,-0.022,-0.044,-1.604,-0.045,-0.302,34.41,92.2,40.583584,-3.550076,615.3,3,5,115.3,3.867
34.91,1,0.043,0.005,-0.026,0.019,-0.011,-0.034,-1.603,-0.048,-0.303,34.41,92.2,40.583584,-3.550076,615.3,3,5,115.3,3.867
35.01,1,-0.035,-0.013,-0.018,0.005,-0.008,-0.027,-1.603,-0.049,-0.303,34.41,92.2,40.583584,-3.550076,615.3,3,5,115.3,3.867
35.12,1,-0.043,-0.005,-0.043,-0.022,-0.007,-0.032,-1.598,-0.049,-0.304,34.41,92.2,40.583584,-3.550076,615.3,3,5,115.3,3.867
35.21,1,-0.022,-0.015,-0.03,-0.029,-0.01,-0.037,-1.599,-0.048,-0.304,34.41,92.2,40.583584,-3.550076,615.3,3,5,115.3,3.867
35.31,1,-0.018,-0.035,-0.005,-0.02,-0.018,-0.021,-1.6,-0.048,-0.304,34.41,92.2,40.583584,-3.550076,615.3,3,5,115.3,3.867
35.41,1,-0.007,-0.034,-0.037,-0.021,-0.03,-0.026,-1.599,-0.047,-0.305,34.41,92.2,40.583584,-3.550076,615.3,3,5,115.3,3.867
35.51,1,0.019,-0.034,-0.008,-0.003,-0.036,-0.015,-1.597,-0.049,-0.305,34.41,92.2,40.583584,-3.550076,615.3,3,5,115.3,3.867
35.62,1,0.016,-0.025,-0.015,0.014,-0.025,-0.014,-1.597,-0.046,-0.305,35.4,93.3,40.583473,-3.549803,615.4,3,5,117.4,4.219
35.72,1,0.067,-0.014,-0.027,0.034,-0.023,-0.019,-1.596,-0.047,-0.305,35.4,93.3,40.583473,-3.549803,615.4,3,5,117.4,4.219
35.82,1,-0.017,-0.081,0.001,0.027,-0.04,-0.018,-1.596,-0.046,-0.305,35.4,93.3,40.583473,-3.549803,615.4,3,5,117.4,4.219
35.91,1,-0.02,0.014,-0.035,-0.002,-0.027,-0.018,-1.597,-0.046,-0.306,35.4,93.3,40.583473,-3.549803,615.4,3,5,117.4,4.219
36.01,1,-0.029,-0.032,-0.007,-0.025,-0.028,-0.01,-1.597,-0.046,-0.306,35.4,93.3,40.583473,-3.549803,615.4,3,5,117.4,4.219
36.11,1,-0.014,-0.023,-0.024,-0.019,-0.023,-0.019,-1.597,-0.047,-0.306,35.4,93.3,40.583473,-3.549803,615.4,3,5,117.4,4.219
36.21,1,-0.002,-0.026,-0.04,-0.001,-0.023,-0.027,-1.599,-0.047,-0.307,35.4,93.3,40.583473,-3.549803,615.4,3,5,117.4,4.219
36.31,1,-0.045,-0.009,-0.026,-0.029,-0.022,-0.035,-1.602,-0.045,-0.307,35.4,93.3,40.583473,-3.549803,615.4,3,5,117.4,4.219
36.41,1,0.006,-0.016,-0.007,-0.021,-0.018,-0.021,-1.602,-0.042,-0.307,35.4,93.3,40.583473,-3.549803,615.4,3,5,117.4,4.219
36.51,1,-0.015,0.0,-0.038,-0.008,-0.009,-0.022,-1.604,-0.035,-0.307,35.4,93.3,40.583473,-3.549803,615.4,3,5,117.4,4.219
36.61,1,0.001,-0.016,-0.009,-0.017,-0.011,-0.023,-1.602,-0.029,-0.307,36.43,93.7,40.583363,-3.549534,615.9,3,5,118.8,3.516
36.71,1,0.051,0.029,0.037,0.022,0.001,0.0,-1.6,-0.026,-0.307,36.43,93.7,40.583363,-3.549534,615.9,3,5,118.8,3.516
36.82,1,0.008,0.075,-0.045,0.029,0.043,-0.008,-1.599,-0.024,-0.308,36.43,93.7,40.583363,-3.549534,615.9,3,5,118.8,3.516
36.91,1,0.006,0.042,-0.016,0.012,0.05,-0.022,-1.599,-0.025,-0.309,36.43,93.7,40.583363,-3.549534,615.9,3,5,118.8,3.516
37.01,1,0.008,0.023,-0.028,0.013,0.036,-0.017,-1.6,-0.025,-0.31,36.43,93.7,40.583363,-3.549534,615.9,3,5,118.8,3.516
37.11,1,-0.012,0.052,-0.013,0.001,0.043,-0.01,-1.605,-0.03,-0.311,36.43,93.7,40.583363,-3.549534,615.9,3,5,118.8,3.516
37.21,1,0.042,-0.006,-0.009,0.018,0.025,-0.015,-1.608,-0.031,-0.313,36.43,93.7,40.583363,-3.549534,615.9,3,5,118.8,3.516
37.31,1,0.005,-0.011,0.011,0.012,0.005,-0.01,-1.605,-0.03,-0.314,36.43,93.7,40.583363,-3.549534,615.9,3,5,118.8,3.516
37.42,1,-0.033,0.02,-0.007,-0.01,0.003,-0.004,-1.601,-0.032,-0.314,36.43,93.7,40.583363,-3.549534,615.9,3,5,118.8,3.516
37.52,1,-0.019,0.003,-0.018,-0.02,0.009,-0.008,-1.601,-0.033,-0.315,36.43,93.7,40.583363,-3.549534,615.9,3,5,118.8,3.516
37.62,1,-0.005,0.019,-0.002,-0.013,0.013,-0.004,-1.601,-0.039,-0.316,37.42,94.5,40.583241,-3.549264,615.9,3,5,119.9,2.461
37.72,1,0.069,0.038,0.027,0.022,0.026,0.007,-1.601,-0.039,-0.317,37.42,94.5,40.583241,-3.549264,615.9,3,5,119.9,2.461
37.82,1,0.057,-0.041,0.012,0.049,-0.004,0.016,-1.606,-0.039,-0.317,37.42,94.5,40.583241,-3.549264,615.9,3,5,119.9,2.461
37.92,1,-0.006,-0.025,0.032,0.034,-0.019,0.018,-1.606,-0.033,-0.317,37.42,94.5,40.583241,-3.549264,615.9,3,5,119.9,2.461
38.02,1,-0.052,-0.016,0.001,-0.016,-0.017,0.015,-1.605,-0.03,-0.318,37.42,94.5,40.583241,-3.549264,615.9,3,5,119.9,2.461
38.12,1,-0.009,-0.013,0.01,-0.027,-0.02,0.012,-1.604,-0.027,-0.318,37.42,94.5,40.583241,-3.549264,615.9,3,5,119.9,2.461
38.23,1,0.001,-0.001,0.003,-0.0,-0.011,0.011,-1.601,-0.027,-0.318,37.42,94.5,40.583241,-3.549264,615.9,3,5,119.9,2.461
38.32,1,-0.044,-0.027,0.024,-0.021,-0.014,0.005,-1.603,-0.028,-0.317,37.42,94.5,40.583241,-3.549264,615.9,3,5,119.9,2.461
38.42,1,-0.054,0.001,-0.003,-0.045,-0.015,0.014,-1.605,-0.028,-0.318,37.42,94.5,40.583241,-3.549264,615.9,3,5,119.9,2.461
38.52,1,-0.003,-0.009,0.012,-0.029,-0.003,0.01,-1.605,-0.029,-0.318,37.42,94.5,40.583241,-3.549264,615.9,3,5,119.9,2.461
38.62,1,0.009,0.011,-0.014,-0.004,0.003,-0.002,-1.604,-0.029,-0.318,38.44,95.3,40.583118,-3.548996,617.4,3,5,121.6,2.812
38.72,1,-0.008,-0.025,-0.024,-0.001,-0.007,-0.018,-1.604,-0.029,-0.318,38.44,95.3,40.583118,-3.548996,617.4,3,5,121.6,2.812
38.82,1,-0.019,-0.014,-0.026,-0.016,-0.017,-0.02,-1.604,-0.029,-0.318,38.44,95.3,40.583118,-3.548996,617.4,3,5,121.6,2.812
38.92,1,0.008,-0.023,-0.031,-0.006,-0.018,-0.024,-1.604,-0.028,-0.318,38.44,95.3,40.583118,-3.548996,617.4,3,5,121.6,2.812
39.03,1,-0.031,-0.005,-0.012,-0.012,-0.013,-0.021,-1.605,-0.031,-0.318,38.44,95.3,40.583118,-3.548996,617.4,3,5,121.6,2.812
39.12,1,-0.038,-0.01,-0.018,-0.025,-0.012,-0.022,-1.604,-0.034,-0.318,38.44,95.3,40.583118,-3.548996,617.4,3,5,121.6,2.812
39.22,1,-0.03,-0.035,-0.016,-0.035,-0.018,-0.017,-1.603,-0.03,-0.318,38.44,95.3,40.583118,-3.548996,617.4,3,5,121.6,2.812
39.32,1,0.022,-0.026,-0.015,-0.004,-0.023,-0.018,-1.604,-0.031,-0.318,38.44,95.3,40.583118,-3.548996,617.4,3,5,121.6,2.812
39.42,1,-0.018,0.012,-0.017,-0.001,-0.013,-0.011,-1.603,-0.034,-0.319,38.44,95.3,40.583118,-3.548996,617.4,3,5,121.6,2.812
39.52,1,0.002,0.031,-0.035,-0.003,0.008,-0.028,-1.603,-0.037,-0.32,38.44,95.3,40.583118,-3.548996,617.4,3,5,121.6,2.812
39.62,1,-0.01,0.051,-0.022,-0.006,0.033,-0.022,-1.603,-0.038,-0.321,39.47,96.9,40.582985,-3.548724,616.3,3,5,123.0,3.164
39.72,1,0.049,-0.003,-0.015,0.016,0.023,-0.016,-1.602,-0.037,-0.323,39.47,96.9,40.582985,-3.548724,616.3,3,5,123.0,3.164
39.82,1,0.047,0.057,-0.04,0.026,0.026,-0.032,-1.603,-0.036,-0.324,39.47,96.9,40.582985,-3.548724,616.3,3,5,123.0,3.164
39.93,1,-0.035,0.022,-0.018,0.01,0.035,-0.025,-1.603,-0.042,-0.325,39.47,96.9,40.582985,-3.548724,616.3,3,5,123.0,3.164
40.02,1,-0.047,0.038,-0.035,-0.015,0.04,-0.033,-1.603,-0.044,-0.326,39.47,96.9,40.582985,-3.548724,616.3,3,5,123.0,3.164
40.13,1,-0.032,0.012,-0.011,-0.04,0.023,-0.022,-1.604,-0.046,-0.327,39.47,96.9,40.582985,-3.548724,616.3,3,5,123.0,3.164
40.23,1,0.009,0.02,0.017,-0.015,0.018,-0.007,-1.603,-0.049,-0.328,39.47,96.9,40.582985,-3.548724,616.3,3,5,123.0,3.164
40.32,1,0.023,-0.01,0.009,0.007,0.007,0.009,-1.606,-0.051,-0.328,39.47,96.9,40.582985,-3.548724,616.3,3,5,123.0,3.164
40.42,1,0.016,0.007,0.001,0.012,0.003,0.007,-1.606,-0.051,-0.329,39.47,96.9,40.582985,-3.548724,616.3,3,5,123.0,3.164
40.52,1,-0.063,0.017,-0.003,-0.021,0.01,0.004,-1.609,-0.052,-0.33,39.47,96.9,40.582985,-3.548724,616.3,3,5,123.0,3.164
40.62,1,-0.067,-0.004,0.054,-0.046,0.01,0.02,-1.612,-0.056,-0.331,40.41,97.7,40.582844,-3.548458,617.0,3,5,124.5,2.812
40.72,1,-0.049,-0.017,0.007,-0.053,-0.008,0.022,-1.611,-0.055,-0.331,40.41,97.7,40.582844,-3.548458,617.0,3,5,124.5,2.812
40.82,1,0.034,0.003,0.031,-0.015,-0.005,0.016,-1.613,-0.055,-0.333,40.41,97.7,40.582844,-3.548458,617.0,3,5,124.5,2.812
40.92,1,-0.001,0.018,0.025,0.004,0.005,0.031,-1.619,-0.056,-0.334,40.41,97.7,40.582844,-3.548458,617.0,3,5,124.5,2.812
41.02,1,-0.084,0.019,0.001,-0.036,0.018,0.014,-1.62,-0.056,-0.336,40.41,97.7,40.582844,-3.548458,617.0,3,5,124.5,2.812
41.12,1,-0.025,-0.001,0.002,-0.045,0.006,0.01,-1.621,-0.056,-0.337,40.41,97.7,40.582844,-3.548458,617.0,3,5,124.5,2.812
41.22,1,-0.035,0.013,-0.026,-0.029,0.011,-0.013,-1.621,-0.054,-0.338,40.41,97.7,40.582844,-3.548458,617.0,3,5,124.5,2.812
41.33,1,-0.028,-0.001,0.01,-0.035,0.004,-0.001,-1.622,-0.057,-0.338,40.41,97.7,40.582844,-3.548458,617.0,3,5,124.5,2.812
41.42,1,0.004,-0.005,-0.03,-0.015,-0.0,-0.013,-1.623,-0.056,-0.339,40.41,97.7,40.582844,-3.548458,617.0,3,5,124.5,2.812
41.52,1,0.014,0.002,-0.008,-0.001,-0.001,-0.015,-1.621,-0.056,-0.339,40.41,97.7,40.582844,-3.548458,617.0,3,5,124.5,2.812
41.62,1,-0.033,-0.001,-0.003,-0.008,0.002,-0.01,-1.623,-0.056,-0.34,41.44,98.9,40.582695,-3.5482,617.8,3,5,126.6,3.516
41.72,1,-0.023,0.006,0.012,-0.018,0.001,0.002,-1.623,-0.053,-0.34,41.44,98.9,40.582695,-3.5482,617.8,3,5,126.6,3.516
41.83,1,-0.014,0.019,-0.016,-0.018,0.011,-0.001,-1.624,-0.052,-0.341,41.44,98.9,40.582695,-3.5482,617.8,3,5,126.6,3.516
41.93,1,-0.029,0.019,0.012,-0.022,0.016,-0.002,-1.623,-0.052,-0.342,41.44,98.9,40.582695,-3.5482,617.8,3,5,126.6,3.516
42.03,1,-0.034,0.021,-0.007,-0.024,0.017,0.003,-1.62,-0.054,-0.342,41.44,98.9,40.582695,-3.5482,617.8,3,5,126.6,3.516
42.13,1,-0.037,0.019,-0.013,-0.038,0.016,-0.004,-1.623,-0.055,-0.343,41.44,98.9,40.582695,-3.5482,617.8,3,5,126.6,3.516
42.23,1,0.005,-0.003,0.016,-0.019,0.01,-0.001,-1.622,-0.054,-0.343,41.44,98.9,40.582695,-3.5482,617.8,3,5,126.6,3.516
42.33,1,-0.016,-0.022,0.009,-0.015,-0.004,0.006,-1.621,-0.052,-0.343,41.44,98.9,40.582695,-3.5482,617.8,3,5,126.6,3.516
42.44,1,-0.017,-0.012,-0.009,-0.015,-0.011,0.004,-1.62,-0.054,-0.343,41.44,98.9,40.582695,-3.5482,617.8,3,5,126.6,3.516
42.53,1,-0.008,-0.009,0.004,-0.012,-0.01,-0.004,-1.622,-0.056,-0.344,41.44,98.9,40.582695,-3.5482,617.8,3,5,126.6,3.516
42.63,1,-0.014,0.006,-0.018,-0.011,-0.005,-0.007,-1.621,-0.057,-0.344,42.42,100.8,40.582539,-3.54794,618.6,3,5,128.3,3.867
42.73,1,-0.076,-0.008,0.002,-0.036,-0.005,-0.007,-1.623,-0.058,-0.345,42.42,100.8,40.582539,-3.54794,618.6,3,5,128.3,3.867
42.83,1,-0.06,0.015,-0.004,-0.058,0.005,-0.003,-1.624,-0.057,-0.346,42.42,100.8,40.582539,-3.54794,618.6,3,5,128.3,3.867
42.93,1,-0.012,0.004,-0.018,-0.043,0.005,-0.005,-1.624,-0.057,-0.346,42.42,100.8,40.582539,-3.54794,618.6,3,5,128.3,3.867
43.03,1,0.031,0.018,-0.021,0.004,0.009,-0.016,-1.623,-0.06,-0.348,42.42,100.8,40.582539,-3.54794,618.6,3,5,128.3,3.867
43.13,1,-0.046,0.017,-0.03,-0.017,0.018,-0.021,-1.62,-0.061,-0.348,42.42,100.8,40.582539,-3.54794,618.6,3,5,128.3,3.867
43.23,1,-0.029,0.012,-0.015,-0.028,0.01,-0.024,-1.615,-0.062,-0.349,42.42,100.8,40.582539,-3.54794,618.6,3,5,128.3,3.867
43.34,1,-0.034,0.013,0.006,-0.03,0.015,-0.01,-1.613,-0.065,-0.35,42.42,100.8,40.582539,-3.54794,618.6,3,5,128.3,3.867
43.43,1,-0.009,0.04,0.012,-0.02,0.024,0.002,-1.612,-0.066,-0.351,42.42,100.8,40.582539,-3.54794,618.6,3,5,128.3,3.867
43.53,1,-0.014,0.02,-0.013,-0.017,0.025,-0.004,-1.612,-0.068,-0.352,42.42,100.8,40.582539,-3.54794,618.6,3,5,128.3,3.867
43.63,1,0.028,0.022,-0.012,0.002,0.026,-0.007,-1.611,-0.068,-0.353,43.41,102.8,40.582375,-3.547681,619.0,3,5,129.7,3.164
43.73,1,-0.009,0.001,0.002,0.005,0.012,-0.005,-1.606,-0.071,-0.354,43.41,102.8,40.582375,-3.547681,619.0,3,5,129.7,3.164
43.84,1,-0.04,-0.012,-0.009,-0.017,0.001,-0.009,-1.605,-0.07,-0.355,43.41,102.8,40.582375,-3.547681,619.0,3,5,129.7,3.164
43.93,1,-0.009,0.002,0.003,-0.019,-0.005,-0.003,-1.602,-0.071,-0.355,43.41,102.8,40.582375,-3.547681,619.0,3,5,129.7,3.164
44.03,1,-0.036,0.008,0.034,-0.032,0.008,0.022,-1.601,-0.071,-0.356,43.41,102.8,40.582375,-3.547681,619.0,3,5,129.7,3.164
44.13,1,-0.031,-0.002,-0.008,-0.028,-0.003,0.009,-1.601,-0.071,-0.357,43.41,102.8,40.582375,-3.547681,619.0,3,5,129.7,3.164
44.23,1,-0.038,0.017,0.025,-0.033,0.012,0.009,-1.6,-0.072,-0.358,43.41,102.8,40.582375,-3.547681,619.0,3,5,129.7,3.164
44.33,1,0.007,0.011,-0.005,-0.018,0.014,0.009,-1.601,-0.075,-0.359,43.41,102.8,40.582375,-3.547681,619.0,3,5,129.7,3.164
44.43,1,0.006,0.019,-0.007,0.003,0.012,-0.003,-1.602,-0.078,-0.361,43.41,102.8,40.582375,-3.547681,619.0,3,5,129.7,3.164
44.53,1,0.001,-0.009,0.035,-0.003,0.007,0.014,-1.605,-0.08,-0.362,43.41,102.8,40.582375,-3.547681,619.0,3,5,129.7,3.164
44.63,1,0.023,0.027,0.001,0.007,0.009,0.007,-1.603,-0.084,-0.363,44.44,104.2,40.582203,-3.547428,620.2,3,5,131.8,3.516
44.73,1,0.025,0.019,0.012,0.015,0.02,0.015,-1.602,-0.089,-0.364,44.44,104.2,40.582203,-3.547428,620.2,3,5,131.8,3.516
44.83,1,0.004,0.006,0.003,0.015,0.014,0.007,-1.6,-0.089,-0.364,44.44,104.2,40.582203,-3.547428,620.2,3,5,131.8,3.516
44.94,1,-0.045,-0.016,-0.027,-0.002,0.0,-0.007,-1.599,-0.085,-0.364,44.44,104.2,40.582203,-3.547428,620.2,3,5,131.8,3.516
45.03,1,-0.01,-0.013,-0.017,-0.019,-0.012,-0.015,-1.6,-0.083,-0.364,44.44,104.2,40.582203,-3.547428,620.2,3,5,131.8,3.516
45.13,1,0.008,0.007,-0.049,-0.007,-0.004,-0.025,-1.597,-0.084,-0.364,44.44,104.2,40.582203,-3.547428,620.2,3,5,131.8,3.516
45.23,1,-0.016,-0.015,-0.097,-0.007,-0.007,-0.061,-1.591,-0.083,-0.363,44.44,104.2,40.582203,-3.547428,620.2,3,5,131.8,3.516
45.34,1,0.001,-0.027,-0.064,-0.006,-0.015,-0.078,-1.588,-0.083,-0.362,44.44,104.2,40.582203,-3.547428,620.2,3,5,131.8,3.516
45.43,1,-0.035,-0.031,-0.092,-0.014,-0.026,-0.078,-1.587,-0.084,-0.362,44.44,104.2,40.582203,-3.547428,620.2,3,5,131.8,3.516
45.54,1,-0.015,-0.06,-0.084,-0.025,-0.041,-0.082,-1.584,-0.082,-0.361,44.44,104.2,40.582203,-3.547428,620.2,3,5,131.8,3.516
45.64,1,-0.029,-0.023,-0.048,-0.026,-0.038,-0.07,-1.572,-0.078,-0.36,45.48,105.6,40.58202,-3.547179,620.2,3,5,133.6,3.867
45.74,1,0.037,-0.013,-0.048,0.003,-0.025,-0.05,-1.567,-0.078,-0.359,45.48,105.6,40.58202,-3.547179,620.2,3,5,133.6,3.867
45.84,1,-0.029,-0.012,-0.059,0.001,-0.017,-0.06,-1.56,-0.077,-0.357,45.48,105.6,40.58202,-3.547179,620.2,3,5,133.6,3.867
45.94,1,-0.062,-0.029,-0.065,-0.042,-0.018,-0.057,-1.557,-0.074,-0.355,45.48,105.6,40.58202,-3.547179,620.2,3,5,133.6,3.867
46.04,1,0.008,-0.08,-0.001,-0.017,-0.046,-0.046,-1.556,-0.071,-0.354,45.48,105.6,40.58202,-3.547179,620.2,3,5,133.6,3.867
46.14,1,-0.037,-0.049,-0.033,-0.016,-0.055,-0.025,-1.563,-0.067,-0.352,45.48,105.6,40.58202,-3.547179,620.2,3,5,133.6,3.867
46.25,1,-0.023,-0.048,-0.026,-0.031,-0.052,-0.029,-1.565,-0.065,-0.35,45.48,105.6,40.58202,-3.547179,620.2,3,5,133.6,3.867
46.34,1,0.025,-0.052,0.006,-0.004,-0.049,-0.009,-1.562,-0.06,-0.348,45.48,105.6,40.58202,-3.547179,620.2,3,5,133.6,3.867
46.44,1,-0.01,-0.068,-0.031,0.009,-0.061,-0.013,-1.563,-0.054,-0.345,45.48,105.6,40.58202,-3.547179,620.2,3,5,133.6,3.867
46.54,1,-0.016,-0.054,-0.036,-0.011,-0.055,-0.034,-1.559,-0.048,-0.342,45.48,105.6,40.58202,-3.547179,620.2,3,5,133.6,3.867
46.64,1,0.004,-0.067,0.01,-0.011,-0.062,-0.016,-1.556,-0.042,-0.339,46.43,105.9,40.581829,-3.546937,620.1,3,5,135.4,3.516
46.74,1,0.001,-0.06,0.006,0.003,-0.065,0.006,-1.554,-0.037,-0.336,46.43,105.9,40.581829,-3.546937,620.1,3,5,135.4,3.516
46.84,1,-0.021,-0.059,-0.045,-0.01,-0.055,-0.013,-1.553,-0.033,-0.333,46.43,105.9,40.581829,-3.546937,620.1,3,5,135.4,3.516
46.95,1,-0.013,-0.067,0.001,-0.013,-0.064,-0.02,-1.553,-0.027,-0.329,46.43,105.9,40.581829,-3.546937,620.1,3,5,135.4,3.516
47.04,1,0.01,-0.071,0.007,-0.005,-0.069,-0.005,-1.552,-0.023,-0.325,46.43,105.9,40.581829,-3.546937,620.1,3,5,135.4,3.516
47.14,1,0.028,-0.095,-0.024,0.008,-0.081,-0.008,-1.551,-0.022,-0.321,46.43,105.9,40.581829,-3.546937,620.1,3,5,135.4,3.516
47.24,1,-0.015,-0.076,-0.02,0.01,-0.079,-0.019,-1.55,-0.019,-0.316,46.43,105.9,40.581829,-3.546937,620.1,3,5,135.4,3.516
47.34,1,-0.022,-0.064,-0.017,-0.014,-0.074,-0.015,-1.55,-0.011,-0.311,46.43,105.9,40.581829,-3.546937,620.1,3,5,135.4,3.516
47.44,1,-0.039,-0.072,-0.051,-0.023,-0.07,-0.035,-1.552,-0.004,-0.306,46.43,105.9,40.581829,-3.546937,620.1,3,5,135.4,3.516
47.54,1,-0.012,-0.069,-0.019,-0.024,-0.071,-0.03,-1.557,0.002,-0.301,46.43,105.9,40.581829,-3.546937,620.1,3,5,135.4,3.516
47.64,1,0.042,-0.079,0.023,0.012,-0.073,-0.003,-1.554,0.006,-0.296,47.47,104.7,40.581638,-3.546698,620.3,3,5,136.1,2.461
47.74,1,0.01,-0.049,-0.014,0.013,-0.065,-0.002,-1.551,0.01,-0.292,47.47,104.7,40.581638,-3.546698,620.3,3,5,136.1,2.461
47.84,1,-0.032,-0.026,-0.018,-0.004,-0.049,-0.009,-1.549,0.014,-0.287,47.47,104.7,40.581638,-3.546698,620.3,3,5,136.1,2.461
47.94,1,-0.009,-0.027,-0.004,-0.017,-0.034,-0.014,-1.547,0.018,-0.283,47.47,104.7,40.581638,-3.546698,620.3,3,5,136.1,2.461
48.04,1,0.011,-0.021,-0.008,0.0,-0.025,-0.006,-1.547,0.022,-0.279,47.47,104.7,40.581638,-3.546698,620.3,3,5,136.1,2.461
48.14,1,0.004,-0.01,-0.032,0.004,-0.022,-0.021,-1.544,0.025,-0.274,47.47,104.7,40.581638,-3.546698,620.3,3,5,136.1,2.461
48.24,1,0.028,-0.014,0.005,0.012,-0.011,-0.013,-1.542,0.028,-0.271,47.47,104.7,40.581638,-3.546698,620.3,3,5,136.1,2.461
48.34,1,-0.014,-0.011,0.001,0.008,-0.014,0.0,-1.536,0.027,-0.267,47.47,104.7,40.581638,-3.546698,620.3,3,5,136.1,2.461
48.44,1,-0.025,-0.001,0.003,-0.007,-0.008,0.0,-1.535,0.026,-0.263,47.47,104.7,40.581638,-3.546698,620.3,3,5,136.1,2.461
48.55,1,-0.008,-0.013,0.012,-0.014,-0.004,0.006,-1.538,0.026,-0.26,47.47,104.7,40.581638,-3.546698,620.3,3,5,136.1,2.461
48.64,1,-0.012,-0.024,-0.005,-0.017,-0.023,0.0,-1.536,0.03,-0.257,48.43,104.0,40.581451,-3.546462,620.5,3,5,135.4,0.703
48.74,1,-0.009,-0.031,0.038,-0.01,-0.017,0.014,-1.535,0.025,-0.254,48.43,104.0,40.581451,-3.546462,620.5,3,5,135.4,0.703
48.85,1,-0.02,0.003,0.006,-0.014,-0.015,0.017,-1.535,0.023,-0.251,48.43,104.0,40.581451,-3.546462,620.5,3,5,135.4,0.703
48.94,1,0.002,0.027,-0.021,-0.014,0.002,0.004,-1.535,0.022,-0.248,48.43,104.0,40.581451,-3.546462,620.5,3,5,135.4,0.703
49.05,1,0.011,0.014,-0.014,0.005,0.018,-0.012,-1.536,0.018,-0.245,48.43,104.0,40.581451,-3.546462,620.5,3,5,135.4,0.703
49.15,1,-0.003,0.002,-0.021,0.0,0.01,-0.012,-1.534,0.016,-0.242,48.43,104.0,40.581451,-3.546462,620.5,3,5,135.4,0.703
49.26,1,-0.007,0.006,0.021,-0.002,0.008,-0.003,-1.531,0.014,-0.24,48.43,104.0,40.581451,-3.546462,620.5,3,5,135.4,0.703
49.34,1,0.007,0.001,0.009,-0.001,0.004,0.006,-1.528,0.011,-0.238,48.43,104.0,40.581451,-3.546462,620.5,3,5,135.4,0.703
49.45,1,-0.002,-0.01,0.005,0.005,0.001,0.009,-1.529,0.009,-0.235,48.43,104.0,40.581451,-3.546462,620.5,3,5,135.4,0.703
49.55,1,-0.019,0.001,-0.013,-0.011,-0.007,0.0,-1.529,0.008,-0.232,48.43,104.0,40.581451,-3.546462,620.5,3,5,135.4,0.703
49.65,1,-0.033,0.009,-0.004,-0.023,0.004,-0.008,-1.53,0.007,-0.23,49.42,103.1,40.581268,-3.546221,621.1,3,5,134.6,1.406
49.75,1,-0.074,-0.028,-0.013,-0.053,-0.006,-0.01,-1.529,0.006,-0.227,49.42,103.1,40.581268,-3.546221,621.1,3,5,134.6,1.406
49.85,1,-0.031,-0.043,0.009,-0.043,-0.026,-0.002,-1.529,0.009,-0.223,49.42,103.1,40.581268,-3.546221,621.1,3,5,134.6,1.406
49.95,1,0.01,-0.006,0.014,-0.019,-0.024,0.006,-1.531,0.011,-0.22,49.42,103.1,40.581268,-3.546221,621.1,3,5,134.6,1.406
50.05,1,0.014,0.027,-0.016,0.005,0.003,0.001,-1.528,0.01,-0.217,49.42,103.1,40.581268,-3.546221,621.1,3,5,134.6,1.406
50.15,1,0.007,-0.025,0.003,0.011,-0.003,-0.003,-1.526,0.013,-0.214,49.42,103.1,40.581268,-3.546221,621.1,3,5,134.6,1.406
50.25,1,-0.029,-0.038,0.008,-0.012,-0.026,0.002,-1.53,0.017,-0.211,49.42,103.1,40.581268,-3.546221,621.1,3,5,134.6,1.406
50.35,1,-0.044,-0.006,0.015,-0.021,-0.019,0.014,-1.533,0.017,-0.207,49.42,103.1,40.581268,-3.546221,621.1,3,5,134.6,1.406
50.45,1,-0.05,-0.027,0.014,-0.044,-0.015,0.007,-1.533,0.017,-0.205,49.42,103.1,40.581268,-3.546221,621.1,3,5,134.6,1.406
50.55,1,-0.028,0.0,0.008,-0.035,-0.011,0.011,-1.533,0.017,-0.201,49.42,103.1,40.581268,-3.546221,621.1,3,5,134.6,1.406
50.65,1,-0.025,-0.014,-0.015,-0.032,-0.013,0.0,-1.532,0.02,-0.198,50.43,101.7,40.581089,-3.545988,622.2,3,5,134.3,1.055
50.75,1,0.012,-0.004,-0.009,-0.016,-0.012,-0.009,-1.531,0.021,-0.196,50.43,101.7,40.581089,-3.545988,622.2,3,5,134.3,1.055
50.85,1,-0.03,0.01,-0.007,-0.018,0.0,-0.009,-1.531,0.019,-0.193,50.43,101.7,40.581089,-3.545988,622.2,3,5,134.3,1.055
50.95,1,-0.056,0.012,-0.008,-0.033,0.01,-0.005,-1.531,0.018,-0.19,50.43,101.7,40.581089,-3.545988,622.2,3,5,134.3,1.055
51.05,1,-0.004,0.026,-0.006,-0.028,0.018,-0.004,-1.532,0.017,-0.188,50.43,101.7,40.581089,-3.545988,622.2,3,5,134.3,1.055
51.15,1,0.014,0.021,0.011,-0.002,0.019,-0.005,-1.533,0.015,-0.185,50.43,101.7,40.581089,-3.545988,622.2,3,5,134.3,1.055
51.25,1,0.027,0.0,0.018,0.015,0.01,0.013,-1.532,0.014,-0.182,50.43,101.7,40.581089,-3.545988,622.2,3,5,134.3,1.055
51.35,1,-0.032,0.003,0.01,-0.005,0.002,0.013,-1.531,0.016,-0.18,50.43,101.7,40.581089,-3.545988,622.2,3,5,134.3,1.055
51.46,1,-0.028,0.011,-0.003,-0.017,0.007,0.005,-1.531,0.018,-0.177,50.43,101.7,40.581089,-3.545988,622.2,3,5,134.3,1.055
51.55,1,-0.057,0.032,-0.023,-0.037,0.02,-0.012,-1.532,0.016,-0.175,50.43,101.7,40.581089,-3.545988,622.2,3,5,134.3,1.055
51.65,1,-0.064,0.053,-0.018,-0.054,0.033,-0.013,-1.536,0.011,-0.173,51.44,100.3,40.580914,-3.545759,621.7,3,5,133.6,1.055
51.76,1,-0.036,0.009,0.014,-0.048,0.032,-0.001,-1.538,0.007,-0.17,51.44,100.3,40.580914,-3.545759,621.7,3,5,133.6,1.055
51.85,1,-0.013,-0.021,-0.007,-0.031,0.011,-0.003,-1.538,0.007,-0.167,51.44,100.3,40.580914,-3.545759,621.7,3,5,133.6,1.055
51.95,1,0.023,-0.01,0.009,-0.005,-0.011,0.001,-1.538,0.007,-0.165,51.44,100.3,40.580914,-3.545759,621.7,3,5,133.6,1.055
52.06,1,0.008,-0.02,-0.006,0.011,-0.012,0.0,-1.538,0.01,-0.162,51.44,100.3,40.580914,-3.545759,621.7,3,5,133.6,1.055
52.15,1,-0.023,-0.036,-0.005,-0.005,-0.032,-0.003,-1.537,0.008,-0.159,51.44,100.3,40.580914,-3.545759,621.7,3,5,133.6,1.055
52.25,1,0.016,-0.021,0.009,-0.004,-0.024,0.0,-1.535,0.006,-0.156,51.44,100.3,40.580914,-3.545759,621.7,3,5,133.6,1.055
52.35,1,-0.002,-0.026,-0.011,-0.001,-0.028,0.001,-1.534,0.008,-0.153,51.44,100.3,40.580914,-3.545759,621.7,3,5,133.6,1.055
52.45,1,-0.037,-0.029,-0.008,-0.009,-0.016,-0.008,-1.532,0.008,-0.15,51.44,100.3,40.580914,-3.545759,621.7,3,5,133.6,1.055
52.55,1,-0.057,-0.049,0.007,-0.035,-0.035,-0.003,-1.532,0.006,-0.146,51.44,100.3,40.580914,-3.545759,621.7,3,5,133.6,1.055
52.65,1,-0.01,-0.032,0.002,-0.032,-0.04,0.007,-1.531,0.006,-0.144,52.41,99.3,40.58075,-3.545514,621.7,3,5,133.6,0.703
52.75,1,-0.015,-0.029,0.008,-0.017,-0.028,0.0,-1.531,0.006,-0.14,52.41,99.3,40.58075,-3.545514,621.7,3,5,133.6,0.703
52.85,1,-0.028,-0.048,0.012,-0.025,-0.039,0.008,-1.532,0.009,-0.138,52.41,99.3,40.58075,-3.545514,621.7,3,5,133.6,0.703
52.95,1,-0.037,-0.021,-0.009,-0.025,-0.033,0.006,-1.532,0.01,-0.135,52.41,99.3,40.58075,-3.545514,621.7,3,5,133.6,0.703
53.05,1,-0.027,-0.001,0.002,-0.033,-0.023,-0.005,-1.532,0.009,-0.132,52.41,99.3,40.58075,-3.545514,621.7,3,5,133.6,0.703
53.16,1,0.037,-0.031,0.002,-0.006,-0.02,0.001,-1.533,0.006,-0.13,52.41,99.3,40.58075,-3.545514,621.7,3,5,133.6,0.703
53.26,1,-0.012,-0.044,0.014,0.005,-0.03,0.01,-1.533,0.007,-0.128,52.41,99.3,40.58075,-3.545514,621.7,3,5,133.6,0.703
53.36,1,0.011,0.012,0.009,0.004,-0.02,0.005,-1.534,0.005,-0.126,52.41,99.3,40.58075,-3.545514,621.7,3,5,133.6,0.703
53.46,1,-0.014,0.025,-0.008,-0.005,0.007,0.003,-1.533,0.004,-0.124,52.41,99.3,40.58075,-3.545514,621.7,3,5,133.6,0.703
53.56,1,0.001,0.015,0.012,0.002,0.016,0.002,-1.532,0.003,-0.123,52.41,99.3,40.58075,-3.545514,621.7,3,5,133.6,0.703
53.66,1,-0.007,0.006,0.002,-0.003,0.01,0.008,-1.533,-0.005,-0.121,53.42,98.4,40.580593,-3.545278,622.1,3,5,132.5,1.055
53.76,1,-0.029,-0.032,0.019,-0.022,-0.009,0.011,-1.533,-0.008,-0.12,53.42,98.4,40.580593,-3.545278,622.1,3,5,132.5,1.055
53.86,1,0.027,0.031,0.003,-0.0,0.002,0.009,-1.533,-0.008,-0.118,53.42,98.4,40.580593,-3.545278,622.1,3,5,132.5,1.055
53.96,1,0.012,-0.006,0.008,0.014,0.01,0.009,-1.532,-0.008,-0.116,53.42,98.4,40.580593,-3.545278,622.1,3,5,132.5,1.055
54.06,1,0.027,0.015,0.006,0.015,0.009,0.004,-1.532,-0.008,-0.114,53.42,98.4,40.580593,-3.545278,622.1,3,5,132.5,1.055
54.16,1,0.012,-0.058,0.023,0.021,-0.025,0.018,-1.532,-0.007,-0.111,53.42,98.4,40.580593,-3.545278,622.1,3,5,132.5,1.055
54.26,1,-0.021,-0.005,-0.009,-0.001,-0.021,0.002,-1.532,-0.008,-0.109,53.42,98.4,40.580593,-3.545278,622.1,3,5,132.5,1.055
54.36,1,-0.007,0.013,0.02,-0.011,-0.006,0.008,-1.532,-0.009,-0.107,53.42,98.4,40.580593,-3.545278,622.1,3,5,132.5,1.055
54.46,1,-0.001,0.019,0.028,-0.004,0.011,0.022,-1.532,-0.008,-0.105,53.42,98.4,40.580593,-3.545278,622.1,3,5,132.5,1.055
54.56,1,-0.051,-0.026,0.005,-0.019,0.001,0.017,-1.531,-0.007,-0.102,53.42,98.4,40.580593,-3.545278,622.1,3,5,132.5,1.055
54.66,1,0.028,-0.048,0.029,-0.009,-0.025,0.018,-1.53,-0.007,-0.101,54.42,97.5,40.580425,-3.545053,623.4,3,5,132.9,0.703
54.76,1,0.033,-0.021,0.017,0.013,-0.037,0.02,-1.532,-0.006,-0.1,54.42,97.5,40.580425,-3.545053,623.4,3,5,132.9,0.703
54.86,1,-0.037,0.01,0.01,-0.003,-0.012,0.015,-1.528,-0.009,-0.098,54.42,97.5,40.580425,-3.545053,623.4,3,5,132.9,0.703
54.96,1,-0.035,0.012,0.035,-0.028,0.008,0.02,-1.522,-0.009,-0.097,54.42,97.5,40.580425,-3.545053,623.4,3,5,132.9,0.703
55.06,1,-0.036,-0.01,0.011,-0.025,0.002,0.023,-1.523,-0.006,-0.096,54.42,97.5,40.580425,-3.545053,623.4,3,5,132.9,0.703
55.16,1,-0.022,0.043,0.003,-0.031,0.013,0.012,-1.524,-0.004,-0.095,54.42,97.5,40.580425,-3.545053,623.4,3,5,132.9,0.703
55.26,1,-0.011,0.041,-0.003,-0.016,0.034,0.005,-1.521,-0.01,-0.095,54.42,97.5,40.580425,-3.545053,623.4,3,5,132.9,0.703
55.36,1,-0.019,0.065,0.028,-0.018,0.046,0.007,-1.521,-0.011,-0.095,54.42,97.5,40.580425,-3.545053,623.4,3,5,132.9,0.703
55.46,1,-0.051,0.025,0.026,-0.031,0.042,0.023,-1.521,-0.012,-0.096,54.42,97.5,40.580425,-3.545053,623.4,3,5,132.9,0.703
55.56,1,-0.007,0.022,0.018,-0.028,0.032,0.023,-1.517,-0.018,-0.096,54.42,97.5,40.580425,-3.545053,623.4,3,5,132.9,0.703
55.66,1,-0.023,0.02,0.027,-0.021,0.021,0.02,-1.515,-0.022,-0.096,55.41,96.6,40.580265,-3.544813,623.5,3,5,131.8,1.055
55.76,1,-0.02,0.034,0.05,-0.023,0.027,0.033,-1.515,-0.023,-0.096,55.41,96.6,40.580265,-3.544813,623.5,3,5,131.8,1.055
55.86,1,0.031,0.003,0.042,-0.0,0.02,0.043,-1.515,-0.023,-0.096,55.41,96.6,40.580265,-3.544813,623.5,3,5,131.8,1.055
55.96,1,0.004,0.016,0.01,0.006,0.011,0.032,-1.514,-0.022,-0.096,55.41,96.6,40.580265,-3.544813,623.5,3,5,131.8,1.055
56.07,1,-0.003,-0.002,0.034,0.005,0.007,0.024,-1.513,-0.021,-0.095,55.41,96.6,40.580265,-3.544813,623.5,3,5,131.8,1.055
56.16,1,0.04,-0.008,0.052,0.018,0.009,0.037,-1.513,-0.02,-0.094,55.41,96.6,40.580265,-3.544813,623.5,3,5,131.8,1.055
56.26,1,-0.076,0.005,0.003,-0.011,0.002,0.025,-1.518,-0.018,-0.092,55.41,96.6,40.580265,-3.544813,623.5,3,5,131.8,1.055
56.36,1,-0.036,-0.013,0.015,-0.037,-0.002,0.018,-1.526,-0.021,-0.091,55.41,96.6,40.580265,-3.544813,623.5,3,5,131.8,1.055
56.56,1,0.005,-0.033,0.026,-0.022,-0.027,0.019,-1.528,-0.018,-0.087,55.41,96.6,40.580265,-3.544813,623.5,3,5,131.8,1.055
56.66,1,-0.002,-0.054,0.019,-0.007,-0.045,0.021,-1.526,-0.011,-0.085,55.41,96.6,40.580265,-3.544813,623.5,3,5,131.8,1.055
56.77,1,0.02,-0.067,0.016,0.008,-0.048,0.018,-1.525,-0.004,-0.083,56.43,95.7,40.580101,-3.544575,624.7,3,5,132.5,0.703
56.87,1,-0.015,-0.038,0.02,-0.0,-0.051,0.015,-1.522,-0.001,-0.08,56.43,95.7,40.580101,-3.544575,624.7,3,5,132.5,0.703
56.97,1,-0.008,0.0,0.043,-0.001,-0.025,0.031,-1.527,-0.002,-0.078,56.43,95.7,40.580101,-3.544575,624.7,3,5,132.5,0.703
57.07,1,-0.023,-0.043,0.019,-0.016,-0.029,0.029,-1.532,0.005,-0.075,56.43,95.7,40.580101,-3.544575,624.7,3,5,132.5,0.703
57.17,1,-0.004,-0.062,0.02,-0.016,-0.045,0.021,-1.534,0.014,-0.073,56.43,95.7,40.580101,-3.544575,624.7,3,5,132.5,0.703
57.27,1,-0.036,-0.028,0.024,-0.018,-0.041,0.026,-1.537,0.02,-0.07,56.43,95.7,40.580101,-3.544575,624.7,3,5,132.5,0.703
57.37,1,-0.022,-0.044,0.008,-0.023,-0.036,0.013,-1.542,0.025,-0.068,56.43,95.7,40.580101,-3.544575,624.7,3,5,132.5,0.703
57.47,1,-0.035,-0.051,0.008,-0.027,-0.04,0.011,-1.543,0.026,-0.064,56.43,95.7,40.580101,-3.544575,624.7,3,5,132.5,0.703
57.57,1,-0.004,-0.014,0.005,-0.021,-0.038,0.009,-1.54,0.027,-0.061,56.43,95.7,40.580101,-3.544575,624.7,3,5,132.5,0.703
57.67,1,-0.012,-0.048,0.013,-0.011,-0.037,0.008,-1.539,0.033,-0.058,56.43,95.7,40.580101,-3.544575,624.7,3,5,132.5,0.703
57.77,1,-0.056,-0.079,-0.008,-0.035,-0.06,0.003,-1.539,0.035,-0.054,57.42,94.7,40.579948,-3.54434,624.8,3,5,131.8,0.703
57.87,1,-0.026,-0.08,0.029,-0.036,-0.068,0.018,-1.54,0.035,-0.051,57.42,94.7,40.579948,-3.54434,624.8,3,5,131.8,0.703
57.98,1,-0.004,-0.065,0.034,-0.017,-0.07,0.024,-1.54,0.034,-0.047,57.42,94.7,40.579948,-3.54434,624.8,3,5,131.8,0.703
58.07,1,0.003,-0.005,0.019,-0.01,-0.042,0.021,-1.54,0.033,-0.044,57.42,94.7,40.579948,-3.54434,624.8,3,5,131.8,0.703
58.17,1,-0.007,-0.014,0.017,-0.001,-0.018,0.022,-1.538,0.035,-0.041,57.42,94.7,40.579948,-3.54434,624.8,3,5,131.8,0.703
58.28,1,-0.028,-0.012,0.018,-0.01,-0.017,0.014,-1.538,0.04,-0.038,57.42,94.7,40.579948,-3.54434,624.8,3,5,131.8,0.703
58.37,1,0.007,-0.002,0.012,-0.012,-0.008,0.012,-1.538,0.037,-0.036,57.42,94.7,40.579948,-3.54434,624.8,3,5,131.8,0.703
58.47,1,0.056,-0.008,0.047,0.016,-0.014,0.029,-1.543,0.036,-0.033,57.42,94.7,40.579948,-3.54434,624.8,3,5,131.8,0.703
58.57,1,0.033,-0.007,0.007,0.036,-0.005,0.028,-1.543,0.036,-0.031,57.42,94.7,40.579948,-3.54434,624.8,3,5,131.8,0.703
58.67,1,-0.009,0.01,0.003,0.02,-0.003,0.01,-1.542,0.036,-0.028,57.42,94.7,40.579948,-3.54434,624.8,3,5,131.8,0.703
58.77,1,-0.007,-0.03,-0.003,-0.001,-0.011,0.005,-1.543,0.037,-0.025,58.43,94.0,40.579792,-3.544096,625.3,3,5,130.4,2.109
58.87,1,-0.014,-0.013,-0.015,-0.004,-0.017,-0.002,-1.542,0.037,-0.023,58.43,94.0,40.579792,-3.544096,625.3,3,5,130.4,2.109
58.97,1,-0.028,-0.018,0.014,-0.016,-0.012,0.001,-1.541,0.038,-0.02,58.43,94.0,40.579792,-3.544096,625.3,3,5,130.4,2.109
59.07,1,-0.024,-0.011,-0.004,-0.023,-0.017,-0.001,-1.541,0.037,-0.018,58.43,94.0,40.579792,-3.544096,625.3,3,5,130.4,2.109
59.17,1,-0.024,-0.011,0.022,-0.022,-0.012,0.005,-1.542,0.035,-0.015,58.43,94.0,40.579792,-3.544096,625.3,3,5,130.4,2.109
59.27,1,-0.012,-0.013,0.031,-0.02,-0.013,0.025,-1.543,0.037,-0.012,58.43,94.0,40.579792,-3.544096,625.3,3,5,130.4,2.109
59.38,1,0.027,-0.0,0.013,-0.003,-0.008,0.021,-1.548,0.042,-0.009,58.43,94.0,40.579792,-3.544096,625.3,3,5,130.4,2.109
59.47,1,0.047,0.013,0.016,0.024,0.007,0.012,-1.547,0.044,-0.006,58.43,94.0,40.579792,-3.544096,625.3,3,5,130.4,2.109
59.57,1,0.001,-0.022,-0.025,0.02,-0.005,0.001,-1.549,0.05,-0.003,58.43,94.0,40.579792,-3.544096,625.3,3,5,130.4,2.109
59.67,1,-0.025,0.003,0.008,-0.0,-0.004,-0.001,-1.548,0.05,-0.0,58.43,94.0,40.579792,-3.544096,625.3,3,5,130.4,2.109
59.77,1,-0.008,0.013,-0.006,-0.006,-0.002,-0.004,-1.55,0.047,0.002,59.42,93.4,40.579647,-3.543869,625.5,3,5,129.0,2.812
59.88,1,-0.025,0.031,-0.009,-0.015,0.018,-0.003,-1.553,0.042,0.004,59.42,93.4,40.579647,-3.543869,625.5,3,5,129.0,2.812
59.97,1,-0.014,-0.002,0.001,-0.024,0.009,-0.006,-1.552,0.041,0.006,59.42,93.4,40.579647,-3.543869,625.5,3,5,129.0,2.812
60.07,1,-0.022,0.007,0.003,-0.014,0.011,0.004,-1.551,0.038,0.008,59.42,93.4,40.579647,-3.543869,625.5,3,5,129.0,2.812
60.18,1,0.002,0.002,-0.006,-0.012,0.007,-0.001,-1.548,0.038,0.01,59.42,93.4,40.579647,-3.543869,625.5,3,5,129.0,2.812
60.27,1,0.018,0.015,-0.005,0.003,0.005,-0.005,-1.548,0.039,0.011,59.42,93.4,40.579647,-3.543869,625.5,3,5,129.0,2.812
60.37,1,0.008,-0.021,0.021,0.004,-0.001,0.005,-1.549,0.034,0.013,59.42,93.4,40.579647,-3.543869,625.5,3,5,129.0,2.812
60.48,1,0.001,-0.013,-0.005,0.008,-0.012,0.004,-1.55,0.031,0.014,59.42,93.4,40.579647,-3.543869,625.5,3,5,129.0,2.812
60.57,1,-0.016,0.006,0.016,-0.001,-0.003,0.009,-1.549,0.03,0.015,59.42,93.4,40.579647,-3.543869,625.5,3,5,129.0,2.812
60.69,1,0.014,0.013,0.002,0.001,-0.003,0.007,-1.549,0.03,0.016,59.42,93.4,40.579647,-3.543869,625.5,3,5,129.0,2.812
60.77,1,-0.024,0.042,0.0,-0.008,0.023,0.0,-1.549,0.031,0.017,60.42,93.3,40.579502,-3.543625,625.9,3,5,127.6,2.812
60.87,1,-0.011,-0.021,-0.005,-0.01,0.013,0.005,-1.55,0.031,0.018,60.42,93.3,40.579502,-3.543625,625.9,3,5,127.6,2.812
60.98,1,0.009,0.039,0.018,-0.005,0.012,-0.001,-1.551,0.03,0.019,60.42,93.3,40.579502,-3.543625,625.9,3,5,127.6,2.812
61.08,1,-0.0,0.041,0.001,-0.002,0.034,0.009,-1.55,0.022,0.019,60.42,93.3,40.579502,-3.543625,625.9,3,5,127.6,2.812
61.18,1,-0.027,0.024,-0.014,-0.009,0.03,-0.0,-1.546,0.015,0.02,60.42,93.3,40.579502,-3.543625,625.9,3,5,127.6,2.812
61.28,1,-0.007,0.026,0.02,-0.014,0.034,0.001,-1.546,0.022,0.02,60.42,93.3,40.579502,-3.543625,625.9,3,5,127.6,2.812
61.38,1,0.007,0.033,0.011,-0.002,0.027,0.006,-1.549,0.016,0.021,60.42,93.3,40.579502,-3.543625,625.9,3,5,127.6,2.812
61.48,1,0.009,0.017,0.003,0.004,0.027,0.015,-1.55,0.009,0.021,60.42,93.3,40.579502,-3.543625,625.9,3,5,127.6,2.812
61.58,1,-0.008,0.026,0.002,0.003,0.023,0.004,-1.548,0.006,0.021,60.42,93.3,40.579502,-3.543625,625.9,3,5,127.6,2.812
61.68,1,-0.037,0.029,-0.021,-0.006,0.025,-0.011,-1.547,0.003,0.021,60.42,93.3,40.579502,-3.543625,625.9,3,5,127.6,2.812
61.78,1,-0.05,0.021,-0.023,-0.042,0.021,-0.02,-1.546,-0.002,0.021,61.42,92.6,40.579369,-3.543383,626.8,3,5,126.6,2.461
61.89,1,-0.005,0.007,-0.005,-0.031,0.016,-0.008,-1.547,-0.005,0.021,61.42,92.6,40.579369,-3.543383,626.8,3,5,126.6,2.461
61.98,1,-0.034,0.035,0.018,-0.023,0.023,0.001,-1.55,-0.011,0.021,61.42,92.6,40.579369,-3.543383,626.8,3,5,126.6,2.461
62.08,1,0.005,0.007,-0.027,-0.019,0.018,-0.006,-1.553,-0.012,0.02,61.42,92.6,40.579369,-3.543383,626.8,3,5,126.6,2.461
62.18,1,0.042,0.016,-0.015,0.019,0.015,-0.015,-1.551,-0.014,0.02,61.42,92.6,40.579369,-3.543383,626.8,3,5,126.6,2.461
62.28,1,-0.014,-0.012,-0.008,0.002,0.002,-0.015,-1.55,-0.015,0.019,61.42,92.6,40.579369,-3.543383,626.8,3,5,126.6,2.461
62.39,1,0.006,0.036,0.009,0.003,0.019,-0.0,-1.549,-0.016,0.018,61.42,92.6,40.579369,-3.543383,626.8,3,5,126.6,2.461
62.49,1,-0.002,-0.002,0.025,0.0,0.012,0.016,-1.548,-0.018,0.017,61.42,92.6,40.579369,-3.543383,626.8,3,5,126.6,2.461
62.59,1,0.043,0.01,0.02,0.019,0.006,0.013,-1.548,-0.017,0.016,61.42,92.6,40.579369,-3.543383,626.8,3,5,126.6,2.461
62.68,1,0.01,0.001,0.016,0.023,0.004,0.019,-1.549,-0.016,0.015,61.42,92.6,40.579369,-3.543383,626.8,3,5,126.6,2.461
62.78,1,-0.035,-0.007,-0.0,-0.002,-0.003,0.013,-1.551,-0.021,0.015,62.41,92.7,40.579231,-3.543149,627.1,3,5,126.6,1.055
62.88,1,-0.034,0.014,-0.022,-0.025,0.0,-0.006,-1.552,-0.017,0.014,62.41,92.7,40.579231,-3.543149,627.1,3,5,126.6,1.055
62.98,1,-0.005,-0.01,-0.002,-0.018,0.004,-0.014,-1.556,-0.016,0.013,62.41,92.7,40.579231,-3.543149,627.1,3,5,126.6,1.055
63.08,1,-0.028,0.004,-0.022,-0.024,0.003,-0.008,-1.557,-0.016,0.013,62.41,92.7,40.579231,-3.543149,627.1,3,5,126.6,1.055
63.18,1,0.001,0.008,-0.014,-0.013,0.004,-0.016,-1.557,-0.016,0.012,62.41,92.7,40.579231,-3.543149,627.1,3,5,126.6,1.055
63.28,1,-0.033,-0.002,0.002,-0.014,0.006,-0.007,-1.559,-0.023,0.011,62.41,92.7,40.579231,-3.543149,627.1,3,5,126.6,1.055
63.38,1,-0.033,-0.028,-0.008,-0.026,-0.014,-0.007,-1.559,-0.025,0.011,62.41,92.7,40.579231,-3.543149,627.1,3,5,126.6,1.055
63.48,1,0.004,-0.02,0.019,-0.02,-0.013,0.012,-1.559,-0.024,0.011,62.41,92.7,40.579231,-3.543149,627.1,3,5,126.6,1.055
63.59,1,0.033,-0.04,0.014,0.01,-0.03,0.005,-1.558,-0.022,0.012,62.41,92.7,40.579231,-3.543149,627.1,3,5,126.6,1.055
63.68,1,-0.007,-0.057,0.01,0.01,-0.044,0.007,-1.558,-0.021,0.012,62.41,92.7,40.579231,-3.543149,627.1,3,5,126.6,1.055
63.79,1,-0.031,-0.041,0.001,-0.011,-0.05,0.008,-1.558,-0.021,0.013,63.42,92.5,40.579094,-3.542904,627.3,3,5,126.6,0.0
63.88,1,-0.039,-0.025,-0.012,-0.031,-0.034,-0.004,-1.558,-0.019,0.014,63.42,92.5,40.579094,-3.542904,627.3,3,5,126.6,0.0
63.98,1,0.001,-0.032,-0.008,-0.02,-0.031,-0.005,-1.562,-0.016,0.015,63.42,92.5,40.579094,-3.542904,627.3,3,5,126.6,0.0
64.08,1,-0.042,-0.018,0.003,-0.022,-0.023,0.002,-1.562,-0.018,0.016,63.42,92.5,40.579094,-3.542904,627.3,3,5,126.6,0.0
64.19,1,-0.03,-0.063,-0.013,-0.03,-0.041,-0.004,-1.562,-0.016,0.016,63.42,92.5,40.579094,-3.542904,627.3,3,5,126.6,0.0
64.28,1,-0.005,-0.046,0.001,-0.024,-0.042,-0.008,-1.565,-0.016,0.017,63.42,92.5,40.579094,-3.542904,627.3,3,5,126.6,0.0
64.4,1,0.011,-0.044,-0.009,0.001,-0.047,-0.002,-1.567,-0.015,0.017,63.42,92.5,40.579094,-3.542904,627.3,3,5,126.6,0.0
64.49,1,-0.045,-0.014,-0.014,-0.02,-0.034,-0.012,-1.567,-0.015,0.018,63.42,92.5,40.579094,-3.542904,627.3,3,5,126.6,0.0
64.58,1,-0.006,-0.043,-0.009,-0.02,-0.034,-0.009,-1.568,-0.012,0.018,63.42,92.5,40.579094,-3.542904,627.3,3,5,126.6,0.0
64.68,1,-0.008,-0.042,-0.027,-0.01,-0.039,-0.02,-1.566,-0.007,0.02,63.42,92.5,40.579094,-3.542904,627.3,3,5,126.6,0.0
64.8,1,-0.006,-0.008,-0.012,-0.005,-0.023,-0.016,-1.564,-0.003,0.02,64.44,91.7,40.57896,-3.542659,626.5,3,5,126.6,0.0
64.88,1,-0.016,-0.004,-0.01,-0.012,-0.024,-0.012,-1.563,-0.001,0.021,64.44,91.7,40.57896,-3.542659,626.5,3,5,126.6,0.0
64.99,1,0.02,-0.005,-0.04,0.0,-0.007,-0.019,-1.564,0.002,0.022,64.44,91.7,40.57896,-3.542659,626.5,3,5,126.6,0.0
65.08,1,-0.017,-0.023,-0.01,0.0,-0.011,-0.023,-1.561,0.002,0.023,64.44,91.7,40.57896,-3.542659,626.5,3,5,126.6,0.0
65.19,1,-0.052,-0.024,-0.029,-0.027,-0.017,-0.022,-1.562,0.002,0.024,64.44,91.7,40.57896,-3.542659,626.5,3,5,126.6,0.0
65.29,1,-0.005,-0.031,-0.025,-0.021,-0.026,-0.025,-1.561,0.004,0.025,64.44,91.7,40.57896,-3.542659,626.5,3,5,126.6,0.0
65.38,1,0.032,-0.004,-0.014,0.008,-0.017,-0.024,-1.563,0.006,0.026,64.44,91.7,40.57896,-3.542659,626.5,3,5,126.6,0.0
65.49,1,0.043,-0.045,-0.001,0.027,-0.028,-0.016,-1.565,0.006,0.027,64.44,91.7,40.57896,-3.542659,626.5,3,5,126.6,0.0
65.59,1,0.018,-0.029,-0.004,0.024,-0.036,-0.001,-1.57,0.006,0.029,64.44,91.7,40.57896,-3.542659,626.5,3,5,126.6,0.0
65.7,1,-0.007,-0.042,-0.018,0.007,-0.036,-0.006,-1.574,0.003,0.031,64.44,91.7,40.57896,-3.542659,626.5,3,5,126.6,0.0
65.79,1,-0.0,-0.07,-0.009,-0.0,-0.049,-0.012,-1.574,0.004,0.034,65.42,91.9,40.578823,-3.542417,626.5,3,5,125.5,1.055
65.89,1,0.001,-0.079,-0.029,0.002,-0.069,-0.025,-1.574,0.003,0.036,65.42,91.9,40.578823,-3.542417,626.5,3,5,125.5,1.055
65.99,1,0.0,-0.059,-0.025,-0.004,-0.06,-0.019,-1.575,0.003,0.039,65.42,91.9,40.578823,-3.542417,626.5,3,5,125.5,1.055
66.09,1,-0.061,-0.063,-0.021,-0.02,-0.065,-0.026,-1.573,0.005,0.042,65.42,91.9,40.578823,-3.542417,626.5,3,5,125.5,1.055
66.19,1,-0.014,-0.069,-0.015,-0.031,-0.066,-0.021,-1.568,0.014,0.044,65.42,91.9,40.578823,-3.542417,626.5,3,5,125.5,1.055
66.29,1,0.009,-0.025,-0.002,-0.009,-0.046,-0.006,-1.563,0.026,0.047,65.42,91.9,40.578823,-3.542417,626.5,3,5,125.5,1.055
66.39,1,0.007,-0.006,0.036,0.002,-0.03,0.007,-1.56,0.033,0.049,65.42,91.9,40.578823,-3.542417,626.5,3,5,125.5,1.055
66.59,1,-0.009,-0.013,0.005,-0.003,-0.004,0.013,-1.559,0.033,0.053,65.42,91.9,40.578823,-3.542417,626.5,3,5,125.5,1.055
66.7,1,0.001,0.001,-0.0,-0.006,-0.01,0.001,-1.56,0.03,0.054,65.42,91.9,40.578823,-3.542417,626.5,3,5,125.5,1.055
66.79,1,-0.02,0.001,0.005,-0.007,0.0,0.007,-1.561,0.031,0.055,65.42,91.9,40.578823,-3.542417,626.5,3,5,125.5,1.055
66.9,1,-0.044,0.01,-0.021,-0.03,0.003,-0.011,-1.56,0.034,0.056,66.42,91.5,40.578678,-3.542179,626.8,3,5,124.1,2.461
66.99,1,0.012,0.002,0.01,-0.013,0.002,0.003,-1.559,0.037,0.057,66.42,91.5,40.578678,-3.542179,626.8,3,5,124.1,2.461
67.09,1,-0.023,-0.011,0.002,-0.018,-0.001,0.002,-1.558,0.039,0.058,66.42,91.5,40.578678,-3.542179,626.8,3,5,124.1,2.461
67.19,1,-0.028,0.007,0.002,-0.019,0.001,0.002,-1.559,0.042,0.059,66.42,91.5,40.578678,-3.542179,626.8,3,5,124.1,2.461
67.29,1,-0.043,0.007,0.006,-0.033,-0.0,-0.002,-1.561,0.042,0.06,66.42,91.5,40.578678,-3.542179,626.8,3,5,124.1,2.461
67.4,1,-0.006,0.03,-0.011,-0.025,0.019,-0.0,-1.562,0.041,0.061,66.42,91.5,40.578678,-3.542179,626.8,3,5,124.1,2.461
67.49,1,0.04,0.04,-0.017,0.006,0.029,-0.009,-1.562,0.037,0.061,66.42,91.5,40.578678,-3.542179,626.8,3,5,124.1,2.461
67.59,1,0.018,-0.006,-0.019,0.021,0.015,-0.017,-1.564,0.037,0.062,66.42,91.5,40.578678,-3.542179,626.8,3,5,124.1,2.461
67.72,1,-0.026,0.045,-0.006,0.003,0.024,-0.011,-1.564,0.037,0.062,66.42,91.5,40.578678,-3.542179,626.8,3,5,124.1,2.461
67.79,1,-0.012,0.006,-0.022,-0.004,0.025,-0.013,-1.563,0.035,0.062,66.42,91.5,40.578678,-3.542179,626.8,3,5,124.1,2.461
67.89,1,-0.002,0.037,-0.019,-0.008,0.018,-0.02,-1.564,0.026,0.062,67.42,91.9,40.578545,-3.541924,627.4,3,5,123.0,2.461
67.99,1,-0.037,0.028,-0.02,-0.021,0.029,-0.019,-1.566,0.021,0.062,67.42,91.9,40.578545,-3.541924,627.4,3,5,123.0,2.461
68.1,1,-0.015,0.022,-0.012,-0.02,0.023,-0.015,-1.565,0.02,0.062,67.42,91.9,40.578545,-3.541924,627.4,3,5,123.0,2.461
68.19,1,-0.048,0.007,0.001,-0.032,0.021,-0.006,-1.561,0.018,0.062,67.42,91.9,40.578545,-3.541924,627.4,3,5,123.0,2.461
68.29,1,0.005,0.017,-0.002,-0.024,0.017,-0.006,-1.559,0.016,0.061,67.42,91.9,40.578545,-3.541924,627.4,3,5,123.0,2.461
68.39,1,0.001,-0.004,-0.001,-0.003,0.005,-0.002,-1.556,0.014,0.061,67.42,91.9,40.578545,-3.541924,627.4,3,5,123.0,2.461
68.49,1,-0.031,0.013,-0.007,-0.02,0.006,-0.001,-1.555,0.013,0.06,67.42,91.9,40.578545,-3.541924,627.4,3,5,123.0,2.461
68.6,1,-0.007,0.014,-0.015,-0.015,0.014,-0.01,-1.554,0.009,0.06,67.42,91.9,40.578545,-3.541924,627.4,3,5,123.0,2.461
68.7,1,-0.002,0.035,0.009,-0.004,0.025,-0.009,-1.554,0.009,0.06,67.42,91.9,40.578545,-3.541924,627.4,3,5,123.0,2.461
68.8,1,-0.038,0.034,-0.018,-0.024,0.03,-0.005,-1.557,0.002,0.059,67.42,91.9,40.578545,-3.541924,627.4,3,5,123.0,2.461
68.89,1,0.004,0.035,0.023,-0.017,0.032,0.001,-1.557,-0.001,0.058,68.45,91.5,40.578426,-3.541663,628.0,3,5,121.6,2.461
68.99,1,-0.027,0.033,-0.034,-0.012,0.04,-0.006,-1.558,-0.0,0.058,68.45,91.5,40.578426,-3.541663,628.0,3,5,121.6,2.461
69.09,1,-0.021,0.035,-0.012,-0.019,0.036,-0.012,-1.557,0.002,0.057,68.45,91.5,40.578426,-3.541663,628.0,3,5,121.6,2.461
69.19,1,-0.011,0.018,0.007,-0.019,0.018,-0.007,-1.558,0.001,0.056,68.45,91.5,40.578426,-3.541663,628.0,3,5,121.6,2.461
69.29,1,0.006,0.031,0.018,-0.003,0.028,0.007,-1.557,-0.002,0.054,68.45,91.5,40.578426,-3.541663,628.0,3,5,121.6,2.461
69.4,1,-0.012,0.048,-0.03,-0.003,0.037,-0.004,-1.557,-0.003,0.053,68.45,91.5,40.578426,-3.541663,628.0,3,5,121.6,2.461
69.5,1,-0.036,0.023,-0.001,-0.018,0.035,-0.016,-1.556,-0.006,0.052,68.45,91.5,40.578426,-3.541663,628.0,3,5,121.6,2.461
69.6,1,-0.031,0.029,-0.018,-0.027,0.028,-0.007,-1.555,-0.008,0.051,68.45,91.5,40.578426,-3.541663,628.0,3,5,121.6,2.461
69.7,1,0.055,0.033,0.003,0.003,0.033,-0.008,-1.554,-0.006,0.049,68.45,91.5,40.578426,-3.541663,628.0,3,5,121.6,2.461
69.81,1,0.034,0.041,-0.023,0.033,0.035,-0.009,-1.556,-0.01,0.048,68.45,91.5,40.578426,-3.541663,628.0,3,5,121.6,2.461
69.9,1,-0.064,0.024,0.023,-0.012,0.033,-0.004,-1.553,-0.012,0.047,69.42,91.5,40.5783,-3.541417,628.1,3,5,121.3,1.758
70.01,1,-0.012,0.008,0.016,-0.023,0.018,0.01,-1.553,-0.008,0.046,69.42,91.5,40.5783,-3.541417,628.1,3,5,121.3,1.758
70.11,1,-0.028,0.002,0.014,-0.02,0.013,0.014,-1.554,-0.005,0.045,69.42,91.5,40.5783,-3.541417,628.1,3,5,121.3,1.758
70.2,1,-0.013,-0.02,-0.012,-0.023,-0.008,0.005,-1.559,-0.008,0.044,69.42,91.5,40.5783,-3.541417,628.1,3,5,121.3,1.758
70.3,1,-0.004,-0.013,-0.003,-0.011,-0.01,0.0,-1.562,-0.007,0.044,69.42,91.5,40.5783,-3.541417,628.1,3,5,121.3,1.758
70.4,1,0.01,0.025,-0.003,-0.008,0.001,-0.002,-1.561,-0.013,0.043,69.42,91.5,40.5783,-3.541417,628.1,3,5,121.3,1.758
70.5,1,0.004,-0.003,-0.014,0.008,0.008,-0.01,-1.557,-0.015,0.043,69.42,91.5,40.5783,-3.541417,628.1,3,5,121.3,1.758
70.6,1,-0.039,-0.011,0.012,-0.013,-0.002,-0.004,-1.556,-0.012,0.042,69.42,91.5,40.5783,-3.541417,628.1,3,5,121.3,1.758
70.7,1,0.006,-0.025,0.01,-0.011,-0.014,0.008,-1.557,-0.01,0.042,69.42,91.5,40.5783,-3.541417,628.1,3,5,121.3,1.758
70.8,1,0.024,-0.022,0.016,0.007,-0.021,0.007,-1.559,-0.009,0.042,69.42,91.5,40.5783,-3.541417,628.1,3,5,121.3,1.758
70.9,1,0.008,-0.01,-0.001,0.015,-0.019,0.01,-1.562,-0.008,0.041,70.41,91.7,40.578182,-3.541153,628.4,3,5,121.6,0.352
71.0,1,0.017,-0.006,-0.01,0.007,-0.012,-0.004,-1.564,-0.007,0.041,70.41,91.7,40.578182,-3.541153,628.4,3,5,121.6,0.352
71.1,1,-0.005,-0.034,-0.004,0.008,-0.018,-0.001,-1.561,-0.004,0.042,70.41,91.7,40.578182,-3.541153,628.4,3,5,121.6,0.352
71.2,1,-0.014,-0.027,0.008,-0.007,-0.024,-0.002,-1.556,-0.003,0.042,70.41,91.7,40.578182,-3.541153,628.4,3,5,121.6,0.352
71.3,1,-0.006,-0.007,0.013,-0.008,-0.02,0.007,-1.555,-0.002,0.042,70.41,91.7,40.578182,-3.541153,628.4,3,5,121.6,0.352
71.4,1,-0.021,-0.026,-0.009,-0.009,-0.02,0.002,-1.556,-0.001,0.043,70.41,91.7,40.578182,-3.541153,628.4,3,5,121.6,0.352
71.51,1,-0.014,-0.031,0.016,-0.021,-0.023,0.004,-1.556,-0.001,0.043,70.41,91.7,40.578182,-3.541153,628.4,3,5,121.6,0.352
71.6,1,-0.022,-0.014,-0.007,-0.013,-0.018,0.003,-1.557,0.0,0.043,70.41,91.7,40.578182,-3.541153,628.4,3,5,121.6,0.352
71.71,1,0.012,0.012,0.028,-0.005,-0.003,0.012,-1.552,-0.0,0.044,70.41,91.7,40.578182,-3.541153,628.4,3,5,121.6,0.352
71.8,1,0.017,-0.009,-0.014,0.004,-0.009,0.01,-1.552,-0.0,0.044,70.41,91.7,40.578182,-3.541153,628.4,3,5,121.6,0.352
71.91,1,-0.023,-0.022,0.008,-0.002,-0.01,-0.001,-1.552,0.0,0.044,71.42,91.3,40.578068,-3.540892,628.2,3,5,121.3,0.352
72.0,1,0.013,-0.026,-0.03,-0.001,-0.024,-0.01,-1.549,0.004,0.044,71.42,91.3,40.578068,-3.540892,628.2,3,5,121.3,0.352
72.1,1,-0.021,-0.016,0.032,-0.008,-0.019,0.009,-1.549,0.003,0.045,71.42,91.3,40.578068,-3.540892,628.2,3,5,121.3,0.352
72.2,1,-0.046,-0.01,0.024,-0.024,-0.014,0.013,-1.551,0.004,0.046,71.42,91.3,40.578068,-3.540892,628.2,3,5,121.3,0.352
72.31,1,-0.007,-0.028,-0.008,-0.021,-0.02,0.009,-1.553,0.005,0.047,71.42,91.3,40.578068,-3.540892,628.2,3,5,121.3,0.352
72.4,1,-0.044,-0.044,0.006,-0.026,-0.028,0.004,-1.556,0.0,0.048,71.42,91.3,40.578068,-3.540892,628.2,3,5,121.3,0.352
72.51,1,0.01,-0.051,0.009,-0.018,-0.043,0.008,-1.557,-0.002,0.049,71.42,91.3,40.578068,-3.540892,628.2,3,5,121.3,0.352
72.6,1,0.021,-0.004,0.03,0.005,-0.029,0.014,-1.554,0.007,0.05,71.42,91.3,40.578068,-3.540892,628.2,3,5,121.3,0.352
72.71,1,-0.02,0.0,-0.019,0.001,-0.009,0.004,-1.553,0.014,0.052,71.42,91.3,40.578068,-3.540892,628.2,3,5,121.3,0.352
72.8,1,-0.028,-0.031,0.018,-0.016,-0.017,0.005,-1.553,0.015,0.053,71.42,91.3,40.578068,-3.540892,628.2,3,5,121.3,0.352
72.9,1,-0.026,-0.049,0.009,-0.025,-0.038,0.007,-1.554,0.016,0.055,72.43,91.4,40.57795,-3.540632,628.0,4,5,120.6,1.055
73.01,1,0.013,0.002,0.007,-0.007,-0.024,0.015,-1.555,0.017,0.057,72.43,91.4,40.57795,-3.540632,628.0,4,5,120.6,1.055
73.11,1,0.02,-0.032,-0.01,0.006,-0.021,-0.003,-1.557,0.019,0.058,72.43,91.4,40.57795,-3.540632,628.0,4,5,120.6,1.055
73.21,1,-0.033,-0.031,0.014,-0.014,-0.024,-0.005,-1.556,0.021,0.06,72.43,91.4,40.57795,-3.540632,628.0,4,5,120.6,1.055
73.3,1,-0.053,-0.06,0.003,-0.029,-0.043,0.009,-1.556,0.023,0.062,72.43,91.4,40.57795,-3.540632,628.0,4,5,120.6,1.055
73.41,1,-0.004,-0.032,0.015,-0.022,-0.04,0.013,-1.559,0.023,0.063,72.43,91.4,40.57795,-3.540632,628.0,4,5,120.6,1.055
73.51,1,0.047,-0.054,-0.045,0.014,-0.042,-0.01,-1.555,0.029,0.064,72.43,91.4,40.57795,-3.540632,628.0,4,5,120.6,1.055
73.61,1,-0.002,-0.012,0.014,0.007,-0.037,-0.006,-1.555,0.037,0.066,72.43,91.4,40.57795,-3.540632,628.0,4,5,120.6,1.055
73.71,1,-0.038,-0.032,-0.009,-0.007,-0.031,-0.006,-1.555,0.04,0.068,72.43,91.4,40.57795,-3.540632,628.0,4,5,120.6,1.055
73.81,1,-0.008,-0.015,0.008,-0.009,-0.03,-0.003,-1.553,0.047,0.069,72.43,91.4,40.57795,-3.540632,628.0,4,5,120.6,1.055
73.91,1,-0.042,0.02,-0.01,-0.028,0.001,-0.004,-1.554,0.047,0.07,73.5,91.2,40.577835,-3.540374,629.2,3,5,119.2,2.109
74.01,1,-0.004,0.023,0.025,-0.019,0.013,0.011,-1.554,0.042,0.07,73.5,91.2,40.577835,-3.540374,629.2,3,5,119.2,2.109
74.11,1,0.038,0.047,0.008,0.013,0.034,0.016,-1.553,0.038,0.07,73.5,91.2,40.577835,-3.540374,629.2,3,5,119.2,2.109
74.21,1,-0.026,0.037,0.007,-0.007,0.034,0.006,-1.555,0.031,0.07,73.5,91.2,40.577835,-3.540374,629.2,3,5,119.2,2.109
74.31,1,0.008,0.038,-0.004,-0.004,0.041,0.004,-1.553,0.031,0.071,73.5,91.2,40.577835,-3.540374,629.2,3,5,119.2,2.109
74.42,1,-0.006,0.027,0.007,0.001,0.036,-0.001,-1.554,0.029,0.071,73.5,91.2,40.577835,-3.540374,629.2,3,5,119.2,2.109
74.51,1,-0.028,0.02,0.005,-0.011,0.021,0.006,-1.557,0.027,0.071,73.5,91.2,40.577835,-3.540374,629.2,3,5,119.2,2.109
74.61,1,0.053,0.041,0.01,0.014,0.032,0.006,-1.555,0.028,0.07,73.5,91.2,40.577835,-3.540374,629.2,3,5,119.2,2.109
74.71,1,-0.026,0.021,-0.017,-0.005,0.032,-0.006,-1.555,0.024,0.07,73.5,91.2,40.577835,-3.540374,629.2,3,5,119.2,2.109
74.82,1,0.002,0.011,0.004,-0.0,0.02,-0.006,-1.558,0.021,0.069,73.5,91.2,40.577835,-3.540374,629.2,3,5,119.2,2.109
74.92,1,-0.013,-0.023,0.034,-0.006,-0.004,0.015,-1.562,0.021,0.069,74.41,91.4,40.577721,-3.540107,628.5,3,5,117.8,2.812
75.02,1,-0.008,0.017,0.008,-0.01,0.003,0.022,-1.562,0.02,0.069,74.41,91.4,40.577721,-3.540107,628.5,3,5,117.8,2.812
75.12,1,-0.012,0.026,-0.003,-0.014,0.015,0.006,-1.562,0.02,0.069,74.41,91.4,40.577721,-3.540107,628.5,3,5,117.8,2.812
75.21,1,0.023,0.024,-0.005,0.007,0.023,-0.0,-1.562,0.02,0.069,74.41,91.4,40.577721,-3.540107,628.5,3,5,117.8,2.812
75.31,1,-0.019,0.012,-0.019,0.003,0.015,-0.013,-1.557,0.02,0.069,74.41,91.4,40.577721,-3.540107,628.5,3,5,117.8,2.812
75.42,1,-0.023,0.022,-0.01,-0.018,0.021,-0.01,-1.554,0.025,0.069,74.41,91.4,40.577721,-3.540107,628.5,3,5,117.8,2.812
75.51,1,-0.018,0.052,0.018,-0.019,0.029,0.002,-1.552,0.025,0.069,74.41,91.4,40.577721,-3.540107,628.5,3,5,117.8,2.812
75.62,1,-0.023,0.033,0.0,-0.023,0.038,0.006,-1.552,0.024,0.069,74.41,91.4,40.577721,-3.540107,628.5,3,5,117.8,2.812
75.71,1,-0.005,0.009,0.022,-0.015,0.025,0.012,-1.552,0.025,0.069,74.41,91.4,40.577721,-3.540107,628.5,3,5,117.8,2.812
75.81,1,-0.001,0.016,0.008,-0.004,0.021,0.009,-1.552,0.026,0.069,74.41,91.4,40.577721,-3.540107,628.5,3,5,117.8,2.812
75.91,1,-0.005,0.033,0.015,-0.001,0.019,0.009,-1.55,0.026,0.068,75.5,91.4,40.577621,-3.539833,629.4,3,5,117.1,2.109
76.02,1,-0.034,0.013,-0.015,-0.02,0.025,0.005,-1.549,0.03,0.068,75.5,91.4,40.577621,-3.539833,629.4,3,5,117.1,2.109
76.11,1,-0.041,-0.01,0.012,-0.038,0.006,-0.003,-1.549,0.031,0.068,75.5,91.4,40.577621,-3.539833,629.4,3,5,117.1,2.109
76.22,1,-0.004,0.024,0.013,-0.018,0.01,0.015,-1.552,0.032,0.068,75.5,91.4,40.577621,-3.539833,629.4,3,5,117.1,2.109
76.31,1,-0.009,0.027,0.025,-0.011,0.018,0.017,-1.552,0.035,0.067,75.5,91.4,40.577621,-3.539833,629.4,3,5,117.1,2.109
76.41,1,-0.023,0.007,0.009,-0.013,0.014,0.012,-1.552,0.037,0.067,75.5,91.4,40.577621,-3.539833,629.4,3,5,117.1,2.109
76.51,1,0.006,0.039,-0.001,-0.005,0.023,0.008,-1.553,0.035,0.067,75.5,91.4,40.577621,-3.539833,629.4,3,5,117.1,2.109
76.61,1,-0.024,0.001,-0.004,-0.012,0.015,0.001,-1.555,0.032,0.067,75.5,91.4,40.577621,-3.539833,629.4,3,5,117.1,2.109
76.71,1,-0.027,0.056,0.027,-0.021,0.029,0.01,-1.557,0.029,0.066,75.5,91.4,40.577621,-3.539833,629.4,3,5,117.1,2.109
76.81,1,0.014,0.031,-0.003,-0.016,0.043,0.012,-1.557,0.027,0.066,75.5,91.4,40.577621,-3.539833,629.4,3,5,117.1,2.109
76.92,1,0.013,0.052,0.023,0.001,0.036,0.006,-1.559,0.022,0.065,76.42,91.5,40.577511,-3.539569,628.4,4,5,117.1,0.703
77.02,1,0.06,0.016,0.01,0.04,0.031,0.018,-1.558,0.024,0.065,76.42,91.5,40.577511,-3.539569,628.4,4,5,117.1,0.703
77.12,1,0.027,0.004,-0.031,0.036,0.021,-0.005,-1.56,0.023,0.064,76.42,91.5,40.577511,-3.539569,628.4,4,5,117.1,0.703
77.22,1,-0.043,0.035,-0.016,-0.003,0.024,-0.011,-1.564,0.017,0.064,76.42,91.5,40.577511,-3.539569,628.4,4,5,117.1,0.703
77.33,1,0.015,0.017,-0.001,-0.002,0.022,-0.015,-1.564,0.014,0.063,76.42,91.5,40.577511,-3.539569,628.4,4,5,117.1,0.703
77.42,1,0.007,0.015,-0.007,0.004,0.011,-0.006,-1.564,0.014,0.063,76.42,91.5,40.577511,-3.539569,628.4,4,5,117.1,0.703
77.52,1,-0.071,0.0,-0.013,-0.028,0.017,-0.01,-1.562,0.014,0.062,76.42,91.5,40.577511,-3.539569,628.4,4,5,117.1,0.703
77.62,1,-0.015,0.002,-0.023,-0.019,0.005,-0.015,-1.56,0.015,0.063,76.42,91.5,40.577511,-3.539569,628.4,4,5,117.1,0.703
77.72,1,-0.019,-0.018,0.009,-0.029,-0.002,-0.007,-1.564,0.019,0.063,76.42,91.5,40.577511,-3.539569,628.4,4,5,117.1,0.703
77.82,1,-0.003,-0.012,0.01,-0.015,-0.013,0.0,-1.562,0.018,0.064,76.42,91.5,40.577511,-3.539569,628.4,4,5,117.1,0.703
77.92,1,-0.008,-0.011,-0.01,-0.009,-0.007,0.003,-1.56,0.021,0.064,77.44,91.6,40.577408,-3.5393,629.1,3,5,116.7,0.352
78.03,1,0.0,0.009,-0.018,-0.006,-0.005,-0.013,-1.558,0.025,0.065,77.44,91.6,40.577408,-3.5393,629.1,3,5,116.7,0.352
78.12,1,-0.002,-0.009,-0.021,-0.003,-0.001,-0.012,-1.557,0.027,0.065,77.44,91.6,40.577408,-3.5393,629.1,3,5,116.7,0.352
78.22,1,-0.001,0.038,-0.017,0.002,0.012,-0.025,-1.557,0.034,0.066,77.44,91.6,40.577408,-3.5393,629.1,3,5,116.7,0.352
78.32,1,-0.031,0.009,-0.013,-0.016,0.015,-0.01,-1.557,0.035,0.066,77.44,91.6,40.577408,-3.5393,629.1,3,5,116.7,0.352
78.42,1,-0.019,0.02,0.012,-0.021,0.015,-0.004,-1.557,0.037,0.067,77.44,91.6,40.577408,-3.5393,629.1,3,5,116.7,0.352
78.52,1,-0.024,-0.011,-0.015,-0.02,0.01,-0.001,-1.559,0.04,0.067,77.44,91.6,40.577408,-3.5393,629.1,3,5,116.7,0.352
78.62,1,0.012,0.006,0.012,-0.015,0.004,-0.006,-1.56,0.045,0.068,77.44,91.6,40.577408,-3.5393,629.1,3,5,116.7,0.352
78.72,1,-0.003,-0.013,-0.017,0.001,-0.003,-0.005,-1.561,0.047,0.068,77.44,91.6,40.577408,-3.5393,629.1,3,5,116.7,0.352
78.82,1,-0.027,-0.005,0.043,-0.011,-0.01,0.017,-1.558,0.049,0.069,77.44,91.6,40.577408,-3.5393,629.1,3,5,116.7,0.352
78.92,1,-0.038,-0.072,-0.029,-0.023,-0.033,-0.001,-1.557,0.053,0.071,78.43,91.2,40.577305,-3.539037,628.8,3,5,116.0,1.055
79.02,1,-0.032,-0.017,0.025,-0.028,-0.035,0.006,-1.557,0.053,0.072,78.43,91.2,40.577305,-3.539037,628.8,3,5,116.0,1.055
79.12,1,0.012,-0.007,-0.013,-0.025,-0.021,0.006,-1.556,0.053,0.073,78.43,91.2,40.577305,-3.539037,628.8,3,5,116.0,1.055
79.23,1,0.039,-0.038,0.044,0.016,-0.026,0.016,-1.553,0.05,0.074,78.43,91.2,40.577305,-3.539037,628.8,3,5,116.0,1.055
79.33,1,0.009,0.032,0.011,0.021,-0.003,0.018,-1.555,0.044,0.075,78.43,91.2,40.577305,-3.539037,628.8,3,5,116.0,1.055
79.43,1,0.021,0.015,0.014,0.015,0.018,0.01,-1.552,0.041,0.075,78.43,91.2,40.577305,-3.539037,628.8,3,5,116.0,1.055
79.52,1,0.009,-0.01,-0.002,0.017,-0.001,0.012,-1.555,0.039,0.075,78.43,91.2,40.577305,-3.539037,628.8,3,5,116.0,1.055
79.62,1,-0.067,0.031,0.013,-0.021,0.013,0.008,-1.558,0.034,0.075,78.43,91.2,40.577305,-3.539037,628.8,3,5,116.0,1.055
79.72,1,-0.045,0.021,0.001,-0.044,0.014,0.005,-1.561,0.031,0.075,78.43,91.2,40.577305,-3.539037,628.8,3,5,116.0,1.055
79.82,1,-0.004,0.014,-0.007,-0.029,0.016,0.001,-1.567,0.029,0.074,78.43,91.2,40.577305,-3.539037,628.8,3,5,116.0,1.055
79.92,1,0.06,-0.005,0.013,0.01,0.008,0.005,-1.567,0.025,0.073,79.42,91.1,40.577206,-3.538769,628.9,3,5,114.6,2.109
80.02,1,-0.027,0.073,-0.004,0.022,0.035,-0.002,-1.565,0.02,0.072,79.42,91.1,40.577206,-3.538769,628.9,3,5,114.6,2.109
80.12,1,0.01,0.053,0.011,0.0,0.054,0.004,-1.565,0.018,0.071,79.42,91.1,40.577206,-3.538769,628.9,3,5,114.6,2.109
80.22,1,-0.01,0.084,-0.028,-0.004,0.063,-0.009,-1.565,0.019,0.069,79.42,91.1,40.577206,-3.538769,628.9,3,5,114.6,2.109
80.32,1,0.025,0.059,-0.013,0.006,0.065,-0.009,-1.564,0.02,0.068,79.42,91.1,40.577206,-3.538769,628.9,3,5,114.6,2.109
80.43,1,-0.004,0.036,-0.014,0.008,0.057,-0.01,-1.562,0.021,0.067,79.42,91.1,40.577206,-3.538769,628.9,3,5,114.6,2.109
80.52,1,0.02,0.021,-0.008,0.002,0.035,-0.02,-1.562,0.022,0.066,79.42,91.1,40.577206,-3.538769,628.9,3,5,114.6,2.109
80.63,1,0.022,0.022,-0.001,0.017,0.023,-0.002,-1.559,0.022,0.064,79.42,91.1,40.577206,-3.538769,628.9,3,5,114.6,2.109
80.72,1,0.019,0.032,-0.018,0.02,0.021,-0.009,-1.56,0.017,0.062,79.42,91.1,40.577206,-3.538769,628.9,3,5,114.6,2.109
80.82,1,-0.064,0.013,-0.007,-0.014,0.028,-0.015,-1.559,0.016,0.06,79.42,91.1,40.577206,-3.538769,628.9,3,5,114.6,2.109
80.92,1,-0.048,0.044,-0.014,-0.047,0.025,-0.008,-1.56,0.014,0.058,80.44,91.3,40.577129,-3.538511,629.0,3,5,113.9,2.109
81.03,1,-0.019,0.025,-0.017,-0.031,0.041,-0.017,-1.559,0.014,0.056,80.44,91.3,40.577129,-3.538511,629.0,3,5,113.9,2.109
81.13,1,0.007,0.015,0.004,-0.01,0.02,-0.001,-1.56,0.014,0.055,80.44,91.3,40.577129,-3.538511,629.0,3,5,113.9,2.109
81.23,1,-0.041,0.035,-0.029,-0.015,0.022,-0.016,-1.561,0.014,0.054,80.44,91.3,40.577129,-3.538511,629.0,3,5,113.9,2.109
81.33,1,0.0,0.047,-0.0,-0.024,0.04,-0.01,-1.559,0.008,0.052,80.44,91.3,40.577129,-3.538511,629.0,3,5,113.9,2.109
81.43,1,0.062,0.016,-0.002,0.02,0.03,-0.007,-1.559,0.003,0.051,80.44,91.3,40.577129,-3.538511,629.0,3,5,113.9,2.109
81.53,1,0.054,0.039,-0.01,0.051,0.026,-0.006,-1.56,0.002,0.049,80.44,91.3,40.577129,-3.538511,629.0,3,5,113.9,2.109
81.64,1,0.016,0.039,0.014,0.038,0.04,0.001,-1.56,-0.005,0.047,80.44,91.3,40.577129,-3.538511,629.0,3,5,113.9,2.109
81.73,1,-0.023,0.03,0.007,0.001,0.038,0.007,-1.557,-0.009,0.045,80.44,91.3,40.577129,-3.538511,629.0,3,5,113.9,2.109
81.86,1,-0.017,0.042,0.011,-0.008,0.03,0.005,-1.555,-0.013,0.043,80.44,91.3,40.577129,-3.538511,629.0,3,5,113.9,2.109
81.93,1,-0.035,0.07,0.03,-0.023,0.06,0.019,-1.554,-0.012,0.041,81.41,91.7,40.57703,-3.538234,631.0,3,5,114.3,0.352
82.03,1,-0.07,-0.009,-0.055,-0.034,0.031,-0.002,-1.553,-0.008,0.039,81.41,91.7,40.57703,-3.538234,631.0,3,5,114.3,0.352
82.13,1,-0.08,-0.014,-0.006,-0.068,0.002,-0.017,-1.55,-0.005,0.038,81.41,91.7,40.57703,-3.538234,631.0,3,5,114.3,0.352
82.23,1,0.023,-0.015,0.006,-0.038,-0.012,-0.011,-1.549,-0.002,0.036,81.41,91.7,40.57703,-3.538234,631.0,3,5,114.3,0.352
82.34,1,0.002,-0.027,0.012,-0.007,-0.014,0.01,-1.547,-0.001,0.035,81.41,91.7,40.57703,-3.538234,631.0,3,5,114.3,0.352
82.43,1,-0.008,-0.013,-0.013,-0.003,-0.018,-0.001,-1.543,0.007,0.035,81.41,91.7,40.57703,-3.538234,631.0,3,5,114.3,0.352
82.54,1,0.015,-0.029,-0.028,-0.0,-0.023,-0.018,-1.538,0.011,0.035,81.41,91.7,40.57703,-3.538234,631.0,3,5,114.3,0.352
82.63,1,0.011,-0.001,-0.003,0.013,-0.017,-0.013,-1.536,0.012,0.034,81.41,91.7,40.57703,-3.538234,631.0,3,5,114.3,0.352
82.73,1,0.001,-0.032,0.007,0.008,-0.02,-0.005,-1.536,0.012,0.034,81.41,91.7,40.57703,-3.538234,631.0,3,5,114.3,0.352
82.83,1,-0.004,-0.005,0.013,-0.002,-0.014,0.008,-1.532,0.018,0.033,81.41,91.7,40.57703,-3.538234,631.0,3,5,114.3,0.352
82.93,1,-0.025,0.003,-0.005,-0.008,-0.008,0.006,-1.528,0.022,0.033,82.41,91.3,40.576931,-3.537959,631.1,3,5,114.6,0.703
83.03,1,-0.029,0.004,0.009,-0.02,-0.001,-0.003,-1.53,0.02,0.033,82.41,91.3,40.576931,-3.537959,631.1,3,5,114.6,0.703
83.13,1,0.049,-0.003,-0.01,-0.002,-0.001,0.0,-1.531,0.02,0.032,82.41,91.3,40.576931,-3.537959,631.1,3,5,114.6,0.703
83.23,1,-0.002,-0.008,0.002,0.013,0.004,0.005,-1.532,0.021,0.032,82.41,91.3,40.576931,-3.537959,631.1,3,5,114.6,0.703
83.33,1,-0.043,0.005,0.004,-0.01,-0.001,-0.003,-1.535,0.023,0.032,82.41,91.3,40.576931,-3.537959,631.1,3,5,114.6,0.703
83.43,1,-0.014,-0.018,0.022,-0.02,-0.007,0.009,-1.536,0.023,0.032,82.41,91.3,40.576931,-3.537959,631.1,3,5,114.6,0.703
83.54,1,0.002,-0.008,0.024,-0.008,-0.008,0.015,-1.538,0.027,0.032,82.41,91.3,40.576931,-3.537959,631.1,3,5,114.6,0.703
83.64,1,0.008,-0.001,0.036,-0.007,-0.01,0.032,-1.537,0.028,0.033,82.41,91.3,40.576931,-3.537959,631.1,3,5,114.6,0.703
83.73,1,0.003,-0.0,0.022,0.006,0.001,0.03,-1.535,0.034,0.033,82.41,91.3,40.576931,-3.537959,631.1,3,5,114.6,0.703
83.84,1,-0.036,-0.002,0.013,-0.005,-0.003,0.015,-1.531,0.039,0.034,82.41,91.3,40.576931,-3.537959,631.1,3,5,114.6,0.703
83.93,1,-0.07,0.005,0.025,-0.043,0.002,0.021,-1.531,0.043,0.034,83.45,90.1,40.576839,-3.537696,631.9,3,5,114.6,0.352
84.03,1,-0.027,-0.002,0.025,-0.052,-0.003,0.024,-1.534,0.043,0.035,83.45,90.1,40.576839,-3.537696,631.9,3,5,114.6,0.352
84.13,1,0.002,0.011,0.065,-0.024,-0.0,0.037,-1.536,0.044,0.035,83.45,90.1,40.576839,-3.537696,631.9,3,5,114.6,0.352
84.24,1,0.045,0.004,0.03,0.009,0.011,0.05,-1.539,0.046,0.036,83.45,90.1,40.576839,-3.537696,631.9,3,5,114.6,0.352
84.33,1,0.034,-0.001,-0.011,0.037,0.001,0.011,-1.538,0.048,0.036,83.45,90.1,40.576839,-3.537696,631.9,3,5,114.6,0.352
84.43,1,0.024,0.004,0.024,0.033,0.006,0.014,-1.537,0.048,0.036,83.45,90.1,40.576839,-3.537696,631.9,3,5,114.6,0.352
84.53,1,-0.042,0.009,0.044,-0.002,0.009,0.031,-1.535,0.048,0.036,83.45,90.1,40.576839,-3.537696,631.9,3,5,114.6,0.352
84.63,1,0.002,0.054,0.032,-0.013,0.021,0.028,-1.536,0.047,0.036,83.45,90.1,40.576839,-3.537696,631.9,3,5,114.6,0.352
84.73,1,0.023,0.005,0.013,0.006,0.022,0.029,-1.534,0.048,0.036,83.45,90.1,40.576839,-3.537696,631.9,3,5,114.6,0.352
84.83,1,-0.04,-0.04,0.054,-0.003,-0.003,0.034,-1.531,0.047,0.036,83.45,90.1,40.576839,-3.537696,631.9,3,5,114.6,0.352
84.95,1,-0.035,-0.0,0.031,-0.037,-0.014,0.039,-1.529,0.043,0.036,84.45,89.2,40.576748,-3.537443,630.7,3,5,113.9,0.703
85.05,1,0.044,0.048,0.105,0.01,0.009,0.057,-1.531,0.041,0.036,84.45,89.2,40.576748,-3.537443,630.7,3,5,113.9,0.703
85.14,1,-0.012,0.014,0.021,0.005,0.027,0.061,-1.534,0.038,0.036,84.45,89.2,40.576748,-3.537443,630.7,3,5,113.9,0.703
85.24,1,-0.032,0.014,0.029,-0.023,0.021,0.039,-1.535,0.036,0.035,84.45,89.2,40.576748,-3.537443,630.7,3,5,113.9,0.703
85.34,1,0.008,0.03,0.044,-0.004,0.017,0.034,-1.538,0.036,0.034,84.45,89.2,40.576748,-3.537443,630.7,3,5,113.9,0.703
85.44,1,-0.013,0.057,-0.005,-0.008,0.038,0.023,-1.541,0.034,0.032,84.45,89.2,40.576748,-3.537443,630.7,3,5,113.9,0.703
85.54,1,-0.103,0.054,0.004,-0.044,0.051,0.005,-1.544,0.03,0.03,84.45,89.2,40.576748,-3.537443,630.7,3,5,113.9,0.703
85.65,1,-0.136,0.023,0.026,-0.104,0.039,0.016,-1.548,0.029,0.029,84.45,89.2,40.576748,-3.537443,630.7,3,5,113.9,0.703
85.75,1,0.026,-0.005,0.049,-0.058,0.021,0.038,-1.55,0.024,0.027,84.45,89.2,40.576748,-3.537443,630.7,3,5,113.9,0.703
85.84,1,0.079,0.03,0.011,0.025,0.015,0.023,-1.549,0.024,0.026,84.45,89.2,40.576748,-3.537443,630.7,3,5,113.9,0.703
85.94,1,0.034,0.05,0.001,0.043,0.039,0.016,-1.549,0.02,0.024,85.43,89.8,40.57666,-3.537171,630.3,3,5,113.6,1.055
86.04,1,-0.009,0.044,0.014,0.014,0.042,0.006,-1.552,0.01,0.022,85.43,89.8,40.57666,-3.537171,630.3,3,5,113.6,1.055
86.14,1,0.013,-0.005,0.012,0.011,0.019,0.016,-1.553,0.01,0.021,85.43,89.8,40.57666,-3.537171,630.3,3,5,113.6,1.055
86.25,1,-0.057,-0.035,0.003,-0.014,-0.008,0.005,-1.552,0.014,0.021,85.43,89.8,40.57666,-3.537171,630.3,3,5,113.6,1.055
86.34,1,-0.032,-0.026,-0.005,-0.036,-0.023,0.001,-1.552,0.015,0.021,85.43,89.8,40.57666,-3.537171,630.3,3,5,113.6,1.055
86.54,1,0.058,0.026,0.032,0.018,0.007,0.009,-1.554,0.011,0.018,85.43,89.8,40.57666,-3.537171,630.3,3,5,113.6,1.055
86.64,1,0.001,-0.006,-0.013,0.014,0.008,0.005,-1.557,0.004,0.017,85.43,89.8,40.57666,-3.537171,630.3,3,5,113.6,1.055
86.74,1,-0.041,-0.012,0.002,-0.006,0.002,-0.001,-1.556,0.008,0.016,85.43,89.8,40.57666,-3.537171,630.3,3,5,113.6,1.055
86.85,1,-0.03,-0.008,-0.019,-0.027,-0.009,-0.007,-1.559,0.003,0.015,85.43,89.8,40.57666,-3.537171,630.3,3,5,113.6,1.055
86.95,1,-0.005,0.024,0.006,-0.02,0.002,-0.004,-1.561,0.001,0.013,85.43,89.8,40.57666,-3.537171,630.3,3,5,113.6,1.055
87.04,1,-0.029,0.057,0.014,-0.017,0.026,0.001,-1.56,-0.007,0.011,86.41,89.8,40.576572,-3.536896,631.1,3,5,113.2,0.703
87.14,1,-0.011,0.024,-0.012,-0.018,0.036,0.0,-1.561,-0.011,0.008,86.41,89.8,40.576572,-3.536896,631.1,3,5,113.2,0.703
87.24,1,-0.023,0.031,0.021,-0.02,0.039,0.015,-1.561,-0.01,0.006,86.41,89.8,40.576572,-3.536896,631.1,3,5,113.2,0.703
87.34,1,-0.059,0.022,-0.001,-0.036,0.026,0.005,-1.561,-0.007,0.004,86.41,89.8,40.576572,-3.536896,631.1,3,5,113.2,0.703
87.44,1,-0.021,0.021,0.019,-0.038,0.02,0.011,-1.566,-0.009,0.002,86.41,89.8,40.576572,-3.536896,631.1,3,5,113.2,0.703
87.54,1,-0.011,0.012,0.012,-0.016,0.018,0.013,-1.566,-0.015,-0.001,86.41,89.8,40.576572,-3.536896,631.1,3,5,113.2,0.703
87.64,1,-0.052,0.052,-0.034,-0.031,0.033,-0.004,-1.567,-0.022,-0.003,86.41,89.8,40.576572,-3.536896,631.1,3,5,113.2,0.703
87.74,1,-0.015,0.028,0.004,-0.041,0.04,-0.014,-1.569,-0.024,-0.007,86.41,89.8,40.576572,-3.536896,631.1,3,5,113.2,0.703
87.84,1,0.045,0.056,0.024,0.014,0.042,0.011,-1.569,-0.024,-0.01,86.41,89.8,40.576572,-3.536896,631.1,3,5,113.2,0.703
87.94,1,-0.018,0.01,0.002,-0.004,0.024,0.004,-1.558,-0.022,-0.013,86.41,89.8,40.576572,-3.536896,631.1,3,5,113.2,0.703
88.05,1,0.014,0.031,-0.015,0.007,0.027,-0.001,-1.558,-0.025,-0.017,87.48,90.1,40.576481,-3.536619,631.5,3,5,113.6,0.352
88.16,1,0.034,0.02,0.015,0.027,0.024,0.009,-1.557,-0.029,-0.021,87.48,90.1,40.576481,-3.536619,631.5,3,5,113.6,0.352
88.24,1,-0.037,0.019,0.004,-0.001,0.026,0.005,-1.56,-0.037,-0.025,87.48,90.1,40.576481,-3.536619,631.5,3,5,113.6,0.352
88.34,1,-0.035,0.04,0.003,-0.025,0.035,-0.002,-1.562,-0.039,-0.029,87.48,90.1,40.576481,-3.536619,631.5,3,5,113.6,0.352
88.44,1,-0.009,0.015,0.005,-0.02,0.021,-0.002,-1.562,-0.039,-0.033,87.48,90.1,40.576481,-3.536619,631.5,3,5,113.6,0.352
88.55,1,-0.037,0.019,-0.044,-0.03,0.022,-0.008,-1.562,-0.039,-0.037,87.48,90.1,40.576481,-3.536619,631.5,3,5,113.6,0.352
88.64,1,-0.018,0.027,0.003,-0.029,0.026,-0.015,-1.562,-0.039,-0.041,87.48,90.1,40.576481,-3.536619,631.5,3,5,113.6,0.352
88.75,1,-0.009,0.026,-0.009,-0.01,0.02,-0.007,-1.561,-0.041,-0.045,87.48,90.1,40.576481,-3.536619,631.5,3,5,113.6,0.352
88.85,1,0.011,0.024,0.013,0.004,0.023,0.004,-1.561,-0.042,-0.05,87.48,90.1,40.576481,-3.536619,631.5,3,5,113.6,0.352
88.94,1,0.059,0.045,-0.002,0.026,0.025,0.004,-1.559,-0.046,-0.054,87.48,90.1,40.576481,-3.536619,631.5,3,5,113.6,0.352
89.05,1,-0.023,0.019,0.005,0.014,0.031,0.001,-1.559,-0.045,-0.058,88.43,88.5,40.576385,-3.536355,631.7,3,5,114.6,1.406
89.15,1,-0.041,-0.014,0.001,-0.025,0.011,-0.0,-1.559,-0.044,-0.061,88.43,88.5,40.576385,-3.536355,631.7,3,5,114.6,1.406
89.25,1,-0.014,0.005,-0.011,-0.019,0.012,-0.001,-1.559,-0.048,-0.065,88.43,88.5,40.576385,-3.536355,631.7,3,5,114.6,1.406
89.36,1,-0.048,0.004,0.031,-0.034,0.003,0.007,-1.559,-0.053,-0.068,88.43,88.5,40.576385,-3.536355,631.7,3,5,114.6,1.406
89.45,1,-0.001,-0.033,0.0,-0.021,-0.014,0.011,-1.56,-0.051,-0.071,88.43,88.5,40.576385,-3.536355,631.7,3,5,114.6,1.406
89.55,1,-0.008,-0.04,0.006,-0.012,-0.028,0.007,-1.562,-0.049,-0.073,88.43,88.5,40.576385,-3.536355,631.7,3,5,114.6,1.406
89.65,1,-0.023,-0.022,-0.001,-0.024,-0.026,-0.006,-1.565,-0.045,-0.076,88.43,88.5,40.576385,-3.536355,631.7,3,5,114.6,1.406
89.75,1,-0.048,-0.019,0.028,-0.021,-0.027,0.015,-1.567,-0.042,-0.078,88.43,88.5,40.576385,-3.536355,631.7,3,5,114.6,1.406
89.85,1,-0.09,-0.041,-0.044,-0.06,-0.02,-0.007,-1.565,-0.041,-0.08,88.43,88.5,40.576385,-3.536355,631.7,3,5,114.6,1.406
89.96,1,-0.025,-0.055,0.024,-0.055,-0.043,-0.002,-1.565,-0.04,-0.081,88.43,88.5,40.576385,-3.536355,631.7,3,5,114.6,1.406
90.06,1,0.052,-0.031,-0.008,-0.004,-0.045,0.006,-1.565,-0.039,-0.082,89.43,89.2,40.576294,-3.536084,632.5,3,5,116.0,2.461
90.15,1,-0.03,-0.055,-0.003,0.001,-0.044,-0.002,-1.564,-0.038,-0.083,89.43,89.2,40.576294,-3.536084,632.5,3,5,116.0,2.461
90.25,1,-0.017,-0.069,-0.026,-0.015,-0.062,-0.012,-1.563,-0.036,-0.085,89.43,89.2,40.576294,-3.536084,632.5,3,5,116.0,2.461
90.35,1,-0.042,-0.034,-0.011,-0.024,-0.056,-0.018,-1.563,-0.036,-0.086,89.43,89.2,40.576294,-3.536084,632.5,3,5,116.0,2.461
90.45,1,-0.013,-0.012,-0.024,-0.03,-0.034,-0.014,-1.562,-0.031,-0.088,89.43,89.2,40.576294,-3.536084,632.5,3,5,116.0,2.461
90.55,1,0.004,-0.028,0.0,-0.005,-0.027,-0.011,-1.561,-0.031,-0.089,89.43,89.2,40.576294,-3.536084,632.5,3,5,116.0,2.461
90.65,1,-0.004,-0.033,-0.015,-0.008,-0.025,-0.012,-1.562,-0.029,-0.091,89.43,89.2,40.576294,-3.536084,632.5,3,5,116.0,2.461
90.75,1,0.012,-0.058,-0.009,0.006,-0.035,-0.015,-1.562,-0.028,-0.092,89.43,89.2,40.576294,-3.536084,632.5,3,5,116.0,2.461
90.85,1,0.02,-0.074,-0.043,0.005,-0.056,-0.018,-1.561,-0.02,-0.093,89.43,89.2,40.576294,-3.536084,632.5,3,5,116.0,2.461
90.95,1,-0.049,-0.055,0.002,-0.006,-0.061,-0.017,-1.56,-0.015,-0.094,89.43,89.2,40.576294,-3.536084,632.5,3,5,116.0,2.461
91.05,1,-0.099,-0.062,0.006,-0.061,-0.065,-0.009,-1.558,-0.01,-0.095,90.42,89.7,40.576183,-3.535814,632.4,3,5,117.4,2.812
91.15,1,0.014,-0.056,-0.004,-0.04,-0.061,-0.001,-1.562,-0.011,-0.096,90.42,89.7,40.576183,-3.535814,632.4,3,5,117.4,2.812
91.25,1,-0.051,-0.031,-0.009,-0.021,-0.042,-0.005,-1.561,-0.011,-0.097,90.42,89.7,40.576183,-3.535814,632.4,3,5,117.4,2.812
91.35,1,-0.051,-0.04,-0.023,-0.043,-0.042,-0.015,-1.558,-0.004,-0.098,90.42,89.7,40.576183,-3.535814,632.4,3,5,117.4,2.812
91.45,1,0.038,-0.027,0.015,-0.018,-0.035,-0.0,-1.557,0.004,-0.099,90.42,89.7,40.576183,-3.535814,632.4,3,5,117.4,2.812
91.55,1,-0.049,-0.013,0.005,-0.015,-0.023,0.01,-1.552,0.006,-0.1,90.42,89.7,40.576183,-3.535814,632.4,3,5,117.4,2.812
91.65,1,-0.032,-0.006,-0.012,-0.026,-0.014,-0.009,-1.547,0.01,-0.101,90.42,89.7,40.576183,-3.535814,632.4,3,5,117.4,2.812
91.76,1,0.025,0.002,0.009,-0.015,-0.006,-0.01,-1.547,0.013,-0.102,90.42,89.7,40.576183,-3.535814,632.4,3,5,117.4,2.812
91.86,1,-0.011,-0.035,0.014,-0.001,-0.013,0.017,-1.547,0.013,-0.102,90.42,89.7,40.576183,-3.535814,632.4,3,5,117.4,2.812
91.96,1,0.049,-0.038,0.034,0.021,-0.031,0.024,-1.546,0.014,-0.102,90.42,89.7,40.576183,-3.535814,632.4,3,5,117.4,2.812
92.05,1,-0.007,-0.024,0.0,0.018,-0.029,0.012,-1.545,0.014,-0.102,91.43,89.1,40.576084,-3.535553,633.1,3,5,117.8,1.758
92.15,1,-0.067,-0.02,-0.005,-0.022,-0.024,0.002,-1.545,0.013,-0.102,91.43,89.1,40.576084,-3.535553,633.1,3,5,117.8,1.758
92.25,1,-0.008,-0.056,-0.01,-0.033,-0.039,-0.005,-1.547,0.014,-0.102,91.43,89.1,40.576084,-3.535553,633.1,3,5,117.8,1.758
92.35,1,0.001,0.007,0.009,-0.01,-0.023,0.0,-1.551,0.016,-0.102,91.43,89.1,40.576084,-3.535553,633.1,3,5,117.8,1.758
92.46,1,-0.002,-0.037,-0.011,-0.008,-0.021,-0.003,-1.552,0.026,-0.102,91.43,89.1,40.576084,-3.535553,633.1,3,5,117.8,1.758
92.55,1,0.002,-0.008,-0.004,-0.007,-0.018,-0.005,-1.554,0.03,-0.102,91.43,89.1,40.576084,-3.535553,633.1,3,5,117.8,1.758
92.66,1,0.028,-0.009,-0.002,0.019,-0.012,0.001,-1.555,0.029,-0.102,91.43,89.1,40.576084,-3.535553,633.1,3,5,117.8,1.758
92.75,1,-0.07,0.004,-0.001,-0.02,-0.006,-0.016,-1.549,0.026,-0.103,91.43,89.1,40.576084,-3.535553,633.1,3,5,117.8,1.758
92.86,1,-0.041,0.044,0.037,-0.04,0.018,0.017,-1.545,0.024,-0.105,91.43,89.1,40.576084,-3.535553,633.1,3,5,117.8,1.758
92.96,1,-0.065,0.03,0.011,-0.05,0.033,0.022,-1.544,0.024,-0.106,91.43,89.1,40.576084,-3.535553,633.1,3,5,117.8,1.758
93.06,1,-0.03,0.011,-0.011,-0.045,0.02,0.01,-1.544,0.025,-0.107,92.46,88.0,40.575974,-3.535297,633.9,3,5,117.8,0.352
93.16,1,-0.006,0.011,0.001,-0.035,0.01,-0.005,-1.543,0.025,-0.109,92.46,88.0,40.575974,-3.535297,633.9,3,5,117.8,0.352
93.26,1,-0.017,0.013,0.025,-0.009,0.008,0.017,-1.547,0.019,-0.11,92.46,88.0,40.575974,-3.535297,633.9,3,5,117.8,0.352
93.36,1,-0.036,0.012,0.004,-0.028,0.02,0.014,-1.549,0.016,-0.111,92.46,88.0,40.575974,-3.535297,633.9,3,5,117.8,0.352
93.46,1,0.01,0.032,0.048,-0.017,0.027,0.026,-1.545,0.021,-0.113,92.46,88.0,40.575974,-3.535297,633.9,3,5,117.8,0.352
93.56,1,0.017,0.022,0.011,0.015,0.019,0.022,-1.546,0.019,-0.114,92.46,88.0,40.575974,-3.535297,633.9,3,5,117.8,0.352
93.67,1,0.002,-0.004,-0.008,0.006,0.012,0.009,-1.545,0.018,-0.116,92.46,88.0,40.575974,-3.535297,633.9,3,5,117.8,0.352
93.76,1,-0.011,0.036,0.033,-0.005,0.011,0.01,-1.545,0.017,-0.117,92.46,88.0,40.575974,-3.535297,633.9,3,5,117.8,0.352
93.86,1,-0.008,-0.031,0.041,-0.006,0.007,0.024,-1.545,0.017,-0.118,92.46,88.0,40.575974,-3.535297,633.9,3,5,117.8,0.352
93.96,1,-0.016,0.021,0.038,-0.007,-0.001,0.037,-1.544,0.017,-0.119,92.46,88.0,40.575974,-3.535297,633.9,3,5,117.8,0.352
94.06,1,-0.036,-0.007,-0.007,-0.025,-0.002,0.016,-1.543,0.017,-0.12,93.44,87.7,40.575874,-3.535042,634.8,4,5,117.8,0.0
94.17,1,-0.031,0.002,0.012,-0.03,0.008,0.015,-1.545,0.021,-0.121,93.44,87.7,40.575874,-3.535042,634.8,4,5,117.8,0.0
94.26,1,-0.029,-0.006,0.004,-0.036,-0.005,0.008,-1.544,0.02,-0.123,93.44,87.7,40.575874,-3.535042,634.8,4,5,117.8,0.0
94.37,1,-0.019,0.014,0.014,-0.016,0.003,0.012,-1.547,0.019,-0.124,93.44,87.7,40.575874,-3.535042,634.8,4,5,117.8,0.0
94.46,1,-0.019,0.041,0.025,-0.023,0.026,0.012,-1.548,0.016,-0.125,93.44,87.7,40.575874,-3.535042,634.8,4,5,117.8,0.0
94.56,1,-0.016,0.045,-0.016,-0.022,0.035,0.012,-1.55,0.015,-0.127,93.44,87.7,40.575874,-3.535042,634.8,4,5,117.8,0.0
94.66,1,-0.007,0.044,0.009,-0.016,0.042,0.003,-1.549,0.014,-0.128,93.44,87.7,40.575874,-3.535042,634.8,4,5,117.8,0.0
94.77,1,0.032,0.047,0.027,0.007,0.042,0.009,-1.547,0.01,-0.13,93.44,87.7,40.575874,-3.535042,634.8,4,5,117.8,0.0
94.86,1,-0.058,0.023,0.035,0.003,0.037,0.026,-1.547,0.006,-0.133,93.44,87.7,40.575874,-3.535042,634.8,4,5,117.8,0.0
94.96,1,-0.039,0.041,0.004,-0.04,0.034,0.018,-1.544,0.004,-0.135,93.44,87.7,40.575874,-3.535042,634.8,4,5,117.8,0.0
95.06,1,-0.071,0.06,0.008,-0.055,0.043,0.013,-1.544,-0.002,-0.138,94.43,86.6,40.575764,-3.534788,635.2,4,5,119.5,1.758
95.16,1,-0.009,0.033,0.027,-0.039,0.046,0.015,-1.545,-0.005,-0.141,94.43,86.6,40.575764,-3.534788,635.2,4,5,119.5,1.758
95.27,1,-0.028,0.011,-0.005,-0.025,0.031,0.01,-1.544,-0.002,-0.143,94.43,86.6,40.575764,-3.534788,635.2,4,5,119.5,1.758
95.36,1,-0.02,0.013,0.013,-0.039,0.021,0.006,-1.542,-0.004,-0.146,94.43,86.6,40.575764,-3.534788,635.2,4,5,119.5,1.758
95.46,1,-0.013,0.0,0.004,-0.015,0.011,0.014,-1.541,-0.003,-0.148,94.43,86.6,40.575764,-3.534788,635.2,4,5,119.5,1.758
95.57,1,0.02,0.04,0.01,-0.003,0.015,0.005,-1.543,-0.005,-0.151,94.43,86.6,40.575764,-3.534788,635.2,4,5,119.5,1.758
95.66,1,-0.047,0.005,0.021,-0.012,0.015,0.012,-1.544,-0.004,-0.153,94.43,86.6,40.575764,-3.534788,635.2,4,5,119.5,1.758
95.76,1,-0.027,0.006,-0.002,-0.025,0.012,0.011,-1.548,-0.006,-0.154,94.43,86.6,40.575764,-3.534788,635.2,4,5,119.5,1.758
95.86,1,0.046,-0.016,-0.004,0.004,-0.002,-0.001,-1.553,-0.007,-0.155,94.43,86.6,40.575764,-3.534788,635.2,4,5,119.5,1.758
95.96,1,0.026,0.002,0.018,0.023,-0.002,0.007,-1.551,-0.006,-0.156,94.43,86.6,40.575764,-3.534788,635.2,4,5,119.5,1.758
96.07,1,-0.004,0.018,0.022,0.014,0.007,0.016,-1.551,-0.004,-0.158,95.41,86.0,40.575649,-3.534536,635.1,4,5,118.5,1.055
96.16,1,0.007,-0.002,0.004,0.003,0.003,0.015,-1.551,-0.004,-0.159,95.41,86.0,40.575649,-3.534536,635.1,4,5,118.5,1.055
96.26,1,-0.034,0.01,-0.008,-0.005,0.005,-0.003,-1.547,-0.001,-0.161,95.41,86.0,40.575649,-3.534536,635.1,4,5,118.5,1.055
96.36,1,-0.083,-0.008,0.016,-0.047,0.003,0.009,-1.547,0.002,-0.161,95.41,86.0,40.575649,-3.534536,635.1,4,5,118.5,1.055
96.46,1,-0.039,-0.004,0.024,-0.052,-0.001,0.017,-1.553,-0.0,-0.162,95.41,86.0,40.575649,-3.534536,635.1,4,5,118.5,1.055
96.56,1,0.008,0.009,0.025,-0.024,0.002,0.02,-1.557,-0.005,-0.163,95.41,86.0,40.575649,-3.534536,635.1,4,5,118.5,1.055
96.66,1,0.004,0.006,0.027,-0.015,0.003,0.023,-1.556,-0.01,-0.164,95.41,86.0,40.575649,-3.534536,635.1,4,5,118.5,1.055
96.78,1,0.01,0.003,0.047,0.005,0.004,0.034,-1.559,-0.01,-0.166,95.41,86.0,40.575649,-3.534536,635.1,4,5,118.5,1.055
96.87,1,0.037,0.008,0.02,0.026,0.008,0.034,-1.561,-0.009,-0.167,95.41,86.0,40.575649,-3.534536,635.1,4,5,118.5,1.055
96.97,1,0.01,0.005,-0.006,0.02,0.003,0.01,-1.561,-0.008,-0.169,95.41,86.0,40.575649,-3.534536,635.1,4,5,118.5,1.055
97.07,1,-0.053,0.024,0.029,-0.015,0.014,0.014,-1.566,-0.011,-0.171,96.44,85.9,40.57555,-3.534278,635.3,4,5,119.9,1.406
97.17,1,-0.003,0.034,0.01,-0.019,0.021,0.019,-1.568,-0.015,-0.173,96.44,85.9,40.57555,-3.534278,635.3,4,5,119.9,1.406
97.27,1,0.016,0.034,0.005,-0.003,0.038,0.007,-1.563,-0.018,-0.175,96.44,85.9,40.57555,-3.534278,635.3,4,5,119.9,1.406
97.37,1,0.053,0.009,0.002,0.027,0.022,0.009,-1.562,-0.023,-0.176,96.44,85.9,40.57555,-3.534278,635.3,4,5,119.9,1.406
97.48,1,-0.084,-0.007,-0.051,0.007,0.009,-0.013,-1.561,-0.022,-0.178,96.44,85.9,40.57555,-3.534278,635.3,4,5,119.9,1.406
97.57,1,-0.123,0.028,0.03,-0.079,0.005,-0.02,-1.567,-0.024,-0.18,96.44,85.9,40.57555,-3.534278,635.3,4,5,119.9,1.406
97.67,1,0.011,-0.013,-0.01,-0.063,0.004,-0.003,-1.57,-0.025,-0.181,96.44,85.9,40.57555,-3.534278,635.3,4,5,119.9,1.406
97.77,1,0.132,-0.002,0.037,0.038,0.003,0.024,-1.568,-0.024,-0.182,96.44,85.9,40.57555,-3.534278,635.3,4,5,119.9,1.406
97.87,1,0.099,-0.012,-0.024,0.097,-0.005,0.008,-1.564,-0.023,-0.183,96.44,85.9,40.57555,-3.534278,635.3,4,5,119.9,1.406
97.98,1,-0.046,-0.052,-0.005,0.028,-0.024,-0.012,-1.563,-0.02,-0.183,96.44,85.9,40.57555,-3.534278,635.3,4,5,119.9,1.406
98.07,1,-0.077,-0.04,0.02,-0.031,-0.044,0.006,-1.564,-0.014,-0.183,97.42,85.5,40.575443,-3.534029,636.4,4,5,120.9,2.461
98.17,1,-0.094,-0.01,0.027,-0.067,-0.026,0.017,-1.562,-0.015,-0.184,97.42,85.5,40.575443,-3.534029,636.4,4,5,120.9,2.461
98.27,1,-0.044,-0.021,0.029,-0.072,-0.022,0.026,-1.56,-0.015,-0.184,97.42,85.5,40.575443,-3.534029,636.4,4,5,120.9,2.461
98.37,1,0.011,-0.023,0.009,-0.03,-0.016,0.02,-1.559,-0.012,-0.183,97.42,85.5,40.575443,-3.534029,636.4,4,5,120.9,2.461
98.48,1,0.003,-0.055,0.02,-0.008,-0.039,0.016,-1.558,-0.008,-0.183,97.42,85.5,40.575443,-3.534029,636.4,4,5,120.9,2.461
98.57,1,0.023,-0.034,0.03,0.013,-0.042,0.018,-1.558,-0.006,-0.184,97.42,85.5,40.575443,-3.534029,636.4,4,5,120.9,2.461
98.68,1,-0.021,0.005,0.014,0.002,-0.021,0.025,-1.562,-0.007,-0.186,97.42,85.5,40.575443,-3.534029,636.4,4,5,120.9,2.461
98.77,1,-0.034,0.058,-0.004,-0.02,0.02,0.012,-1.563,-0.014,-0.187,97.42,85.5,40.575443,-3.534029,636.4,4,5,120.9,2.461
98.87,1,-0.004,0.047,0.015,-0.017,0.04,0.005,-1.562,-0.015,-0.188,97.42,85.5,40.575443,-3.534029,636.4,4,5,120.9,2.461
98.97,1,-0.011,0.008,0.012,-0.008,0.027,0.006,-1.562,-0.013,-0.189,97.42,85.5,40.575443,-3.534029,636.4,4,5,120.9,2.461
99.07,1,-0.02,-0.017,0.01,-0.02,0.007,0.016,-1.56,-0.011,-0.189,98.42,86.2,40.575344,-3.533776,638.9,4,5,121.3,1.406
99.18,1,-0.049,-0.004,-0.002,-0.033,0.002,0.003,-1.564,-0.009,-0.19,98.42,86.2,40.575344,-3.533776,638.9,4,5,121.3,1.406
99.27,1,0.02,0.015,0.01,-0.012,-0.005,0.005,-1.565,-0.008,-0.192,98.42,86.2,40.575344,-3.533776,638.9,4,5,121.3,1.406
99.38,1,0.024,0.028,0.016,0.01,0.016,0.011,-1.565,-0.004,-0.193,98.42,86.2,40.575344,-3.533776,638.9,4,5,121.3,1.406
99.47,1,0.012,0.039,0.019,0.016,0.033,0.015,-1.568,-0.003,-0.195,98.42,86.2,40.575344,-3.533776,638.9,4,5,121.3,1.406
99.58,1,-0.016,0.015,0.02,0.001,0.028,0.018,-1.573,-0.003,-0.195,98.42,86.2,40.575344,-3.533776,638.9,4,5,121.3,1.406
99.67,1,-0.029,-0.019,-0.037,-0.009,0.002,-0.004,-1.575,-0.003,-0.196,98.42,86.2,40.575344,-3.533776,638.9,4,5,121.3,1.406
99.77,1,-0.001,0.002,0.008,-0.017,-0.009,-0.008,-1.576,-0.002,-0.197,98.42,86.2,40.575344,-3.533776,638.9,4,5,121.3,1.406
99.87,1,0.013,-0.004,0.022,0.001,-0.002,0.006,-1.575,-0.003,-0.197,98.42,86.2,40.575344,-3.533776,638.9,4,5,121.3,1.406
99.97,1,-0.032,0.008,0.006,-0.01,0.005,0.014,-1.575,-0.005,-0.198,98.42,86.2,40.575344,-3.533776,638.9,4,5,121.3,1.406
100.07,1,-0.021,-0.002,0.01,-0.024,0.003,0.007,-1.573,-0.004,-0.198,99.45,85.2,40.57523,-3.533532,638.1,4,5,121.6,0.703
100.17,1,0.013,-0.005,-0.022,-0.003,-0.001,-0.007,-1.573,-0.004,-0.199,99.45,85.2,40.57523,-3.533532,638.1,4,5,121.6,0.703
100.28,1,-0.034,-0.004,0.023,-0.007,-0.006,0.003,-1.572,-0.005,-0.199,99.45,85.2,40.57523,-3.533532,638.1,4,5,121.6,0.703
100.38,1,-0.044,0.042,-0.019,-0.036,0.019,0.001,-1.573,-0.006,-0.2,99.45,85.2,40.57523,-3.533532,638.1,4,5,121.6,0.703
100.47,1,-0.035,0.035,0.02,-0.029,0.027,0.004,-1.57,-0.01,-0.201,99.45,85.2,40.57523,-3.533532,638.1,4,5,121.6,0.703
100.58,1,-0.012,0.041,-0.001,-0.027,0.034,0.007,-1.569,-0.014,-0.203,99.45,85.2,40.57523,-3.533532,638.1,4,5,121.6,0.703
100.68,1,-0.038,0.042,-0.0,-0.035,0.037,0.003,-1.567,-0.022,-0.204,99.45,85.2,40.57523,-3.533532,638.1,4,5,121.6,0.703
100.78,1,0.0,0.022,0.008,-0.015,0.033,0.001,-1.569,-0.028,-0.205,99.45,85.2,40.57523,-3.533532,638.1,4,5,121.6,0.703
100.88,1,-0.024,0.008,0.013,-0.018,0.026,0.011,-1.573,-0.033,-0.207,99.45,85.2,40.57523,-3.533532,638.1,4,5,121.6,0.703
100.98,1,0.003,0.003,0.019,-0.009,0.011,0.012,-1.573,-0.035,-0.208,99.45,85.2,40.57523,-3.533532,638.1,4,5,121.6,0.703
101.08,1,0.039,-0.02,0.022,0.006,-0.005,0.021,-1.572,-0.034,-0.21,100.41,85.4,40.575119,-3.533283,638.0,4,5,122.3,1.055
101.18,1,0.022,0.011,0.007,0.026,-0.006,0.017,-1.572,-0.038,-0.213,100.41,85.4,40.575119,-3.533283,638.0,4,5,122.3,1.055
101.28,1,-0.035,0.049,-0.026,0.002,0.02,-0.005,-1.574,-0.04,-0.215,100.41,85.4,40.575119,-3.533283,638.0,4,5,122.3,1.055
101.38,1,-0.037,0.041,-0.001,-0.021,0.039,-0.012,-1.57,-0.04,-0.217,100.41,85.4,40.575119,-3.533283,638.0,4,5,122.3,1.055
101.48,1,-0.024,-0.004,0.015,-0.03,0.022,0.005,-1.567,-0.039,-0.219,100.41,85.4,40.575119,-3.533283,638.0,4,5,122.3,1.055
101.58,1,-0.052,0.004,0.019,-0.03,0.008,0.017,-1.568,-0.04,-0.221,100.41,85.4,40.575119,-3.533283,638.0,4,5,122.3,1.055
101.68,1,-0.073,-0.014,-0.009,-0.064,-0.004,0.001,-1.568,-0.04,-0.223,100.41,85.4,40.575119,-3.533283,638.0,4,5,122.3,1.055
101.78,1,0.051,0.029,0.012,-0.017,0.005,0.001,-1.568,-0.04,-0.226,100.41,85.4,40.575119,-3.533283,638.0,4,5,122.3,1.055
101.88,1,0.007,0.039,-0.025,0.001,0.03,-0.006,-1.566,-0.042,-0.228,100.41,85.4,40.575119,-3.533283,638.0,4,5,122.3,1.055
101.98,1,0.043,0.044,0.014,0.028,0.036,0.001,-1.566,-0.048,-0.23,100.41,85.4,40.575119,-3.533283,638.0,4,5,122.3,1.055
102.08,1,-0.033,0.017,-0.013,0.002,0.029,-0.001,-1.568,-0.049,-0.232,101.42,85.6,40.575001,-3.533049,638.3,4,5,123.4,1.758
102.18,1,-0.044,-0.025,0.002,-0.033,0.008,-0.003,-1.569,-0.047,-0.234,101.42,85.6,40.575001,-3.533049,638.3,4,5,123.4,1.758
102.29,1,-0.026,-0.028,0.024,-0.025,-0.015,0.007,-1.569,-0.047,-0.235,101.42,85.6,40.575001,-3.533049,638.3,4,5,123.4,1.758
102.38,1,0.01,-0.011,0.02,0.003,-0.018,0.019,-1.569,-0.045,-0.237,101.42,85.6,40.575001,-3.533049,638.3,4,5,123.4,1.758
102.49,1,-0.057,-0.011,0.008,-0.03,-0.01,0.016,-1.572,-0.047,-0.237,101.42,85.6,40.575001,-3.533049,638.3,4,5,123.4,1.758
102.58,1,0.016,-0.029,0.031,-0.017,-0.014,0.015,-1.574,-0.046,-0.238,101.42,85.6,40.575001,-3.533049,638.3,4,5,123.4,1.758
102.68,1,0.033,-0.049,-0.005,0.015,-0.034,0.017,-1.58,-0.046,-0.238,101.42,85.6,40.575001,-3.533049,638.3,4,5,123.4,1.758
102.78,1,-0.004,-0.035,0.012,0.009,-0.042,0.012,-1.58,-0.048,-0.238,101.42,85.6,40.575001,-3.533049,638.3,4,5,123.4,1.758
102.88,1,-0.016,-0.03,0.021,0.002,-0.037,0.019,-1.579,-0.046,-0.238,101.42,85.6,40.575001,-3.533049,638.3,4,5,123.4,1.758
102.98,1,-0.065,-0.041,-0.014,-0.035,-0.036,-0.0,-1.578,-0.04,-0.237,101.42,85.6,40.575001,-3.533049,638.3,4,5,123.4,1.758
103.09,1,0.0,-0.043,0.012,-0.033,-0.039,-0.0,-1.577,-0.036,-0.236,102.42,85.8,40.574883,-3.532813,640.3,4,5,124.8,2.461
103.18,1,0.046,-0.071,0.006,0.012,-0.047,0.003,-1.577,-0.033,-0.234,102.42,85.8,40.574883,-3.532813,640.3,4,5,124.8,2.461
103.28,1,-0.009,-0.061,-0.005,0.01,-0.061,0.008,-1.578,-0.029,-0.233,102.42,85.8,40.574883,-3.532813,640.3,4,5,124.8,2.461
103.38,1,-0.066,-0.052,0.017,-0.022,-0.057,0.007,-1.582,-0.023,-0.232,102.42,85.8,40.574883,-3.532813,640.3,4,5,124.8,2.461
103.49,1,-0.02,-0.075,-0.013,-0.03,-0.069,-0.008,-1.582,-0.021,-0.23,102.42,85.8,40.574883,-3.532813,640.3,4,5,124.8,2.461
103.59,1,0.013,-0.062,0.026,-0.019,-0.067,0.011,-1.582,-0.018,-0.229,102.42,85.8,40.574883,-3.532813,640.3,4,5,124.8,2.461
103.68,1,0.01,-0.038,0.006,0.006,-0.054,0.013,-1.583,-0.016,-0.227,102.42,85.8,40.574883,-3.532813,640.3,4,5,124.8,2.461
103.79,1,0.017,-0.062,-0.006,0.009,-0.051,0.005,-1.579,-0.013,-0.225,102.42,85.8,40.574883,-3.532813,640.3,4,5,124.8,2.461
103.88,1,0.016,-0.076,0.015,0.012,-0.062,0.002,-1.576,-0.009,-0.222,102.42,85.8,40.574883,-3.532813,640.3,4,5,124.8,2.461
103.99,1,0.053,-0.083,0.025,0.031,-0.081,0.009,-1.576,-0.003,-0.219,102.42,85.8,40.574883,-3.532813,640.3,4,5,124.8,2.461
104.09,1,0.02,-0.057,-0.008,0.04,-0.069,0.013,-1.575,-0.002,-0.216,103.42,86.4,40.574753,-3.532583,640.5,4,5,125.9,2.461
104.18,1,-0.053,-0.068,-0.02,-0.004,-0.066,-0.003,-1.576,0.003,-0.213,103.42,86.4,40.574753,-3.532583,640.5,4,5,125.9,2.461
104.3,1,-0.008,-0.055,-0.005,-0.024,-0.06,-0.011,-1.574,0.008,-0.209,103.42,86.4,40.574753,-3.532583,640.5,4,5,125.9,2.461
104.38,1,0.031,-0.066,0.014,0.005,-0.06,0.002,-1.573,0.013,-0.205,103.42,86.4,40.574753,-3.532583,640.5,4,5,125.9,2.461
104.48,1,-0.021,-0.031,-0.012,0.005,-0.051,0.003,-1.576,0.016,-0.201,103.42,86.4,40.574753,-3.532583,640.5,4,5,125.9,2.461
104.59,1,-0.026,-0.051,-0.02,-0.018,-0.044,-0.014,-1.578,0.018,-0.197,103.42,86.4,40.574753,-3.532583,640.5,4,5,125.9,2.461
104.69,1,-0.042,-0.077,-0.016,-0.029,-0.061,-0.014,-1.578,0.024,-0.193,103.42,86.4,40.574753,-3.532583,640.5,4,5,125.9,2.461
104.79,1,-0.027,-0.047,0.002,-0.035,-0.063,-0.012,-1.577,0.027,-0.189,103.42,86.4,40.574753,-3.532583,640.5,4,5,125.9,2.461
104.9,1,-0.01,-0.038,0.004,-0.02,-0.045,-0.001,-1.577,0.028,-0.186,103.42,86.4,40.574753,-3.532583,640.5,4,5,125.9,2.461
105.0,1,-0.005,-0.037,-0.015,-0.007,-0.04,-0.006,-1.575,0.03,-0.182,103.42,86.4,40.574753,-3.532583,640.5,4,5,125.9,2.461
105.09,1,-0.011,-0.051,-0.009,-0.009,-0.043,-0.01,-1.576,0.028,-0.178,104.41,86.3,40.574615,-3.532351,639.5,4,5,125.2,0.703
105.19,1,-0.031,-0.025,0.007,-0.016,-0.042,-0.004,-1.576,0.027,-0.174,104.41,86.3,40.574615,-3.532351,639.5,4,5,125.2,0.703
105.29,1,0.0,-0.042,0.007,-0.017,-0.038,0.005,-1.575,0.031,-0.171,104.41,86.3,40.574615,-3.532351,639.5,4,5,125.2,0.703
105.39,1,-0.009,-0.04,0.006,-0.013,-0.035,0.003,-1.572,0.038,-0.168,104.41,86.3,40.574615,-3.532351,639.5,4,5,125.2,0.703
105.49,1,0.006,-0.004,0.024,-0.005,-0.026,0.019,-1.572,0.045,-0.164,104.41,86.3,40.574615,-3.532351,639.5,4,5,125.2,0.703
105.59,1,0.017,-0.022,0.004,0.013,-0.018,0.01,-1.573,0.05,-0.161,104.41,86.3,40.574615,-3.532351,639.5,4,5,125.2,0.703
105.69,1,0.009,-0.014,0.016,0.009,-0.021,0.009,-1.572,0.053,-0.158,104.41,86.3,40.574615,-3.532351,639.5,4,5,125.2,0.703
105.79,1,-0.026,-0.001,0.037,-0.004,-0.006,0.019,-1.571,0.054,-0.155,104.41,86.3,40.574615,-3.532351,639.5,4,5,125.2,0.703
105.89,1,-0.029,0.001,-0.001,-0.016,-0.007,0.021,-1.573,0.054,-0.153,104.41,86.3,40.574615,-3.532351,639.5,4,5,125.2,0.703
105.99,1,-0.039,0.001,0.01,-0.038,0.002,0.01,-1.572,0.053,-0.151,104.41,86.3,40.574615,-3.532351,639.5,4,5,125.2,0.703
106.09,1,-0.029,0.005,0.021,-0.024,0.001,0.013,-1.574,0.051,-0.148,105.42,85.8,40.574493,-3.532111,639.9,4,5,123.8,2.109
106.19,1,-0.061,0.011,0.012,-0.046,0.001,0.014,-1.575,0.047,-0.146,105.42,85.8,40.574493,-3.532111,639.9,4,5,123.8,2.109
106.29,1,-0.01,0.015,0.037,-0.042,0.01,0.022,-1.579,0.048,-0.144,105.42,85.8,40.574493,-3.532111,639.9,4,5,123.8,2.109
106.39,1,-0.03,0.0,0.036,-0.012,0.012,0.033,-1.578,0.045,-0.142,105.42,85.8,40.574493,-3.532111,639.9,4,5,123.8,2.109
106.49,1,-0.005,0.015,0.047,-0.033,0.009,0.042,-1.578,0.045,-0.139,105.42,85.8,40.574493,-3.532111,639.9,4,5,123.8,2.109
106.6,1,0.028,0.028,0.003,0.003,0.02,0.026,-1.576,0.044,-0.137,105.42,85.8,40.574493,-3.532111,639.9,4,5,123.8,2.109
106.7,1,-0.033,0.028,0.024,0.003,0.022,0.02,-1.577,0.043,-0.135,105.42,85.8,40.574493,-3.532111,639.9,4,5,123.8,2.109
106.79,1,-0.029,0.03,0.036,-0.026,0.03,0.025,-1.578,0.043,-0.133,105.42,85.8,40.574493,-3.532111,639.9,4,5,123.8,2.109
106.89,1,-0.056,0.019,0.016,-0.029,0.025,0.023,-1.583,0.042,-0.131,105.42,85.8,40.574493,-3.532111,639.9,4,5,123.8,2.109
106.99,1,-0.018,0.015,0.024,-0.041,0.019,0.024,-1.586,0.039,-0.129,105.42,85.8,40.574493,-3.532111,639.9,4,5,123.8,2.109
107.09,1,-0.01,0.025,0.025,-0.025,0.021,0.022,-1.589,0.039,-0.127,106.41,85.2,40.574375,-3.531888,639.7,4,5,122.0,3.164
107.19,1,-0.001,0.007,0.023,-0.007,0.017,0.028,-1.589,0.039,-0.125,106.41,85.2,40.574375,-3.531888,639.7,4,5,122.0,3.164
107.29,1,0.05,0.028,0.007,0.012,0.017,0.018,-1.59,0.038,-0.123,106.41,85.2,40.574375,-3.531888,639.7,4,5,122.0,3.164
107.4,1,0.013,0.031,0.024,0.027,0.024,0.014,-1.593,0.037,-0.121,106.41,85.2,40.574375,-3.531888,639.7,4,5,122.0,3.164
107.49,1,-0.041,0.017,0.012,-0.009,0.027,0.018,-1.596,0.036,-0.12,106.41,85.2,40.574375,-3.531888,639.7,4,5,122.0,3.164
107.59,1,-0.019,0.03,0.019,-0.02,0.024,0.014,-1.599,0.035,-0.118,106.41,85.2,40.574375,-3.531888,639.7,4,5,122.0,3.164
107.69,1,0.003,0.031,0.018,-0.01,0.027,0.019,-1.602,0.033,-0.117,106.41,85.2,40.574375,-3.531888,639.7,4,5,122.0,3.164
107.79,1,-0.004,0.017,0.035,-0.002,0.023,0.027,-1.604,0.033,-0.114,106.41,85.2,40.574375,-3.531888,639.7,4,5,122.0,3.164
107.9,1,-0.003,0.012,0.005,0.001,0.02,0.016,-1.608,0.031,-0.112,106.41,85.2,40.574375,-3.531888,639.7,4,5,122.0,3.164
108.0,1,-0.004,-0.0,0.01,-0.008,0.009,0.011,-1.61,0.031,-0.111,106.41,85.2,40.574375,-3.531888,639.7,4,5,122.0,3.164
108.1,1,0.005,0.011,0.048,-0.001,0.007,0.025,-1.609,0.027,-0.11,107.48,85.7,40.574261,-3.531648,640.3,4,5,120.6,3.164
108.19,1,-0.013,0.01,-0.012,0.003,0.011,0.021,-1.608,0.025,-0.109,107.48,85.7,40.574261,-3.531648,640.3,4,5,120.6,3.164
108.29,1,0.006,0.019,0.04,-0.011,0.019,0.016,-1.608,0.023,-0.108,107.48,85.7,40.574261,-3.531648,640.3,4,5,120.6,3.164
108.39,1,0.02,0.065,0.031,0.001,0.028,0.032,-1.613,0.018,-0.107,107.48,85.7,40.574261,-3.531648,640.3,4,5,120.6,3.164
108.5,1,-0.03,0.042,0.006,0.0,0.038,0.021,-1.615,0.018,-0.107,107.48,85.7,40.574261,-3.531648,640.3,4,5,120.6,3.164
108.6,1,-0.052,0.04,-0.028,-0.016,0.044,-0.001,-1.615,0.019,-0.107,107.48,85.7,40.574261,-3.531648,640.3,4,5,120.6,3.164
108.7,1,-0.088,0.056,-0.012,-0.062,0.052,-0.016,-1.615,0.018,-0.108,107.48,85.7,40.574261,-3.531648,640.3,4,5,120.6,3.164
108.8,1,0.001,0.054,0.017,-0.043,0.051,-0.001,-1.616,0.018,-0.108,107.48,85.7,40.574261,-3.531648,640.3,4,5,120.6,3.164
108.9,1,-0.038,0.06,0.004,-0.031,0.057,0.003,-1.616,0.019,-0.108,107.48,85.7,40.574261,-3.531648,640.3,4,5,120.6,3.164
109.0,1,-0.007,0.025,0.009,-0.028,0.047,0.014,-1.617,0.02,-0.107,107.48,85.7,40.574261,-3.531648,640.3,4,5,120.6,3.164
109.1,1,0.045,0.041,0.027,0.012,0.035,0.009,-1.62,0.018,-0.107,108.42,88.0,40.574146,-3.531401,640.8,4,5,120.2,1.758
109.2,1,0.031,0.047,-0.011,0.029,0.04,0.011,-1.625,0.014,-0.107,108.42,88.0,40.574146,-3.531401,640.8,4,5,120.2,1.758
109.3,1,-0.069,0.023,0.005,-0.016,0.041,0.005,-1.627,0.01,-0.107,108.42,88.0,40.574146,-3.531401,640.8,4,5,120.2,1.758
109.4,1,-0.047,-0.03,-0.049,-0.04,-0.001,-0.027,-1.628,0.009,-0.106,108.42,88.0,40.574146,-3.531401,640.8,4,5,120.2,1.758
109.5,1,-0.037,-0.003,-0.024,-0.038,-0.004,-0.024,-1.628,0.009,-0.105,108.42,88.0,40.574146,-3.531401,640.8,4,5,120.2,1.758
109.6,1,-0.007,0.017,0.011,-0.024,0.007,-0.016,-1.627,0.01,-0.104,108.42,88.0,40.574146,-3.531401,640.8,4,5,120.2,1.758
109.7,1,-0.007,0.009,-0.032,-0.012,0.012,-0.008,-1.624,0.01,-0.104,108.42,88.0,40.574146,-3.531401,640.8,4,5,120.2,1.758
109.81,1,-0.044,0.025,0.017,-0.03,0.017,-0.006,-1.628,0.007,-0.103,108.42,88.0,40.574146,-3.531401,640.8,4,5,120.2,1.758
109.91,1,-0.003,-0.009,-0.019,-0.019,0.003,-0.009,-1.63,0.01,-0.102,108.42,88.0,40.574146,-3.531401,640.8,4,5,120.2,1.758
110.0,1,-0.04,-0.01,-0.041,-0.021,-0.001,-0.018,-1.629,0.011,-0.101,108.42,88.0,40.574146,-3.531401,640.8,4,5,120.2,1.758
110.1,1,-0.01,0.005,-0.018,-0.024,-0.0,-0.027,-1.625,0.011,-0.1,109.42,88.8,40.574036,-3.53116,641.9,4,5,120.2,0.352
110.2,1,0.046,0.068,0.018,0.017,0.027,-0.01,-1.626,0.006,-0.099,109.42,88.8,40.574036,-3.53116,641.9,4,5,120.2,0.352
110.3,1,0.045,-0.003,-0.021,0.031,0.018,-0.008,-1.626,0.006,-0.098,109.42,88.8,40.574036,-3.53116,641.9,4,5,120.2,0.352
110.4,1,-0.035,0.006,-0.036,0.008,0.015,-0.012,-1.626,0.006,-0.097,109.42,88.8,40.574036,-3.53116,641.9,4,5,120.2,0.352
110.51,1,-0.01,-0.026,-0.03,-0.015,-0.004,-0.032,-1.625,0.005,-0.096,109.42,88.8,40.574036,-3.53116,641.9,4,5,120.2,0.352
110.6,1,-0.007,-0.009,-0.016,-0.013,-0.011,-0.023,-1.628,0.002,-0.094,109.42,88.8,40.574036,-3.53116,641.9,4,5,120.2,0.352
110.7,1,-0.018,-0.034,-0.034,-0.006,-0.022,-0.027,-1.63,-0.002,-0.093,109.42,88.8,40.574036,-3.53116,641.9,4,5,120.2,0.352
110.8,1,-0.016,-0.064,-0.013,-0.025,-0.04,-0.021,-1.631,-0.0,-0.091,109.42,88.8,40.574036,-3.53116,641.9,4,5,120.2,0.352
110.9,1,-0.027,-0.046,-0.025,-0.024,-0.053,-0.024,-1.629,0.006,-0.089,109.42,88.8,40.574036,-3.53116,641.9,4,5,120.2,0.352
111.0,1,-0.022,-0.05,-0.047,-0.018,-0.05,-0.033,-1.627,0.01,-0.088,109.42,88.8,40.574036,-3.53116,641.9,4,5,120.2,0.352
111.1,1,-0.045,-0.017,-0.033,-0.026,-0.031,-0.036,-1.627,0.01,-0.087,110.43,89.9,40.573917,-3.530913,642.2,4,5,119.9,0.352
111.21,1,-0.01,-0.014,0.004,-0.023,-0.021,-0.02,-1.626,0.012,-0.085,110.43,89.9,40.573917,-3.530913,642.2,4,5,119.9,0.352
111.3,1,-0.016,0.014,-0.022,-0.021,-0.007,-0.015,-1.625,0.012,-0.084,110.43,89.9,40.573917,-3.530913,642.2,4,5,119.9,0.352
111.4,1,-0.007,-0.051,0.002,-0.014,-0.018,-0.011,-1.625,0.013,-0.083,110.43,89.9,40.573917,-3.530913,642.2,4,5,119.9,0.352
111.5,1,-0.008,0.007,-0.03,-0.013,-0.018,-0.012,-1.626,0.013,-0.081,110.43,89.9,40.573917,-3.530913,642.2,4,5,119.9,0.352
111.6,1,0.018,-0.028,0.002,0.003,-0.015,-0.013,-1.626,0.014,-0.08,110.43,89.9,40.573917,-3.530913,642.2,4,5,119.9,0.352
111.7,1,-0.028,-0.015,-0.009,-0.002,-0.013,-0.008,-1.627,0.02,-0.079,110.43,89.9,40.573917,-3.530913,642.2,4,5,119.9,0.352
111.8,1,-0.02,0.022,-0.02,-0.022,-0.007,-0.014,-1.628,0.027,-0.078,110.43,89.9,40.573917,-3.530913,642.2,4,5,119.9,0.352
111.91,1,0.013,0.012,-0.033,-0.003,0.011,-0.023,-1.628,0.025,-0.077,110.43,89.9,40.573917,-3.530913,642.2,4,5,119.9,0.352
112.0,1,-0.013,0.038,-0.003,-0.006,0.022,-0.018,-1.628,0.023,-0.076,110.43,89.9,40.573917,-3.530913,642.2,4,5,119.9,0.352
112.11,1,0.006,0.016,-0.033,0.003,0.02,-0.018,-1.629,0.021,-0.074,111.49,91.4,40.573811,-3.530664,643.6,3,5,118.8,1.406
112.21,1,0.025,0.013,-0.012,0.009,0.019,-0.022,-1.626,0.02,-0.073,111.49,91.4,40.573811,-3.530664,643.6,3,5,118.8,1.406
112.3,1,-0.012,-0.004,-0.024,0.02,0.014,-0.016,-1.624,0.019,-0.073,111.49,91.4,40.573811,-3.530664,643.6,3,5,118.8,1.406
112.42,1,-0.05,0.026,-0.047,-0.029,0.008,-0.036,-1.621,0.014,-0.072,111.49,91.4,40.573811,-3.530664,643.6,3,5,118.8,1.406
112.51,1,-0.038,-0.001,-0.011,-0.038,0.013,-0.026,-1.619,0.006,-0.071,111.49,91.4,40.573811,-3.530664,643.6,3,5,118.8,1.406
112.61,1,-0.003,0.014,-0.049,-0.02,0.011,-0.036,-1.62,0.006,-0.071,111.49,91.4,40.573811,-3.530664,643.6,3,5,118.8,1.406
112.71,1,-0.021,0.011,-0.003,-0.024,0.009,-0.022,-1.621,0.006,-0.07,111.49,91.4,40.573811,-3.530664,643.6,3,5,118.8,1.406
112.81,1,0.004,-0.021,-0.009,-0.013,-0.003,-0.01,-1.623,0.006,-0.069,111.49,91.4,40.573811,-3.530664,643.6,3,5,118.8,1.406
112.91,1,0.02,-0.003,-0.034,0.012,-0.006,-0.022,-1.623,0.003,-0.069,111.49,91.4,40.573811,-3.530664,643.6,3,5,118.8,1.406
113.02,1,-0.005,-0.017,0.002,0.004,-0.006,-0.015,-1.62,0.005,-0.068,111.49,91.4,40.573811,-3.530664,643.6,3,5,118.8,1.406
113.11,1,-0.015,-0.049,-0.013,-0.007,-0.033,-0.008,-1.621,0.007,-0.066,112.45,92.8,40.573696,-3.530392,643.6,3,5,118.1,1.758
113.21,1,-0.041,-0.044,-0.004,-0.023,-0.042,-0.013,-1.621,0.007,-0.064,112.45,92.8,40.573696,-3.530392,643.6,3,5,118.1,1.758
113.31,1,-0.031,-0.061,-0.024,-0.028,-0.052,-0.011,-1.618,0.015,-0.062,112.45,92.8,40.573696,-3.530392,643.6,3,5,118.1,1.758
113.41,1,-0.012,-0.039,-0.01,-0.025,-0.047,-0.018,-1.619,0.016,-0.06,112.45,92.8,40.573696,-3.530392,643.6,3,5,118.1,1.758
113.51,1,-0.008,-0.013,-0.002,-0.018,-0.031,-0.005,-1.62,0.015,-0.058,112.45,92.8,40.573696,-3.530392,643.6,3,5,118.1,1.758
113.61,1,-0.019,-0.01,-0.007,-0.015,-0.019,-0.005,-1.622,0.013,-0.057,112.45,92.8,40.573696,-3.530392,643.6,3,5,118.1,1.758
113.71,1,0.026,-0.008,-0.043,0.006,-0.013,-0.021,-1.624,0.012,-0.056,112.45,92.8,40.573696,-3.530392,643.6,3,5,118.1,1.758
113.81,1,-0.027,-0.021,-0.029,-0.003,-0.007,-0.028,-1.626,0.01,-0.054,112.45,92.8,40.573696,-3.530392,643.6,3,5,118.1,1.758
113.91,1,-0.055,-0.022,-0.021,-0.032,-0.022,-0.03,-1.629,0.013,-0.053,112.45,92.8,40.573696,-3.530392,643.6,3,5,118.1,1.758
114.01,1,-0.018,-0.01,-0.039,-0.027,-0.019,-0.026,-1.63,0.015,-0.051,112.45,92.8,40.573696,-3.530392,643.6,3,5,118.1,1.758
114.12,1,-0.032,-0.016,-0.02,-0.034,-0.01,-0.033,-1.629,0.016,-0.051,113.42,94.1,40.573582,-3.530127,646.6,3,5,117.8,1.055
114.21,1,0.047,0.018,-0.052,-0.01,-0.008,-0.034,-1.625,0.022,-0.05,113.42,94.1,40.573582,-3.530127,646.6,3,5,117.8,1.055
114.32,1,-0.035,0.011,-0.045,-0.001,0.01,-0.034,-1.625,0.023,-0.048,113.42,94.1,40.573582,-3.530127,646.6,3,5,117.8,1.055
114.41,1,0.002,-0.01,-0.031,-0.005,0.0,-0.043,-1.624,0.024,-0.047,113.42,94.1,40.573582,-3.530127,646.6,3,5,117.8,1.055
114.51,1,0.001,-0.029,-0.051,0.004,-0.015,-0.044,-1.624,0.024,-0.046,113.42,94.1,40.573582,-3.530127,646.6,3,5,117.8,1.055
114.61,1,-0.043,-0.002,-0.054,-0.019,-0.008,-0.051,-1.621,0.027,-0.045,113.42,94.1,40.573582,-3.530127,646.6,3,5,117.8,1.055
114.71,1,-0.046,-0.021,-0.06,-0.033,-0.015,-0.055,-1.613,0.032,-0.043,113.42,94.1,40.573582,-3.530127,646.6,3,5,117.8,1.055
114.82,1,-0.003,-0.01,-0.014,-0.027,-0.015,-0.039,-1.611,0.033,-0.041,113.42,94.1,40.573582,-3.530127,646.6,3,5,117.8,1.055
114.91,1,-0.004,0.017,-0.027,-0.01,-0.0,-0.025,-1.604,0.039,-0.039,113.42,94.1,40.573582,-3.530127,646.6,3,5,117.8,1.055
115.01,1,-0.001,-0.026,-0.04,-0.009,-0.005,-0.037,-1.605,0.042,-0.037,113.42,94.1,40.573582,-3.530127,646.6,3,5,117.8,1.055
115.11,1,0.016,-0.03,-0.028,0.007,-0.02,-0.034,-1.602,0.045,-0.035,114.42,94.5,40.573479,-3.529852,645.3,3,5,116.4,1.758
115.21,1,-0.02,-0.0,-0.001,0.001,-0.021,-0.019,-1.595,0.048,-0.034,114.42,94.5,40.573479,-3.529852,645.3,3,5,116.4,1.758
115.31,1,-0.037,-0.008,-0.03,-0.021,-0.003,-0.022,-1.595,0.049,-0.032,114.42,94.5,40.573479,-3.529852,645.3,3,5,116.4,1.758
115.42,1,-0.011,-0.009,-0.04,-0.025,-0.009,-0.026,-1.592,0.052,-0.03,114.42,94.5,40.573479,-3.529852,645.3,3,5,116.4,1.758
115.52,1,0.006,0.02,-0.015,-0.004,0.005,-0.027,-1.592,0.054,-0.028,114.42,94.5,40.573479,-3.529852,645.3,3,5,116.4,1.758
115.62,1,0.002,-0.013,-0.039,0.0,-0.002,-0.028,-1.589,0.053,-0.026,114.42,94.5,40.573479,-3.529852,645.3,3,5,116.4,1.758
115.72,1,-0.053,-0.016,-0.034,-0.022,-0.016,-0.032,-1.587,0.05,-0.024,114.42,94.5,40.573479,-3.529852,645.3,3,5,116.4,1.758
115.82,1,-0.016,-0.003,-0.014,-0.033,-0.006,-0.029,-1.586,0.049,-0.023,114.42,94.5,40.573479,-3.529852,645.3,3,5,116.4,1.758
115.92,1,0.008,-0.017,0.003,0.0,-0.011,-0.011,-1.585,0.041,-0.021,114.42,94.5,40.573479,-3.529852,645.3,3,5,116.4,1.758
116.01,1,0.01,-0.015,-0.013,-0.004,-0.015,-0.01,-1.584,0.039,-0.019,114.42,94.5,40.573479,-3.529852,645.3,3,5,116.4,1.758
116.12,1,-0.041,0.014,-0.04,-0.013,-0.0,-0.016,-1.582,0.036,-0.018,115.41,94.5,40.573364,-3.529562,647.0,3,5,115.3,2.461
116.22,1,0.005,-0.008,-0.013,-0.012,-0.001,-0.026,-1.581,0.039,-0.017,115.41,94.5,40.573364,-3.529562,647.0,3,5,115.3,2.461
116.32,1,-0.027,-0.0,-0.03,-0.011,-0.001,-0.026,-1.584,0.039,-0.016,115.41,94.5,40.573364,-3.529562,647.0,3,5,115.3,2.461
116.42,1,-0.019,0.017,-0.01,-0.019,0.003,-0.019,-1.586,0.038,-0.014,115.41,94.5,40.573364,-3.529562,647.0,3,5,115.3,2.461
116.52,1,-0.037,-0.001,-0.009,-0.028,0.007,-0.011,-1.587,0.037,-0.013,115.41,94.5,40.573364,-3.529562,647.0,3,5,115.3,2.461
116.62,1,0.002,-0.035,0.006,-0.025,-0.012,-0.007,-1.588,0.042,-0.011,115.41,94.5,40.573364,-3.529562,647.0,3,5,115.3,2.461
116.73,1,0.018,0.014,-0.012,0.006,-0.003,-0.003,-1.585,0.038,-0.009,115.41,94.5,40.573364,-3.529562,647.0,3,5,115.3,2.461
116.82,1,0.004,-0.003,-0.014,0.011,-0.002,-0.01,-1.584,0.036,-0.008,115.41,94.5,40.573364,-3.529562,647.0,3,5,115.3,2.461
116.92,1,0.016,0.024,-0.007,0.007,0.009,-0.01,-1.582,0.035,-0.007,115.41,94.5,40.573364,-3.529562,647.0,3,5,115.3,2.461
117.02,1,0.006,0.017,-0.013,0.017,0.017,-0.006,-1.579,0.035,-0.006,115.41,94.5,40.573364,-3.529562,647.0,3,5,115.3,2.461
117.12,1,-0.027,-0.005,-0.012,-0.007,0.008,-0.012,-1.581,0.031,-0.005,116.44,94.2,40.573277,-3.529272,647.6,3,5,113.9,2.461
117.23,1,0.029,-0.017,-0.001,0.002,-0.007,-0.006,-1.587,0.028,-0.004,116.44,94.2,40.573277,-3.529272,647.6,3,5,113.9,2.461
117.32,1,-0.01,-0.0,-0.01,0.003,-0.007,-0.011,-1.589,0.028,-0.003,116.44,94.2,40.573277,-3.529272,647.6,3,5,113.9,2.461
117.43,1,0.017,-0.023,-0.028,0.004,-0.013,-0.015,-1.59,0.028,-0.002,116.44,94.2,40.573277,-3.529272,647.6,3,5,113.9,2.461
117.53,1,-0.003,0.034,-0.0,0.008,0.003,-0.013,-1.59,0.028,-0.001,116.44,94.2,40.573277,-3.529272,647.6,3,5,113.9,2.461
117.62,1,-0.046,0.009,-0.024,-0.025,0.019,-0.014,-1.59,0.029,-0.001,116.44,94.2,40.573277,-3.529272,647.6,3,5,113.9,2.461
117.72,1,0.004,-0.013,-0.026,-0.009,-0.004,-0.023,-1.589,0.029,0.001,116.44,94.2,40.573277,-3.529272,647.6,3,5,113.9,2.461
117.82,1,0.033,-0.004,-0.003,0.016,-0.003,-0.016,-1.588,0.029,0.002,116.44,94.2,40.573277,-3.529272,647.6,3,5,113.9,2.461
117.92,1,0.008,0.021,-0.013,0.016,0.005,-0.004,-1.587,0.028,0.002,116.44,94.2,40.573277,-3.529272,647.6,3,5,113.9,2.461
118.02,1,0.007,0.029,-0.018,0.005,0.016,-0.02,-1.583,0.031,0.003,116.44,94.2,40.573277,-3.529272,647.6,3,5,113.9,2.461
118.12,1,-0.013,-0.0,-0.024,-0.004,0.016,-0.018,-1.581,0.031,0.004,117.44,94.0,40.573177,-3.528989,648.7,3,5,112.9,2.461
