Timestamp_Accel,SystemActivated,accelerometerXAxis,accelerometerYAxis,accelerometerZAxis,AccelX_KF,AccelY_KF,AccelZ_KF,gyroscopeXAxis,gyroscopeYAxis,gyroscopeZAxis,Timestamp_GPS,Speed,latitude,longitude,Altitude,VerticalAccuracy,HorizontalAccuracy,Course,Difcourse
15.85,1,-0.022,-0.009,-0.015,-0.006,-0.003,-0.004,-1.58,0.008,-0.074,15.83,75.7,40.517979,-3.40906,620.3,3,5,324.8,0.352
15.95,1,-0.013,-0.007,0.011,-0.009,-0.01,0.002,-1.58,0.011,-0.073,15.83,75.7,40.517979,-3.40906,620.3,3,5,324.8,0.352
16.05,1,-0.017,-0.027,-0.0,-0.018,-0.015,0.004,-1.581,0.014,-0.072,15.83,75.7,40.517979,-3.40906,620.3,3,5,324.8,0.352
16.15,1,-0.025,-0.036,0.003,-0.021,-0.024,0.002,-1.582,0.016,-0.072,15.83,75.7,40.517979,-3.40906,620.3,3,5,324.8,0.352
16.25,1,-0.003,-0.015,0.025,-0.018,-0.027,0.01,-1.584,0.014,-0.071,15.83,75.7,40.517979,-3.40906,620.3,3,5,324.8,0.352
16.35,1,0.004,0.002,-0.005,-0.002,-0.014,0.011,-1.585,0.015,-0.07,15.83,75.7,40.517979,-3.40906,620.3,3,5,324.8,0.352
16.46,1,0.007,-0.011,-0.019,0.004,-0.004,-0.007,-1.584,0.016,-0.069,15.83,75.7,40.517979,-3.40906,620.3,3,5,324.8,0.352
16.56,1,0.003,0.006,-0.004,0.007,-0.002,-0.011,-1.585,0.016,-0.069,15.83,75.7,40.517979,-3.40906,620.3,3,5,324.8,0.352
16.65,1,0.001,0.008,0.001,0.001,0.003,-0.001,-1.587,0.019,-0.068,15.83,75.7,40.517979,-3.40906,620.3,3,5,324.8,0.352
16.76,1,-0.009,0.023,-0.01,-0.005,0.014,-0.007,-1.585,0.021,-0.068,15.83,75.7,40.517979,-3.40906,620.3,3,5,324.8,0.352
16.86,1,-0.022,0.008,-0.005,-0.012,0.012,-0.005,-1.584,0.022,-0.068,16.75,75.8,40.518135,-3.409204,620.4,3,5,324.5,0.703
16.96,1,-0.009,-0.018,0.001,-0.014,0.004,-0.005,-1.583,0.024,-0.069,16.75,75.8,40.518135,-3.409204,620.4,3,5,324.5,0.703
17.06,1,0.01,-0.005,0.016,-0.002,-0.007,0.009,-1.584,0.027,-0.069,16.75,75.8,40.518135,-3.409204,620.4,3,5,324.5,0.703
17.16,1,0.023,0.007,-0.008,0.012,-0.006,0.004,-1.582,0.028,-0.069,16.75,75.8,40.518135,-3.409204,620.4,3,5,324.5,0.703
17.26,1,-0.028,0.025,-0.022,-0.001,0.011,-0.011,-1.58,0.024,-0.07,16.75,75.8,40.518135,-3.409204,620.4,3,5,324.5,0.703
17.36,1,-0.033,0.061,-0.003,-0.023,0.037,-0.011,-1.58,0.02,-0.071,16.75,75.8,40.518135,-3.409204,620.4,3,5,324.5,0.703
17.46,1,-0.038,0.046,0.0,-0.031,0.043,-0.004,-1.582,0.017,-0.073,16.75,75.8,40.518135,-3.409204,620.4,3,5,324.5,0.703
17.57,1,-0.019,0.041,0.001,-0.026,0.045,-0.003,-1.582,0.014,-0.074,16.75,75.8,40.518135,-3.409204,620.4,3,5,324.5,0.703
17.66,1,-0.009,0.027,0.0,-0.022,0.035,0.002,-1.583,0.013,-0.076,16.75,75.8,40.518135,-3.409204,620.4,3,5,324.5,0.703
17.76,1,0.012,0.032,0.005,-0.004,0.035,0.001,-1.583,0.012,-0.078,16.75,75.8,40.518135,-3.409204,620.4,3,5,324.5,0.703
17.86,1,0.012,0.014,-0.0,0.009,0.024,0.003,-1.582,0.011,-0.08,17.75,77.5,40.518303,-3.409357,620.8,3,5,323.4,1.406
17.96,1,-0.0,-0.001,-0.01,0.004,0.015,-0.005,-1.581,0.008,-0.082,17.75,77.5,40.518303,-3.409357,620.8,3,5,323.4,1.406
18.06,1,-0.033,0.038,0.0,-0.012,0.019,-0.004,-1.583,0.007,-0.084,17.75,77.5,40.518303,-3.409357,620.8,3,5,323.4,1.406
18.17,1,-0.049,0.031,-0.011,-0.03,0.028,-0.005,-1.582,0.003,-0.086,17.75,77.5,40.518303,-3.409357,620.8,3,5,323.4,1.406
18.27,1,-0.03,0.005,-0.002,-0.036,0.02,-0.007,-1.583,0.003,-0.088,17.75,77.5,40.518303,-3.409357,620.8,3,5,323.4,1.406
18.36,1,-0.004,0.008,0.011,-0.022,0.013,0.006,-1.584,-0.001,-0.09,17.75,77.5,40.518303,-3.409357,620.8,3,5,323.4,1.406
18.46,1,0.016,0.031,-0.015,-0.004,0.017,-0.004,-1.582,-0.001,-0.092,17.75,77.5,40.518303,-3.409357,620.8,3,5,323.4,1.406
18.56,1,0.011,0.007,-0.005,0.011,0.014,-0.006,-1.581,-0.001,-0.093,17.75,77.5,40.518303,-3.409357,620.8,3,5,323.4,1.406
18.66,1,-0.009,-0.009,-0.013,0.001,0.004,-0.009,-1.58,0.0,-0.094,17.75,77.5,40.518303,-3.409357,620.8,3,5,323.4,1.406
18.76,1,-0.038,0.011,0.003,-0.019,0.004,-0.006,-1.581,0.0,-0.095,17.75,77.5,40.518303,-3.409357,620.8,3,5,323.4,1.406
18.86,1,-0.003,0.01,0.011,-0.014,0.004,0.005,-1.583,0.001,-0.096,18.78,78.9,40.518459,-3.40952,621.0,3,5,324.5,1.055
18.97,1,0.011,-0.022,-0.013,-0.003,0.001,0.0,-1.582,0.003,-0.096,18.78,78.9,40.518459,-3.40952,621.0,3,5,324.5,1.055
19.06,1,0.011,-0.015,-0.003,0.009,-0.012,-0.005,-1.58,0.003,-0.097,18.78,78.9,40.518459,-3.40952,621.0,3,5,324.5,1.055
19.16,1,-0.022,-0.011,0.002,-0.004,-0.014,-0.003,-1.581,0.005,-0.098,18.78,78.9,40.518459,-3.40952,621.0,3,5,324.5,1.055
19.26,1,-0.013,-0.019,0.021,-0.014,-0.015,0.009,-1.583,0.002,-0.099,18.78,78.9,40.518459,-3.40952,621.0,3,5,324.5,1.055
19.36,1,-0.006,-0.013,-0.006,-0.013,-0.017,0.006,-1.581,0.004,-0.099,18.78,78.9,40.518459,-3.40952,621.0,3,5,324.5,1.055
19.46,1,0.011,-0.014,-0.013,0.0,-0.014,-0.004,-1.58,0.003,-0.1,18.78,78.9,40.518459,-3.40952,621.0,3,5,324.5,1.055
19.56,1,-0.001,-0.01,-0.004,0.005,-0.01,-0.005,-1.58,0.006,-0.101,18.78,78.9,40.518459,-3.40952,621.0,3,5,324.5,1.055
19.66,1,-0.025,-0.014,-0.006,-0.008,-0.014,-0.007,-1.581,0.008,-0.101,18.78,78.9,40.518459,-3.40952,621.0,3,5,324.5,1.055
19.76,1,-0.036,-0.046,0.003,-0.026,-0.029,-0.005,-1.582,0.011,-0.101,18.78,78.9,40.518459,-3.40952,621.0,3,5,324.5,1.055
19.86,1,0.006,-0.014,0.022,-0.017,-0.024,0.007,-1.585,0.008,-0.101,19.73,79.3,40.518623,-3.409667,621.3,3,5,325.2,1.758
19.96,1,0.026,0.006,-0.016,0.01,-0.01,0.004,-1.584,0.007,-0.101,19.73,79.3,40.518623,-3.409667,621.3,3,5,325.2,1.758
20.06,1,0.005,0.003,-0.024,0.009,0.003,-0.016,-1.579,0.003,-0.101,19.73,79.3,40.518623,-3.409667,621.3,3,5,325.2,1.758
20.16,1,-0.048,0.028,-0.011,-0.006,0.008,-0.012,-1.581,0.005,-0.101,19.73,79.3,40.518623,-3.409667,621.3,3,5,325.2,1.758
20.27,1,-0.011,-0.049,0.015,-0.024,-0.012,-0.001,-1.583,0.01,-0.1,19.73,79.3,40.518623,-3.409667,621.3,3,5,325.2,1.758
20.36,1,-0.012,-0.054,0.011,-0.014,-0.036,0.01,-1.582,0.012,-0.099,19.73,79.3,40.518623,-3.409667,621.3,3,5,325.2,1.758
20.46,1,-0.023,-0.022,-0.022,-0.017,-0.032,-0.005,-1.582,0.014,-0.098,19.73,79.3,40.518623,-3.409667,621.3,3,5,325.2,1.758
20.56,1,-0.013,-0.046,0.004,-0.018,-0.032,-0.007,-1.584,0.016,-0.097,19.73,79.3,40.518623,-3.409667,621.3,3,5,325.2,1.758
20.67,1,-0.055,-0.028,0.012,-0.038,-0.036,0.003,-1.585,0.017,-0.096,19.73,79.3,40.518623,-3.409667,621.3,3,5,325.2,1.758
20.77,1,0.017,0.0,0.016,-0.014,-0.017,0.009,-1.585,0.019,-0.095,19.73,79.3,40.518623,-3.409667,621.3,3,5,325.2,1.758
20.87,1,0.024,-0.031,0.001,0.01,-0.018,0.011,-1.585,0.026,-0.094,20.76,80.2,40.518787,-3.40981,621.6,3,5,325.2,0.703
20.97,1,0.005,-0.024,-0.024,0.009,-0.025,-0.007,-1.583,0.03,-0.093,20.76,80.2,40.518787,-3.40981,621.6,3,5,325.2,0.703
21.07,1,0.038,-0.039,0.026,0.016,-0.031,-0.001,-1.584,0.028,-0.093,20.76,80.2,40.518787,-3.40981,621.6,3,5,325.2,0.703
21.17,1,0.018,-0.034,-0.002,0.022,-0.033,0.01,-1.585,0.028,-0.092,20.76,80.2,40.518787,-3.40981,621.6,3,5,325.2,0.703
21.27,1,-0.001,-0.032,0.003,0.02,-0.036,-0.0,-1.583,0.027,-0.092,20.76,80.2,40.518787,-3.40981,621.6,3,5,325.2,0.703
21.37,1,-0.017,-0.008,-0.014,-0.005,-0.02,0.0,-1.583,0.025,-0.092,20.76,80.2,40.518787,-3.40981,621.6,3,5,325.2,0.703
21.47,1,-0.066,0.001,-0.012,-0.031,-0.007,-0.015,-1.584,0.021,-0.092,20.76,80.2,40.518787,-3.40981,621.6,3,5,325.2,0.703
21.57,1,-0.015,-0.014,0.006,-0.034,-0.008,-0.001,-1.587,0.021,-0.091,20.76,80.2,40.518787,-3.40981,621.6,3,5,325.2,0.703
21.67,1,0.034,-0.022,-0.002,-0.001,-0.019,0.002,-1.586,0.022,-0.09,20.76,80.2,40.518787,-3.40981,621.6,3,5,325.2,0.703
21.77,1,0.023,0.014,-0.038,0.021,-0.007,-0.017,-1.582,0.025,-0.09,20.76,80.2,40.518787,-3.40981,621.6,3,5,325.2,0.703
21.87,1,-0.018,0.031,-0.03,0.005,0.012,-0.027,-1.578,0.024,-0.089,21.74,80.8,40.518951,-3.409955,622.0,3,5,324.5,0.703
21.97,1,-0.015,0.018,-0.005,-0.013,0.023,-0.02,-1.577,0.026,-0.089,21.74,80.8,40.518951,-3.409955,622.0,3,5,324.5,0.703
22.08,1,-0.018,-0.004,-0.02,-0.016,0.011,-0.015,-1.574,0.026,-0.089,21.74,80.8,40.518951,-3.409955,622.0,3,5,324.5,0.703
22.18,1,-0.002,-0.012,-0.001,-0.008,-0.008,-0.012,-1.572,0.027,-0.088,21.74,80.8,40.518951,-3.409955,622.0,3,5,324.5,0.703
22.27,1,-0.034,-0.0,-0.048,-0.013,-0.004,-0.02,-1.568,0.026,-0.088,21.74,80.8,40.518951,-3.409955,622.0,3,5,324.5,0.703
22.37,1,-0.079,0.001,-0.016,-0.049,0.001,-0.031,-1.568,0.025,-0.088,21.74,80.8,40.518951,-3.409955,622.0,3,5,324.5,0.703
22.47,1,-0.013,0.0,0.029,-0.043,-0.001,0.001,-1.57,0.025,-0.089,21.74,80.8,40.518951,-3.409955,622.0,3,5,324.5,0.703
22.57,1,0.033,0.007,-0.026,-0.005,0.008,-0.005,-1.568,0.025,-0.089,21.74,80.8,40.518951,-3.409955,622.0,3,5,324.5,0.703
22.67,1,0.024,0.008,-0.003,0.013,0.009,-0.011,-1.567,0.024,-0.091,21.74,80.8,40.518951,-3.409955,622.0,3,5,324.5,0.703
22.77,1,0.002,0.03,-0.014,0.017,0.013,-0.008,-1.566,0.019,-0.092,21.74,80.8,40.518951,-3.409955,622.0,3,5,324.5,0.703
22.87,1,-0.013,0.038,0.001,-0.003,0.024,-0.007,-1.566,0.017,-0.093,22.79,81.6,40.519115,-3.410109,622.7,3,5,324.5,0.703
22.97,1,0.032,0.032,0.005,0.008,0.033,0.003,-1.565,0.014,-0.093,22.79,81.6,40.519115,-3.410109,622.7,3,5,324.5,0.703
23.07,1,0.015,0.029,-0.023,0.02,0.031,-0.006,-1.563,0.013,-0.095,22.79,81.6,40.519115,-3.410109,622.7,3,5,324.5,0.703
23.17,1,-0.024,0.024,-0.023,0.003,0.028,-0.023,-1.562,0.013,-0.096,22.79,81.6,40.519115,-3.410109,622.7,3,5,324.5,0.703
23.27,1,-0.035,0.014,0.005,-0.016,0.019,-0.007,-1.563,0.011,-0.097,22.79,81.6,40.519115,-3.410109,622.7,3,5,324.5,0.703
23.38,1,-0.034,-0.011,-0.018,-0.033,0.006,-0.008,-1.563,0.008,-0.098,22.79,81.6,40.519115,-3.410109,622.7,3,5,324.5,0.703
23.47,1,-0.011,-0.01,-0.01,-0.025,-0.004,-0.014,-1.562,0.006,-0.099,22.79,81.6,40.519115,-3.410109,622.7,3,5,324.5,0.703
23.57,1,0.008,0.002,0.013,-0.011,-0.002,-0.001,-1.563,0.004,-0.1,22.79,81.6,40.519115,-3.410109,622.7,3,5,324.5,0.703
23.67,1,0.017,0.004,-0.013,0.006,0.001,-0.003,-1.562,0.004,-0.1,22.79,81.6,40.519115,-3.410109,622.7,3,5,324.5,0.703
23.77,1,0.005,-0.009,-0.006,0.007,-0.002,-0.006,-1.562,0.005,-0.1,22.79,81.6,40.519115,-3.410109,622.7,3,5,324.5,0.703
23.87,1,0.016,-0.005,-0.002,0.011,-0.001,-0.005,-1.562,0.008,-0.1,23.79,81.5,40.519283,-3.410268,622.7,3,5,324.5,0.0
23.97,1,-0.01,-0.008,-0.031,0.006,-0.007,-0.013,-1.558,0.01,-0.101,23.79,81.5,40.519283,-3.410268,622.7,3,5,324.5,0.0
24.07,1,-0.038,-0.004,-0.034,-0.014,-0.004,-0.026,-1.556,0.012,-0.101,23.79,81.5,40.519283,-3.410268,622.7,3,5,324.5,0.0
24.17,1,-0.049,-0.007,-0.014,-0.036,-0.009,-0.025,-1.557,0.012,-0.101,23.79,81.5,40.519283,-3.410268,622.7,3,5,324.5,0.0
24.27,1,-0.044,-0.013,-0.01,-0.045,-0.008,-0.012,-1.556,0.013,-0.101,23.79,81.5,40.519283,-3.410268,622.7,3,5,324.5,0.0
24.37,1,-0.015,-0.007,-0.015,-0.032,-0.01,-0.015,-1.556,0.013,-0.101,23.79,81.5,40.519283,-3.410268,622.7,3,5,324.5,0.0
24.47,1,0.013,0.008,-0.017,-0.01,-0.002,-0.016,-1.555,0.013,-0.101,23.79,81.5,40.519283,-3.410268,622.7,3,5,324.5,0.0
24.58,1,0.009,0.003,0.001,0.002,0.004,-0.011,-1.554,0.013,-0.101,23.79,81.5,40.519283,-3.410268,622.7,3,5,324.5,0.0
24.68,1,0.026,0.003,-0.017,0.016,0.003,-0.009,-1.551,0.013,-0.101,23.79,81.5,40.519283,-3.410268,622.7,3,5,324.5,0.0
24.88,1,-0.03,-0.013,-0.002,-0.011,-0.006,-0.01,-1.549,0.015,-0.101,23.79,81.5,40.519283,-3.410268,622.7,3,5,324.5,0.0
24.98,1,-0.033,0.001,-0.004,-0.023,-0.004,-0.006,-1.55,0.015,-0.101,24.74,82.5,40.519451,-3.410447,622.9,4,5,323.1,1.406
25.08,1,-0.005,0.005,0.019,-0.018,-0.002,0.007,-1.55,0.015,-0.102,24.74,82.5,40.519451,-3.410447,622.9,4,5,323.1,1.406
25.18,1,0.021,0.008,0.006,-0.0,0.005,0.008,-1.55,0.014,-0.102,24.74,82.5,40.519451,-3.410447,622.9,4,5,323.1,1.406
25.28,1,0.019,0.015,0.004,0.011,0.009,0.006,-1.549,0.014,-0.102,24.74,82.5,40.519451,-3.410447,622.9,4,5,323.1,1.406
25.38,1,0.009,0.006,0.001,0.017,0.01,0.002,-1.549,0.014,-0.102,24.74,82.5,40.519451,-3.410447,622.9,4,5,323.1,1.406
25.48,1,-0.056,-0.005,-0.009,-0.016,0.002,-0.002,-1.55,0.016,-0.102,24.74,82.5,40.519451,-3.410447,622.9,4,5,323.1,1.406
25.58,1,-0.042,-0.023,0.016,-0.037,-0.009,0.004,-1.552,0.019,-0.101,24.74,82.5,40.519451,-3.410447,622.9,4,5,323.1,1.406
25.68,1,-0.012,-0.024,0.018,-0.027,-0.017,0.012,-1.555,0.021,-0.1,24.74,82.5,40.519451,-3.410447,622.9,4,5,323.1,1.406
25.79,1,-0.007,-0.024,-0.008,-0.018,-0.022,0.007,-1.555,0.021,-0.1,24.74,82.5,40.519451,-3.410447,622.9,4,5,323.1,1.406
25.89,1,0.007,-0.002,-0.003,-0.004,-0.014,-0.002,-1.556,0.022,-0.099,24.74,82.5,40.519451,-3.410447,622.9,4,5,323.1,1.406
25.98,1,0.001,-0.002,0.001,0.0,-0.005,-0.003,-1.557,0.022,-0.098,25.76,80.9,40.519627,-3.410588,623.2,4,5,324.8,1.758
26.08,1,-0.007,-0.021,0.001,-0.0,-0.008,0.001,-1.558,0.025,-0.097,25.76,80.9,40.519627,-3.410588,623.2,4,5,324.8,1.758
26.18,1,-0.028,-0.015,-0.009,-0.013,-0.018,-0.004,-1.558,0.026,-0.096,25.76,80.9,40.519627,-3.410588,623.2,4,5,324.8,1.758
26.28,1,0.002,-0.007,0.005,-0.01,-0.013,-0.001,-1.559,0.029,-0.095,25.76,80.9,40.519627,-3.410588,623.2,4,5,324.8,1.758
26.38,1,0.005,0.005,0.002,-0.006,-0.003,0.002,-1.559,0.026,-0.094,25.76,80.9,40.519627,-3.410588,623.2,4,5,324.8,1.758
26.48,1,0.025,0.004,0.012,0.01,0.005,0.005,-1.56,0.026,-0.093,25.76,80.9,40.519627,-3.410588,623.2,4,5,324.8,1.758
26.58,1,0.019,0.005,-0.003,0.018,0.002,0.003,-1.559,0.029,-0.092,25.76,80.9,40.519627,-3.410588,623.2,4,5,324.8,1.758
26.68,1,-0.026,-0.006,-0.014,0.002,-0.0,-0.005,-1.558,0.029,-0.091,25.76,80.9,40.519627,-3.410588,623.2,4,5,324.8,1.758
26.78,1,-0.05,0.02,-0.007,-0.023,0.005,-0.01,-1.558,0.027,-0.092,25.76,80.9,40.519627,-3.410588,623.2,4,5,324.8,1.758
26.89,1,-0.042,0.047,0.032,-0.042,0.026,0.007,-1.562,0.022,-0.092,25.76,80.9,40.519627,-3.410588,623.2,4,5,324.8,1.758
26.98,1,-0.015,0.032,0.037,-0.03,0.037,0.028,-1.566,0.02,-0.093,26.73,81.8,40.519787,-3.410732,623.3,4,5,324.5,1.406
27.09,1,0.038,0.008,0.028,0.002,0.024,0.031,-1.567,0.017,-0.094,26.73,81.8,40.519787,-3.410732,623.3,4,5,324.5,1.406
27.19,1,0.008,0.011,0.004,0.012,0.013,0.018,-1.569,0.016,-0.094,26.73,81.8,40.519787,-3.410732,623.3,4,5,324.5,1.406
27.28,1,-0.019,0.03,0.036,-0.003,0.02,0.017,-1.572,0.013,-0.095,26.73,81.8,40.519787,-3.410732,623.3,4,5,324.5,1.406
27.38,1,0.016,0.015,0.033,0.002,0.022,0.031,-1.577,0.012,-0.095,26.73,81.8,40.519787,-3.410732,623.3,4,5,324.5,1.406
27.48,1,0.004,0.019,0.004,0.009,0.017,0.022,-1.576,0.009,-0.096,26.73,81.8,40.519787,-3.410732,623.3,4,5,324.5,1.406
27.59,1,-0.007,0.028,-0.006,-0.001,0.021,0.005,-1.576,0.009,-0.097,26.73,81.8,40.519787,-3.410732,623.3,4,5,324.5,1.406
27.69,1,-0.017,0.023,0.015,-0.006,0.024,0.006,-1.577,0.005,-0.097,26.73,81.8,40.519787,-3.410732,623.3,4,5,324.5,1.406
27.78,1,-0.048,0.029,-0.004,-0.027,0.025,0.007,-1.578,0.004,-0.098,26.73,81.8,40.519787,-3.410732,623.3,4,5,324.5,1.406
27.88,1,-0.013,-0.008,0.02,-0.029,0.014,0.004,-1.579,0.001,-0.099,26.73,81.8,40.519787,-3.410732,623.3,4,5,324.5,1.406
27.98,1,0.009,-0.014,0.029,-0.009,-0.001,0.022,-1.582,0.004,-0.099,27.75,80.2,40.519947,-3.410879,623.7,4,5,324.1,0.703
28.09,1,0.005,0.01,-0.007,0.001,0.001,0.011,-1.581,0.004,-0.1,27.75,80.2,40.519947,-3.410879,623.7,4,5,324.1,0.703
28.18,1,-0.039,0.02,0.019,-0.01,0.007,0.009,-1.583,0.001,-0.101,27.75,80.2,40.519947,-3.410879,623.7,4,5,324.1,0.703
28.29,1,-0.016,0.016,0.03,-0.024,0.015,0.021,-1.586,-0.001,-0.101,27.75,80.2,40.519947,-3.410879,623.7,4,5,324.1,0.703
28.39,1,-0.025,0.008,0.013,-0.025,0.016,0.019,-1.588,-0.003,-0.102,27.75,80.2,40.519947,-3.410879,623.7,4,5,324.1,0.703
28.49,1,0.013,-0.023,0.027,-0.008,-0.004,0.021,-1.59,-0.007,-0.102,27.75,80.2,40.519947,-3.410879,623.7,4,5,324.1,0.703
28.59,1,0.002,-0.056,0.015,-0.001,-0.032,0.023,-1.592,-0.004,-0.102,27.75,80.2,40.519947,-3.410879,623.7,4,5,324.1,0.703
28.69,1,-0.004,-0.012,0.028,0.003,-0.025,0.018,-1.593,-0.004,-0.102,27.75,80.2,40.519947,-3.410879,623.7,4,5,324.1,0.703
28.79,1,0.008,-0.007,0.032,0.001,-0.02,0.03,-1.595,-0.004,-0.102,27.75,80.2,40.519947,-3.410879,623.7,4,5,324.1,0.703
28.9,1,0.011,-0.005,0.011,0.005,-0.009,0.022,-1.594,-0.004,-0.101,27.75,80.2,40.519947,-3.410879,623.7,4,5,324.1,0.703
29.0,1,0.021,-0.02,0.001,0.015,-0.013,0.012,-1.595,-0.004,-0.101,28.73,81.4,40.520103,-3.411028,624.1,4,5,324.5,0.352
29.09,1,0.009,-0.004,0.017,0.016,-0.008,0.011,-1.597,-0.002,-0.101,28.73,81.4,40.520103,-3.411028,624.1,4,5,324.5,0.352
29.19,1,-0.027,-0.029,0.006,-0.004,-0.018,0.012,-1.597,0.002,-0.1,28.73,81.4,40.520103,-3.411028,624.1,4,5,324.5,0.352
29.29,1,-0.068,-0.034,0.013,-0.033,-0.03,0.009,-1.598,0.007,-0.099,28.73,81.4,40.520103,-3.411028,624.1,4,5,324.5,0.352
29.39,1,-0.059,-0.017,0.014,-0.054,-0.028,0.014,-1.6,0.01,-0.098,28.73,81.4,40.520103,-3.411028,624.1,4,5,324.5,0.352
29.5,1,-0.069,-0.027,-0.006,-0.054,-0.022,0.007,-1.604,0.01,-0.098,28.73,81.4,40.520103,-3.411028,624.1,4,5,324.5,0.352
29.59,1,-0.059,-0.002,0.002,-0.069,-0.018,-0.004,-1.607,0.007,-0.097,28.73,81.4,40.520103,-3.411028,624.1,4,5,324.5,0.352
29.69,1,0.026,0.016,0.061,-0.036,0.003,0.027,-1.61,0.004,-0.098,28.73,81.4,40.520103,-3.411028,624.1,4,5,324.5,0.352
29.79,1,0.039,0.01,-0.025,0.025,0.014,0.019,-1.607,0.002,-0.098,28.73,81.4,40.520103,-3.411028,624.1,4,5,324.5,0.352
29.89,1,-0.055,-0.007,-0.049,-0.01,0.013,-0.027,-1.608,0.005,-0.098,28.73,81.4,40.520103,-3.411028,624.1,4,5,324.5,0.352
30.0,1,-0.072,0.009,0.033,-0.053,0.001,-0.009,-1.613,0.007,-0.098,29.74,85.1,40.520279,-3.411188,624.6,4,5,325.2,1.055
30.09,1,0.046,0.006,0.06,-0.016,-0.006,0.034,-1.613,0.01,-0.098,29.74,85.1,40.520279,-3.411188,624.6,4,5,325.2,1.055
30.19,1,0.072,0.008,-0.028,0.04,0.005,0.015,-1.609,0.011,-0.098,29.74,85.1,40.520279,-3.411188,624.6,4,5,325.2,1.055
30.3,1,0.046,0.016,-0.016,0.052,0.013,-0.012,-1.607,0.012,-0.099,29.74,85.1,40.520279,-3.411188,624.6,4,5,325.2,1.055
30.39,1,-0.002,0.025,0.01,0.029,0.018,-0.003,-1.609,0.015,-0.099,29.74,85.1,40.520279,-3.411188,624.6,4,5,325.2,1.055
30.49,1,-0.022,0.011,0.002,0.001,0.018,0.004,-1.608,0.014,-0.099,29.74,85.1,40.520279,-3.411188,624.6,4,5,325.2,1.055
30.59,1,-0.062,-0.015,-0.014,-0.032,0.009,-0.005,-1.606,0.014,-0.099,29.74,85.1,40.520279,-3.411188,624.6,4,5,325.2,1.055
30.69,1,-0.037,0.004,-0.009,-0.046,-0.002,-0.009,-1.607,0.014,-0.1,29.74,85.1,40.520279,-3.411188,624.6,4,5,325.2,1.055
30.79,1,0.006,0.034,0.022,-0.02,0.008,0.002,-1.609,0.014,-0.1,29.74,85.1,40.520279,-3.411188,624.6,4,5,325.2,1.055
30.89,1,0.043,0.017,0.016,0.01,0.018,0.017,-1.609,0.011,-0.1,29.74,85.1,40.520279,-3.411188,624.6,4,5,325.2,1.055
30.99,1,0.09,-0.025,-0.002,0.055,0.001,0.008,-1.608,0.011,-0.1,30.74,85.0,40.520443,-3.411345,625.1,4,5,324.5,0.703
31.09,1,-0.014,-0.025,-0.023,0.039,-0.016,-0.007,-1.605,0.014,-0.099,30.74,85.0,40.520443,-3.411345,625.1,4,5,324.5,0.703
31.19,1,-0.138,0.008,-0.012,-0.05,-0.007,-0.014,-1.606,0.016,-0.099,30.74,85.0,40.520443,-3.411345,625.1,4,5,324.5,0.703
31.3,1,-0.107,0.035,0.019,-0.097,0.012,-0.002,-1.61,0.015,-0.099,30.74,85.0,40.520443,-3.411345,625.1,4,5,324.5,0.703
31.41,1,0.017,0.038,0.012,-0.056,0.029,0.013,-1.611,0.015,-0.099,30.74,85.0,40.520443,-3.411345,625.1,4,5,324.5,0.703
31.5,1,0.099,0.024,-0.027,0.025,0.033,-0.004,-1.608,0.016,-0.099,30.74,85.0,40.520443,-3.411345,625.1,4,5,324.5,0.703
31.59,1,0.1,-0.004,-0.031,0.078,0.016,-0.021,-1.605,0.02,-0.098,30.74,85.0,40.520443,-3.411345,625.1,4,5,324.5,0.703
31.69,1,0.021,-0.027,-0.031,0.065,-0.008,-0.027,-1.601,0.024,-0.098,30.74,85.0,40.520443,-3.411345,625.1,4,5,324.5,0.703
31.79,1,-0.038,-0.028,-0.034,0.008,-0.022,-0.034,-1.596,0.026,-0.098,30.74,85.0,40.520443,-3.411345,625.1,4,5,324.5,0.703
31.9,1,-0.066,0.003,-0.012,-0.034,-0.012,-0.022,-1.597,0.024,-0.098,30.74,85.0,40.520443,-3.411345,625.1,4,5,324.5,0.703
32.0,1,-0.036,0.023,-0.036,-0.042,0.006,-0.026,-1.596,0.019,-0.099,31.73,87.1,40.520611,-3.41151,625.5,4,5,324.5,0.703
32.1,1,-0.038,0.022,-0.033,-0.039,0.017,-0.033,-1.594,0.016,-0.099,31.73,87.1,40.520611,-3.41151,625.5,4,5,324.5,0.703
32.2,1,-0.008,0.026,-0.014,-0.026,0.019,-0.024,-1.593,0.015,-0.099,31.73,87.1,40.520611,-3.41151,625.5,4,5,324.5,0.703
32.3,1,0.015,0.002,-0.024,-0.005,0.014,-0.02,-1.592,0.014,-0.099,31.73,87.1,40.520611,-3.41151,625.5,4,5,324.5,0.703
32.4,1,-0.037,-0.001,-0.043,-0.009,0.006,-0.03,-1.588,0.016,-0.099,31.73,87.1,40.520611,-3.41151,625.5,4,5,324.5,0.703
32.5,1,-0.019,-0.004,-0.023,-0.028,-0.001,-0.034,-1.584,0.017,-0.099,31.73,87.1,40.520611,-3.41151,625.5,4,5,324.5,0.703
32.61,1,-0.02,0.003,-0.019,-0.015,0.001,-0.019,-1.583,0.017,-0.099,31.73,87.1,40.520611,-3.41151,625.5,4,5,324.5,0.703
32.71,1,-0.027,0.007,-0.012,-0.027,-0.001,-0.022,-1.581,0.017,-0.099,31.73,87.1,40.520611,-3.41151,625.5,4,5,324.5,0.703
32.8,1,0.002,0.002,-0.011,-0.009,0.009,-0.01,-1.581,0.016,-0.099,31.73,87.1,40.520611,-3.41151,625.5,4,5,324.5,0.703
32.9,1,-0.015,0.023,-0.016,-0.01,0.016,-0.018,-1.579,0.017,-0.099,31.73,87.1,40.520611,-3.41151,625.5,4,5,324.5,0.703
33.0,1,0.006,0.002,0.018,-0.003,0.005,-0.001,-1.58,0.017,-0.1,32.75,86.9,40.520786,-3.411673,626.0,4,5,324.5,0.0
33.1,1,-0.004,0.016,-0.007,-0.002,0.011,0.001,-1.578,0.016,-0.1,32.75,86.9,40.520786,-3.411673,626.0,4,5,324.5,0.0
33.21,1,-0.008,0.018,-0.013,-0.007,0.014,-0.009,-1.578,0.016,-0.1,32.75,86.9,40.520786,-3.411673,626.0,4,5,324.5,0.0
33.3,1,-0.047,0.01,0.015,-0.025,0.012,0.001,-1.579,0.015,-0.1,32.75,86.9,40.520786,-3.411673,626.0,4,5,324.5,0.0
33.4,1,-0.027,0.013,0.009,-0.035,0.012,0.006,-1.58,0.014,-0.1,32.75,86.9,40.520786,-3.411673,626.0,4,5,324.5,0.0
33.5,1,-0.032,0.022,0.025,-0.027,0.013,0.015,-1.583,0.016,-0.099,32.75,86.9,40.520786,-3.411673,626.0,4,5,324.5,0.0
33.6,1,-0.005,-0.008,0.007,-0.021,0.009,0.016,-1.584,0.016,-0.099,32.75,86.9,40.520786,-3.411673,626.0,4,5,324.5,0.0
33.7,1,0.008,-0.026,-0.006,0.0,-0.01,0.002,-1.585,0.015,-0.099,32.75,86.9,40.520786,-3.411673,626.0,4,5,324.5,0.0
33.8,1,-0.047,-0.007,0.003,-0.024,-0.004,0.002,-1.586,0.015,-0.098,32.75,86.9,40.520786,-3.411673,626.0,4,5,324.5,0.0
33.9,1,-0.025,0.008,0.012,-0.019,-0.007,0.008,-1.589,0.017,-0.098,32.75,86.9,40.520786,-3.411673,626.0,4,5,324.5,0.0
34.0,1,0.028,-0.002,0.008,-0.015,0.006,0.009,-1.59,0.02,-0.096,33.73,86.9,40.520966,-3.41184,626.4,3,5,324.5,0.0
34.1,1,0.032,-0.005,-0.015,0.017,0.001,-0.001,-1.589,0.022,-0.096,33.73,86.9,40.520966,-3.41184,626.4,3,5,324.5,0.0
34.2,1,-0.064,-0.004,-0.033,-0.002,-0.009,-0.02,-1.59,0.025,-0.095,33.73,86.9,40.520966,-3.41184,626.4,3,5,324.5,0.0
34.3,1,-0.009,-0.032,0.014,-0.023,-0.02,-0.01,-1.592,0.027,-0.094,33.73,86.9,40.520966,-3.41184,626.4,3,5,324.5,0.0
34.4,1,0.051,-0.036,0.02,0.006,-0.028,0.014,-1.594,0.028,-0.093,33.73,86.9,40.520966,-3.41184,626.4,3,5,324.5,0.0
34.5,1,-0.001,0.005,-0.064,0.024,-0.019,-0.016,-1.588,0.026,-0.093,33.73,86.9,40.520966,-3.41184,626.4,3,5,324.5,0.0
34.6,1,-0.086,0.0,-0.046,-0.033,-0.003,-0.044,-1.588,0.027,-0.093,33.73,86.9,40.520966,-3.41184,626.4,3,5,324.5,0.0
34.7,1,-0.078,0.013,-0.022,-0.072,0.007,-0.033,-1.591,0.028,-0.092,33.73,86.9,40.520966,-3.41184,626.4,3,5,324.5,0.0
34.8,1,-0.05,-0.017,-0.022,-0.058,-0.006,-0.027,-1.59,0.027,-0.091,33.73,86.9,40.520966,-3.41184,626.4,3,5,324.5,0.0
34.9,1,0.019,-0.017,-0.017,-0.031,-0.01,-0.022,-1.587,0.028,-0.091,33.73,86.9,40.520966,-3.41184,626.4,3,5,324.5,0.0
35.0,1,0.089,-0.018,-0.012,0.033,-0.014,-0.016,-1.584,0.024,-0.092,34.74,88.6,40.521141,-3.412009,626.4,3,5,324.5,0.0
35.11,1,-0.012,0.048,-0.06,0.032,0.012,-0.031,-1.579,0.02,-0.092,34.74,88.6,40.521141,-3.412009,626.4,3,5,324.5,0.0
35.2,1,-0.049,0.047,-0.032,-0.013,0.037,-0.042,-1.576,0.018,-0.092,34.74,88.6,40.521141,-3.412009,626.4,3,5,324.5,0.0
35.31,1,-0.076,0.018,-0.017,-0.045,0.029,-0.028,-1.577,0.019,-0.092,34.74,88.6,40.521141,-3.412009,626.4,3,5,324.5,0.0
35.4,1,-0.035,-0.03,-0.011,-0.052,0.002,-0.019,-1.575,0.023,-0.092,34.74,88.6,40.521141,-3.412009,626.4,3,5,324.5,0.0
35.51,1,0.035,-0.014,-0.001,-0.012,-0.014,-0.009,-1.574,0.023,-0.092,34.74,88.6,40.521141,-3.412009,626.4,3,5,324.5,0.0
35.61,1,0.062,0.003,-0.005,0.033,-0.01,-0.005,-1.573,0.022,-0.093,34.74,88.6,40.521141,-3.412009,626.4,3,5,324.5,0.0
35.71,1,0.063,0.027,-0.014,0.048,0.009,-0.007,-1.57,0.02,-0.093,34.74,88.6,40.521141,-3.412009,626.4,3,5,324.5,0.0
35.81,1,-0.051,0.026,-0.034,0.016,0.025,-0.02,-1.568,0.018,-0.093,34.74,88.6,40.521141,-3.412009,626.4,3,5,324.5,0.0
35.91,1,-0.078,0.005,0.007,-0.041,0.015,-0.018,-1.568,0.018,-0.093,34.74,88.6,40.521141,-3.412009,626.4,3,5,324.5,0.0
36.01,1,-0.021,0.011,0.008,-0.045,0.009,0.007,-1.571,0.018,-0.092,35.74,88.1,40.521317,-3.41217,627.3,3,5,325.2,0.703
36.11,1,0.017,-0.016,-0.015,-0.016,0.003,-0.007,-1.568,0.019,-0.092,35.74,88.1,40.521317,-3.41217,627.3,3,5,325.2,0.703
36.21,1,0.025,-0.015,-0.017,0.012,-0.011,-0.013,-1.565,0.02,-0.093,35.74,88.1,40.521317,-3.41217,627.3,3,5,325.2,0.703
36.32,1,-0.008,-0.007,-0.005,0.011,-0.007,-0.01,-1.567,0.02,-0.092,35.74,88.1,40.521317,-3.41217,627.3,3,5,325.2,0.703
36.41,1,-0.02,-0.051,0.008,-0.011,-0.023,-0.001,-1.568,0.023,-0.091,35.74,88.1,40.521317,-3.41217,627.3,3,5,325.2,0.703
36.51,1,0.007,-0.044,0.011,-0.007,-0.042,0.005,-1.568,0.028,-0.088,35.74,88.1,40.521317,-3.41217,627.3,3,5,325.2,0.703
36.61,1,0.015,-0.021,0.006,0.011,-0.037,0.009,-1.568,0.031,-0.087,35.74,88.1,40.521317,-3.41217,627.3,3,5,325.2,0.703
36.71,1,-0.01,0.031,-0.002,0.006,-0.003,-0.0,-1.567,0.027,-0.087,35.74,88.1,40.521317,-3.41217,627.3,3,5,325.2,0.703
36.81,1,-0.07,0.036,0.028,-0.034,0.019,0.01,-1.57,0.022,-0.089,35.74,88.1,40.521317,-3.41217,627.3,3,5,325.2,0.703
36.91,1,-0.027,0.048,0.032,-0.039,0.036,0.027,-1.574,0.015,-0.09,35.74,88.1,40.521317,-3.41217,627.3,3,5,325.2,0.703
37.01,1,0.003,0.04,0.003,-0.021,0.039,0.018,-1.575,0.012,-0.091,36.73,88.0,40.521496,-3.412338,628.0,3,5,324.5,0.703
37.11,1,-0.012,0.017,0.025,-0.01,0.032,0.015,-1.577,0.014,-0.091,36.73,88.0,40.521496,-3.412338,628.0,3,5,324.5,0.703
37.21,1,-0.006,-0.015,0.035,-0.012,0.009,0.027,-1.579,0.015,-0.092,36.73,88.0,40.521496,-3.412338,628.0,3,5,324.5,0.703
37.32,1,0.016,-0.007,0.017,-0.002,-0.003,0.025,-1.581,0.016,-0.093,36.73,88.0,40.521496,-3.412338,628.0,3,5,324.5,0.703
37.41,1,-0.011,0.023,0.022,0.01,0.002,0.023,-1.582,0.015,-0.094,36.73,88.0,40.521496,-3.412338,628.0,3,5,324.5,0.703
37.52,1,-0.037,0.014,0.027,-0.023,0.017,0.022,-1.584,0.012,-0.094,36.73,88.0,40.521496,-3.412338,628.0,3,5,324.5,0.703
37.61,1,-0.037,0.032,0.007,-0.035,0.025,0.02,-1.586,0.009,-0.095,36.73,88.0,40.521496,-3.412338,628.0,3,5,324.5,0.703
37.71,1,-0.032,0.012,0.031,-0.023,0.019,0.018,-1.588,0.01,-0.095,36.73,88.0,40.521496,-3.412338,628.0,3,5,324.5,0.703
37.81,1,0.041,0.006,0.035,-0.006,0.012,0.03,-1.592,0.011,-0.096,36.73,88.0,40.521496,-3.412338,628.0,3,5,324.5,0.703
37.91,1,0.013,0.0,-0.008,0.016,0.007,0.016,-1.591,0.011,-0.096,36.73,88.0,40.521496,-3.412338,628.0,3,5,324.5,0.703
38.01,1,-0.023,0.008,-0.008,-0.001,0.0,-0.001,-1.589,0.01,-0.097,37.73,87.6,40.521671,-3.412512,628.4,3,5,324.5,0.703
38.11,1,-0.034,0.003,0.027,-0.017,0.004,0.012,-1.592,0.009,-0.097,37.73,87.6,40.521671,-3.412512,628.4,3,5,324.5,0.703
38.21,1,-0.021,-0.009,0.004,-0.027,0.002,0.011,-1.593,0.01,-0.097,37.73,87.6,40.521671,-3.412512,628.4,3,5,324.5,0.703
38.31,1,-0.015,-0.007,-0.002,-0.023,-0.003,0.004,-1.593,0.011,-0.096,37.73,87.6,40.521671,-3.412512,628.4,3,5,324.5,0.703
38.42,1,0.008,-0.009,0.009,-0.006,-0.007,0.006,-1.594,0.012,-0.096,37.73,87.6,40.521671,-3.412512,628.4,3,5,324.5,0.703
38.51,1,-0.027,0.006,-0.02,-0.007,-0.005,-0.003,-1.593,0.013,-0.096,37.73,87.6,40.521671,-3.412512,628.4,3,5,324.5,0.703
38.61,1,-0.036,-0.01,-0.004,-0.028,-0.002,-0.012,-1.592,0.014,-0.097,37.73,87.6,40.521671,-3.412512,628.4,3,5,324.5,0.703
38.71,1,0.002,-0.012,0.024,-0.016,-0.005,0.008,-1.594,0.014,-0.097,37.73,87.6,40.521671,-3.412512,628.4,3,5,324.5,0.703
38.81,1,0.011,0.004,-0.007,-0.003,-0.004,0.006,-1.593,0.013,-0.097,37.73,87.6,40.521671,-3.412512,628.4,3,5,324.5,0.703
38.92,1,-0.017,-0.007,-0.013,-0.002,-0.005,-0.01,-1.591,0.015,-0.097,37.73,87.6,40.521671,-3.412512,628.4,3,5,324.5,0.703
39.01,1,-0.022,-0.01,0.006,-0.018,-0.007,-0.002,-1.593,0.015,-0.096,38.75,89.1,40.521858,-3.412675,629.0,3,5,324.8,0.352
39.12,1,-0.024,-0.02,-0.001,-0.016,-0.014,0.003,-1.593,0.017,-0.096,38.75,89.1,40.521858,-3.412675,629.0,3,5,324.8,0.352
39.22,1,-0.014,-0.038,-0.002,-0.022,-0.027,-0.0,-1.593,0.02,-0.095,38.75,89.1,40.521858,-3.412675,629.0,3,5,324.8,0.352
39.32,1,0.003,-0.004,0.007,-0.006,-0.02,-0.001,-1.592,0.021,-0.095,38.75,89.1,40.521858,-3.412675,629.0,3,5,324.8,0.352
39.42,1,-0.054,-0.008,-0.004,-0.027,-0.008,0.002,-1.592,0.022,-0.094,38.75,89.1,40.521858,-3.412675,629.0,3,5,324.8,0.352
39.52,1,0.003,-0.005,0.002,-0.021,-0.005,-0.001,-1.593,0.023,-0.094,38.75,89.1,40.521858,-3.412675,629.0,3,5,324.8,0.352
39.62,1,0.015,-0.013,-0.009,-0.001,-0.009,-0.002,-1.593,0.022,-0.093,38.75,89.1,40.521858,-3.412675,629.0,3,5,324.8,0.352
39.72,1,-0.015,0.003,-0.01,-0.004,-0.008,-0.008,-1.592,0.022,-0.093,38.75,89.1,40.521858,-3.412675,629.0,3,5,324.8,0.352
39.82,1,-0.029,0.004,-0.011,-0.016,-0.003,-0.011,-1.591,0.022,-0.092,38.75,89.1,40.521858,-3.412675,629.0,3,5,324.8,0.352
39.92,1,-0.007,-0.013,0.026,-0.014,-0.004,0.004,-1.592,0.023,-0.091,38.75,89.1,40.521858,-3.412675,629.0,3,5,324.8,0.352
40.03,1,0.012,-0.017,-0.006,-0.003,-0.009,0.009,-1.593,0.023,-0.09,39.75,88.0,40.522034,-3.412841,629.9,3,5,325.5,1.055
40.12,1,-0.008,-0.006,-0.029,-0.0,-0.012,-0.012,-1.591,0.025,-0.089,39.75,88.0,40.522034,-3.412841,629.9,3,5,325.5,1.055
40.22,1,-0.049,0.003,0.016,-0.023,-0.003,-0.007,-1.592,0.025,-0.089,39.75,88.0,40.522034,-3.412841,629.9,3,5,325.5,1.055
40.32,1,-0.027,-0.012,0.02,-0.031,-0.002,0.015,-1.596,0.027,-0.087,39.75,88.0,40.522034,-3.412841,629.9,3,5,325.5,1.055
40.42,1,-0.044,-0.043,-0.016,-0.036,-0.025,-0.0,-1.596,0.03,-0.086,39.75,88.0,40.522034,-3.412841,629.9,3,5,325.5,1.055
40.52,1,-0.057,-0.048,0.02,-0.046,-0.038,0.002,-1.598,0.032,-0.084,39.75,88.0,40.522034,-3.412841,629.9,3,5,325.5,1.055
40.63,1,-0.026,-0.028,0.032,-0.044,-0.037,0.02,-1.602,0.031,-0.083,39.75,88.0,40.522034,-3.412841,629.9,3,5,325.5,1.055
40.73,1,-0.036,-0.004,-0.016,-0.032,-0.021,0.007,-1.603,0.029,-0.082,39.75,88.0,40.522034,-3.412841,629.9,3,5,325.5,1.055
40.82,1,-0.053,0.001,0.005,-0.041,-0.011,-0.001,-1.603,0.026,-0.08,39.75,88.0,40.522034,-3.412841,629.9,3,5,325.5,1.055
40.92,1,-0.031,-0.036,0.031,-0.046,-0.014,0.018,-1.606,0.025,-0.079,39.75,88.0,40.522034,-3.412841,629.9,3,5,325.5,1.055
41.02,1,-0.011,-0.029,-0.001,-0.023,-0.029,0.016,-1.606,0.024,-0.077,40.75,89.7,40.522213,-3.413014,630.2,4,5,324.1,1.406
41.12,1,-0.001,0.004,0.01,-0.014,-0.016,0.005,-1.606,0.022,-0.076,40.75,89.7,40.522213,-3.413014,630.2,4,5,324.1,1.406
41.23,1,0.037,0.009,0.03,0.011,0.002,0.021,-1.609,0.018,-0.075,40.75,89.7,40.522213,-3.413014,630.2,4,5,324.1,1.406
41.32,1,0.012,0.007,0.001,0.018,0.011,0.012,-1.608,0.018,-0.073,40.75,89.7,40.522213,-3.413014,630.2,4,5,324.1,1.406
41.42,1,-0.044,-0.023,-0.003,-0.007,-0.005,0.003,-1.609,0.019,-0.071,40.75,89.7,40.522213,-3.413014,630.2,4,5,324.1,1.406
41.52,1,-0.048,-0.004,0.033,-0.029,-0.012,0.009,-1.609,0.022,-0.069,40.75,89.7,40.522213,-3.413014,630.2,4,5,324.1,1.406
41.62,1,-0.029,-0.048,0.019,-0.035,-0.027,0.024,-1.61,0.026,-0.066,40.75,89.7,40.522213,-3.413014,630.2,4,5,324.1,1.406
41.72,1,0.002,-0.054,0.027,-0.024,-0.036,0.018,-1.611,0.029,-0.063,40.75,89.7,40.522213,-3.413014,630.2,4,5,324.1,1.406
41.83,1,0.033,-0.062,0.022,0.005,-0.055,0.031,-1.612,0.035,-0.059,40.75,89.7,40.522213,-3.413014,630.2,4,5,324.1,1.406
41.93,1,0.015,-0.049,-0.013,0.022,-0.055,0.003,-1.611,0.04,-0.056,40.75,89.7,40.522213,-3.413014,630.2,4,5,324.1,1.406
42.02,1,-0.054,-0.041,0.025,-0.013,-0.046,0.009,-1.613,0.042,-0.053,41.74,91.7,40.522408,-3.413188,631.1,4,5,325.2,1.055
42.12,1,0.011,-0.06,0.035,-0.014,-0.05,0.025,-1.616,0.044,-0.049,41.74,91.7,40.522408,-3.413188,631.1,4,5,325.2,1.055
42.22,1,0.015,-0.033,-0.012,0.001,-0.047,0.011,-1.615,0.045,-0.047,41.74,91.7,40.522408,-3.413188,631.1,4,5,325.2,1.055
42.32,1,-0.069,0.027,-0.016,-0.019,-0.018,-0.005,-1.614,0.04,-0.044,41.74,91.7,40.522408,-3.413188,631.1,4,5,325.2,1.055
42.43,1,-0.057,0.014,0.026,-0.047,0.004,0.007,-1.617,0.036,-0.041,41.74,91.7,40.522408,-3.413188,631.1,4,5,325.2,1.055
42.52,1,-0.019,-0.015,0.005,-0.041,0.003,0.012,-1.618,0.036,-0.037,41.74,91.7,40.522408,-3.413188,631.1,4,5,325.2,1.055
42.63,1,0.007,-0.033,-0.007,-0.019,-0.013,0.002,-1.616,0.038,-0.033,41.74,91.7,40.522408,-3.413188,631.1,4,5,325.2,1.055
42.73,1,0.007,-0.03,-0.014,0.003,-0.028,-0.004,-1.614,0.04,-0.03,41.74,91.7,40.522408,-3.413188,631.1,4,5,325.2,1.055
42.83,1,-0.023,-0.028,-0.03,-0.004,-0.029,-0.021,-1.612,0.041,-0.028,41.74,91.7,40.522408,-3.413188,631.1,4,5,325.2,1.055
42.93,1,-0.058,0.002,0.018,-0.036,-0.015,-0.006,-1.615,0.04,-0.025,41.74,91.7,40.522408,-3.413188,631.1,4,5,325.2,1.055
43.03,1,-0.0,-0.026,0.018,-0.03,-0.015,0.011,-1.617,0.039,-0.022,42.73,91.4,40.522591,-3.413359,632.4,4,5,325.2,1.055
43.14,1,-0.025,0.005,-0.031,-0.015,-0.011,-0.007,-1.613,0.035,-0.02,42.73,91.4,40.522591,-3.413359,632.4,4,5,325.2,1.055
43.23,1,-0.038,0.047,-0.0,-0.029,0.013,-0.015,-1.612,0.027,-0.02,42.73,91.4,40.522591,-3.413359,632.4,4,5,325.2,1.055
43.33,1,0.005,0.05,0.024,-0.018,0.04,0.009,-1.613,0.022,-0.019,42.73,91.4,40.522591,-3.413359,632.4,4,5,325.2,1.055
43.43,1,0.031,0.049,-0.014,0.008,0.046,0.004,-1.613,0.016,-0.018,42.73,91.4,40.522591,-3.413359,632.4,4,5,325.2,1.055
43.53,1,0.008,0.018,0.0,0.014,0.036,0.001,-1.612,0.012,-0.017,42.73,91.4,40.522591,-3.413359,632.4,4,5,325.2,1.055
43.63,1,-0.018,0.01,-0.002,0.001,0.019,-0.002,-1.611,0.008,-0.016,42.73,91.4,40.522591,-3.413359,632.4,4,5,325.2,1.055
43.73,1,-0.048,0.012,-0.002,-0.021,0.014,-0.003,-1.612,0.006,-0.015,42.73,91.4,40.522591,-3.413359,632.4,4,5,325.2,1.055
43.83,1,-0.028,0.005,0.022,-0.038,0.011,0.004,-1.613,0.004,-0.013,42.73,91.4,40.522591,-3.413359,632.4,4,5,325.2,1.055
43.93,1,-0.011,-0.007,-0.008,-0.02,0.004,0.006,-1.614,0.004,-0.011,42.73,91.4,40.522591,-3.413359,632.4,4,5,325.2,1.055
44.03,1,0.024,-0.029,-0.001,-0.003,-0.012,0.0,-1.613,0.005,-0.008,43.77,93.2,40.522747,-3.413555,633.4,4,5,320.6,4.57
44.14,1,-0.05,-0.053,0.004,-0.015,-0.034,0.0,-1.611,0.007,-0.005,43.77,93.2,40.522747,-3.413555,633.4,4,5,320.6,4.57
44.23,1,-0.007,-0.064,0.011,-0.012,-0.049,0.008,-1.612,0.01,-0.001,43.77,93.2,40.522747,-3.413555,633.4,4,5,320.6,4.57
44.34,1,-0.016,-0.065,-0.002,-0.019,-0.062,0.005,-1.613,0.012,0.002,43.77,93.2,40.522747,-3.413555,633.4,4,5,320.6,4.57
44.43,1,-0.033,-0.022,0.001,-0.023,-0.047,-0.004,-1.613,0.013,0.005,43.77,93.2,40.522747,-3.413555,633.4,4,5,320.6,4.57
44.53,1,-0.008,0.002,-0.002,-0.019,-0.019,0.001,-1.614,0.011,0.008,43.77,93.2,40.522747,-3.413555,633.4,4,5,320.6,4.57
44.63,1,-0.033,0.001,-0.016,-0.027,-0.009,-0.005,-1.613,0.011,0.012,43.77,93.2,40.522747,-3.413555,633.4,4,5,320.6,4.57
44.73,1,-0.029,-0.027,0.006,-0.027,-0.014,-0.002,-1.612,0.011,0.016,43.77,93.2,40.522747,-3.413555,633.4,4,5,320.6,4.57
44.83,1,-0.017,-0.034,0.003,-0.022,-0.024,-0.003,-1.611,0.012,0.019,43.77,93.2,40.522747,-3.413555,633.4,4,5,320.6,4.57
44.93,1,0.008,-0.046,-0.009,-0.006,-0.033,-0.004,-1.609,0.012,0.023,43.77,93.2,40.522747,-3.413555,633.4,4,5,320.6,4.57
45.03,1,0.008,-0.028,-0.009,-0.004,-0.037,-0.002,-1.61,0.01,0.026,44.74,93.4,40.522934,-3.413749,634.5,4,5,319.9,5.273
45.13,1,0.019,-0.016,-0.014,0.01,-0.028,-0.007,-1.608,0.009,0.029,44.74,93.4,40.522934,-3.413749,634.5,4,5,319.9,5.273
45.23,1,0.007,0.015,-0.001,0.016,-0.007,-0.013,-1.607,0.006,0.033,44.74,93.4,40.522934,-3.413749,634.5,4,5,319.9,5.273
45.33,1,-0.021,-0.004,-0.007,-0.005,0.001,-0.007,-1.608,0.006,0.037,44.74,93.4,40.522934,-3.413749,634.5,4,5,319.9,5.273
45.43,1,0.035,-0.028,-0.007,0.006,-0.011,-0.001,-1.607,0.009,0.041,44.74,93.4,40.522934,-3.413749,634.5,4,5,319.9,5.273
45.54,1,-0.012,-0.045,-0.029,0.003,-0.032,-0.016,-1.603,0.011,0.045,44.74,93.4,40.522934,-3.413749,634.5,4,5,319.9,5.273
45.64,1,0.028,-0.023,-0.004,0.01,-0.03,-0.017,-1.601,0.01,0.048,44.74,93.4,40.522934,-3.413749,634.5,4,5,319.9,5.273
45.73,1,0.045,0.026,-0.001,0.033,-0.006,-0.006,-1.6,0.006,0.051,44.74,93.4,40.522934,-3.413749,634.5,4,5,319.9,5.273
45.83,1,0.065,-0.013,-0.043,0.051,-0.0,-0.021,-1.594,0.007,0.056,44.74,93.4,40.522934,-3.413749,634.5,4,5,319.9,5.273
45.93,1,-0.057,-0.026,-0.047,0.01,-0.013,-0.034,-1.592,0.012,0.06,44.74,93.4,40.522934,-3.413749,634.5,4,5,319.9,5.273
46.04,1,-0.138,-0.032,0.002,-0.067,-0.025,-0.024,-1.594,0.015,0.064,45.74,94.0,40.523109,-3.413952,635.2,3,5,317.8,2.812
46.14,1,-0.122,-0.023,0.004,-0.11,-0.026,-0.012,-1.597,0.015,0.068,45.74,94.0,40.523109,-3.413952,635.2,3,5,317.8,2.812
46.24,1,-0.012,-0.02,0.023,-0.073,-0.019,0.013,-1.601,0.016,0.072,45.74,94.0,40.523109,-3.413952,635.2,3,5,317.8,2.812
46.34,1,0.049,-0.026,-0.01,-0.011,-0.026,0.006,-1.6,0.018,0.076,45.74,94.0,40.523109,-3.413952,635.2,3,5,317.8,2.812
46.44,1,0.049,-0.015,0.016,0.031,-0.02,0.001,-1.601,0.022,0.08,45.74,94.0,40.523109,-3.413952,635.2,3,5,317.8,2.812
46.54,1,0.072,-0.015,0.01,0.056,-0.018,0.01,-1.6,0.023,0.084,45.74,94.0,40.523109,-3.413952,635.2,3,5,317.8,2.812
46.64,1,0.002,-0.025,-0.038,0.035,-0.018,-0.006,-1.598,0.024,0.088,45.74,94.0,40.523109,-3.413952,635.2,3,5,317.8,2.812
46.74,1,-0.114,0.01,-0.002,-0.03,-0.01,-0.017,-1.598,0.024,0.092,45.74,94.0,40.523109,-3.413952,635.2,3,5,317.8,2.812
46.84,1,-0.056,-0.001,0.053,-0.063,0.004,0.017,-1.602,0.026,0.096,45.74,94.0,40.523109,-3.413952,635.2,3,5,317.8,2.812
46.94,1,-0.022,-0.03,-0.043,-0.045,-0.011,0.006,-1.602,0.028,0.101,45.74,94.0,40.523109,-3.413952,635.2,3,5,317.8,2.812
47.04,1,0.003,-0.035,-0.013,-0.025,-0.029,-0.019,-1.603,0.027,0.105,46.75,95.2,40.523281,-3.414165,636.6,3,5,316.8,3.164
47.14,1,0.013,0.006,0.008,0.007,-0.016,0.0,-1.605,0.028,0.11,46.75,95.2,40.523281,-3.414165,636.6,3,5,316.8,3.164
47.24,1,0.009,-0.014,-0.031,-0.004,-0.008,-0.02,-1.601,0.027,0.114,46.75,95.2,40.523281,-3.414165,636.6,3,5,316.8,3.164
47.34,1,0.022,-0.023,-0.031,0.017,-0.018,-0.02,-1.599,0.028,0.12,46.75,95.2,40.523281,-3.414165,636.6,3,5,316.8,3.164
47.44,1,0.014,-0.033,-0.053,0.019,-0.024,-0.035,-1.593,0.03,0.125,46.75,95.2,40.523281,-3.414165,636.6,3,5,316.8,3.164
47.54,1,-0.012,-0.046,-0.041,0.003,-0.036,-0.042,-1.588,0.034,0.13,46.75,95.2,40.523281,-3.414165,636.6,3,5,316.8,3.164
47.64,1,0.011,-0.005,-0.032,0.005,-0.028,-0.041,-1.583,0.037,0.135,46.75,95.2,40.523281,-3.414165,636.6,3,5,316.8,3.164
47.74,1,0.042,-0.016,-0.027,0.021,-0.016,-0.034,-1.581,0.042,0.14,46.75,95.2,40.523281,-3.414165,636.6,3,5,316.8,3.164
47.84,1,0.031,-0.015,-0.051,0.031,-0.019,-0.035,-1.577,0.042,0.145,46.75,95.2,40.523281,-3.414165,636.6,3,5,316.8,3.164
47.94,1,-0.015,0.007,-0.032,0.01,-0.007,-0.039,-1.572,0.041,0.149,46.75,95.2,40.523281,-3.414165,636.6,3,5,316.8,3.164
48.05,1,-0.009,0.016,-0.022,-0.001,0.008,-0.029,-1.569,0.038,0.152,47.74,96.7,40.523464,-3.414392,637.3,3,5,314.6,3.164
48.14,1,0.002,0.019,-0.031,0.002,0.011,-0.034,-1.565,0.035,0.155,47.74,96.7,40.523464,-3.414392,637.3,3,5,314.6,3.164
48.24,1,-0.033,0.025,-0.026,-0.018,0.021,-0.029,-1.564,0.031,0.158,47.74,96.7,40.523464,-3.414392,637.3,3,5,314.6,3.164
48.34,1,0.044,0.025,-0.018,0.008,0.024,-0.018,-1.563,0.027,0.161,47.74,96.7,40.523464,-3.414392,637.3,3,5,314.6,3.164
48.45,1,0.008,0.038,-0.039,0.014,0.03,-0.028,-1.559,0.024,0.165,47.74,96.7,40.523464,-3.414392,637.3,3,5,314.6,3.164
48.54,1,-0.017,0.032,-0.021,0.001,0.031,-0.029,-1.555,0.021,0.167,47.74,96.7,40.523464,-3.414392,637.3,3,5,314.6,3.164
48.65,1,-0.009,0.026,-0.013,-0.006,0.031,-0.019,-1.554,0.019,0.17,47.74,96.7,40.523464,-3.414392,637.3,3,5,314.6,3.164
48.75,1,-0.028,0.025,-0.041,-0.015,0.026,-0.027,-1.551,0.016,0.173,47.74,96.7,40.523464,-3.414392,637.3,3,5,314.6,3.164
48.84,1,-0.008,0.027,0.008,-0.018,0.026,-0.017,-1.551,0.017,0.176,47.74,96.7,40.523464,-3.414392,637.3,3,5,314.6,3.164
48.94,1,0.043,0.017,-0.022,0.008,0.025,-0.009,-1.549,0.016,0.179,47.74,96.7,40.523464,-3.414392,637.3,3,5,314.6,3.164
49.05,1,-0.038,0.03,-0.046,0.004,0.024,-0.032,-1.544,0.015,0.182,48.8,94.0,40.523621,-3.414627,638.7,3,5,310.8,5.977
49.14,1,0.002,0.0,0.011,-0.015,0.017,-0.02,-1.544,0.015,0.184,48.8,94.0,40.523621,-3.414627,638.7,3,5,310.8,5.977
49.25,1,0.014,-0.005,-0.021,0.006,0.003,-0.006,-1.544,0.015,0.187,48.8,94.0,40.523621,-3.414627,638.7,3,5,310.8,5.977
49.34,1,-0.033,-0.005,-0.049,-0.003,0.001,-0.031,-1.539,0.014,0.19,48.8,94.0,40.523621,-3.414627,638.7,3,5,310.8,5.977
49.45,1,-0.016,0.023,-0.009,-0.02,0.004,-0.029,-1.539,0.012,0.192,48.8,94.0,40.523621,-3.414627,638.7,3,5,310.8,5.977
49.54,1,0.021,0.012,-0.012,-0.006,0.013,-0.013,-1.538,0.01,0.196,48.8,94.0,40.523621,-3.414627,638.7,3,5,310.8,5.977
49.65,1,0.049,0.001,-0.035,0.027,0.01,-0.024,-1.534,0.01,0.198,48.8,94.0,40.523621,-3.414627,638.7,3,5,310.8,5.977
49.75,1,0.046,0.004,-0.0,0.036,0.001,-0.017,-1.528,0.01,0.201,48.8,94.0,40.523621,-3.414627,638.7,3,5,310.8,5.977
49.85,1,-0.005,-0.013,-0.018,0.024,-0.003,-0.011,-1.526,0.009,0.204,48.8,94.0,40.523621,-3.414627,638.7,3,5,310.8,5.977
49.95,1,-0.015,0.016,-0.023,0.008,0.003,-0.024,-1.523,0.009,0.207,48.8,94.0,40.523621,-3.414627,638.7,3,5,310.8,5.977
50.05,1,-0.047,0.026,-0.005,-0.028,0.018,-0.011,-1.523,0.008,0.21,49.74,92.5,40.523766,-3.414858,639.3,3,5,309.0,5.625
50.15,1,-0.007,0.003,-0.006,-0.028,0.012,-0.009,-1.523,0.006,0.213,49.74,92.5,40.523766,-3.414858,639.3,3,5,309.0,5.625
50.25,1,0.042,0.025,0.013,0.011,0.014,0.005,-1.523,0.001,0.216,49.74,92.5,40.523766,-3.414858,639.3,3,5,309.0,5.625
50.35,1,0.023,0.016,-0.041,0.024,0.02,-0.016,-1.52,0.001,0.219,49.74,92.5,40.523766,-3.414858,639.3,3,5,309.0,5.625
50.45,1,-0.02,-0.008,-0.011,0.005,0.009,-0.021,-1.519,0.002,0.222,49.74,92.5,40.523766,-3.414858,639.3,3,5,309.0,5.625
50.55,1,0.008,0.008,0.002,0.002,0.002,-0.007,-1.518,0.003,0.225,49.74,92.5,40.523766,-3.414858,639.3,3,5,309.0,5.625
50.65,1,0.017,-0.0,-0.011,0.006,0.005,-0.008,-1.517,0.005,0.228,49.74,92.5,40.523766,-3.414858,639.3,3,5,309.0,5.625
50.75,1,-0.03,-0.017,-0.012,-0.007,-0.008,-0.014,-1.515,0.005,0.231,49.74,92.5,40.523766,-3.414858,639.3,3,5,309.0,5.625
50.85,1,0.019,-0.011,-0.013,-0.001,-0.008,-0.006,-1.513,0.008,0.234,49.74,92.5,40.523766,-3.414858,639.3,3,5,309.0,5.625
50.95,1,-0.026,-0.006,-0.024,-0.004,-0.013,-0.021,-1.512,0.007,0.237,49.74,92.5,40.523766,-3.414858,639.3,3,5,309.0,5.625
51.05,1,-0.054,0.011,0.004,-0.031,-0.001,-0.01,-1.513,0.007,0.241,50.75,89.1,40.523907,-3.415094,639.6,3,5,306.9,3.867
51.15,1,-0.016,0.005,-0.01,-0.025,0.003,-0.005,-1.512,0.009,0.244,50.75,89.1,40.523907,-3.415094,639.6,3,5,306.9,3.867
51.25,1,0.008,-0.007,0.012,-0.018,0.004,-0.001,-1.511,0.01,0.247,50.75,89.1,40.523907,-3.415094,639.6,3,5,306.9,3.867
51.35,1,0.034,-0.008,-0.01,0.015,-0.005,0.003,-1.511,0.01,0.25,50.75,89.1,40.523907,-3.415094,639.6,3,5,306.9,3.867
51.45,1,-0.016,0.007,-0.017,0.011,-0.002,-0.012,-1.508,0.009,0.253,50.75,89.1,40.523907,-3.415094,639.6,3,5,306.9,3.867
51.55,1,0.012,0.003,0.009,-0.0,0.002,-0.005,-1.508,0.008,0.256,50.75,89.1,40.523907,-3.415094,639.6,3,5,306.9,3.867
51.65,1,0.023,0.021,0.0,0.011,0.012,0.004,-1.508,0.006,0.259,50.75,89.1,40.523907,-3.415094,639.6,3,5,306.9,3.867
51.76,1,-0.002,0.009,-0.033,0.011,0.014,-0.014,-1.505,0.004,0.262,50.75,89.1,40.523907,-3.415094,639.6,3,5,306.9,3.867
51.85,1,-0.009,0.004,-0.008,0.002,0.007,-0.016,-1.504,0.006,0.265,50.75,89.1,40.523907,-3.415094,639.6,3,5,306.9,3.867
51.95,1,-0.05,0.016,0.003,-0.03,0.009,-0.01,-1.504,0.006,0.267,50.75,89.1,40.523907,-3.415094,639.6,3,5,306.9,3.867
52.05,1,0.003,0.014,0.022,-0.022,0.017,0.009,-1.506,0.005,0.27,51.75,87.2,40.524036,-3.415329,639.8,3,5,305.2,3.867
52.15,1,0.055,0.006,0.0,0.024,0.01,0.01,-1.507,0.005,0.272,51.75,87.2,40.524036,-3.415329,639.8,3,5,305.2,3.867
52.26,1,0.021,0.012,-0.012,0.028,0.009,-0.002,-1.505,0.004,0.275,51.75,87.2,40.524036,-3.415329,639.8,3,5,305.2,3.867
52.35,1,0.001,0.026,0.003,0.014,0.014,-0.007,-1.503,0.004,0.277,51.75,87.2,40.524036,-3.415329,639.8,3,5,305.2,3.867
52.45,1,-0.045,0.02,-0.01,-0.014,0.02,-0.004,-1.502,0.005,0.279,51.75,87.2,40.524036,-3.415329,639.8,3,5,305.2,3.867
52.55,1,-0.017,0.005,0.01,-0.023,0.016,-0.002,-1.505,0.004,0.282,51.75,87.2,40.524036,-3.415329,639.8,3,5,305.2,3.867
52.65,1,0.022,-0.008,-0.001,-0.005,0.003,0.006,-1.506,0.005,0.284,51.75,87.2,40.524036,-3.415329,639.8,3,5,305.2,3.867
52.75,1,0.017,0.008,-0.016,0.015,0.006,-0.005,-1.503,0.005,0.286,51.75,87.2,40.524036,-3.415329,639.8,3,5,305.2,3.867
52.85,1,-0.014,0.038,-0.003,0.007,0.017,-0.008,-1.502,0.002,0.288,51.75,87.2,40.524036,-3.415329,639.8,3,5,305.2,3.867
52.95,1,-0.01,0.016,0.001,-0.008,0.022,-0.003,-1.503,0.0,0.291,51.75,87.2,40.524036,-3.415329,639.8,3,5,305.2,3.867
53.05,1,-0.023,0.004,-0.017,-0.014,0.014,-0.007,-1.503,-0.001,0.294,52.74,86.1,40.524155,-3.415562,640.2,3,5,303.0,3.867
53.16,1,-0.041,-0.017,-0.01,-0.026,-0.002,-0.011,-1.502,0.001,0.297,52.74,86.1,40.524155,-3.415562,640.2,3,5,303.0,3.867
53.26,1,-0.008,-0.013,0.019,-0.031,-0.007,-0.0,-1.504,0.001,0.299,52.74,86.1,40.524155,-3.415562,640.2,3,5,303.0,3.867
53.36,1,0.039,0.01,0.0,0.008,-0.003,0.007,-1.502,-0.0,0.301,52.74,86.1,40.524155,-3.415562,640.2,3,5,303.0,3.867
53.46,1,0.047,0.021,-0.015,0.032,0.01,-0.003,-1.499,-0.001,0.304,52.74,86.1,40.524155,-3.415562,640.2,3,5,303.0,3.867
53.56,1,0.023,0.01,-0.007,0.033,0.012,-0.008,-1.496,-0.001,0.306,52.74,86.1,40.524155,-3.415562,640.2,3,5,303.0,3.867
53.66,1,-0.043,0.006,-0.004,0.001,0.013,-0.004,-1.496,-0.001,0.308,52.74,86.1,40.524155,-3.415562,640.2,3,5,303.0,3.867
53.76,1,-0.021,0.025,0.013,-0.019,0.013,0.001,-1.497,-0.002,0.31,52.74,86.1,40.524155,-3.415562,640.2,3,5,303.0,3.867
53.86,1,0.002,0.021,0.014,-0.014,0.013,0.01,-1.499,-0.004,0.311,52.74,86.1,40.524155,-3.415562,640.2,3,5,303.0,3.867
53.96,1,0.014,0.043,-0.01,0.004,0.033,0.003,-1.497,-0.007,0.312,52.74,86.1,40.524155,-3.415562,640.2,3,5,303.0,3.867
54.06,1,0.002,0.041,0.006,0.005,0.037,0.0,-1.499,-0.007,0.313,53.74,84.1,40.524269,-3.41581,639.9,3,5,300.9,4.219
54.16,1,-0.018,0.004,0.024,-0.004,0.027,0.01,-1.501,-0.008,0.314,53.74,84.1,40.524269,-3.41581,639.9,3,5,300.9,4.219
54.26,1,0.003,-0.004,0.026,-0.007,0.008,0.019,-1.503,-0.008,0.315,53.74,84.1,40.524269,-3.41581,639.9,3,5,300.9,4.219
54.36,1,0.009,0.014,0.039,0.003,0.009,0.03,-1.504,-0.012,0.316,53.74,84.1,40.524269,-3.41581,639.9,3,5,300.9,4.219
54.46,1,-0.009,0.046,0.01,-0.001,0.024,0.023,-1.505,-0.015,0.317,53.74,84.1,40.524269,-3.41581,639.9,3,5,300.9,4.219
54.57,1,-0.025,0.026,0.024,-0.011,0.032,0.02,-1.507,-0.017,0.318,53.74,84.1,40.524269,-3.41581,639.9,3,5,300.9,4.219
54.66,1,-0.012,0.002,0.044,-0.018,0.021,0.031,-1.512,-0.018,0.319,53.74,84.1,40.524269,-3.41581,639.9,3,5,300.9,4.219
54.76,1,0.014,0.0,0.045,-0.004,0.005,0.04,-1.516,-0.017,0.32,53.74,84.1,40.524269,-3.41581,639.9,3,5,300.9,4.219
54.86,1,0.019,0.009,0.024,0.015,0.004,0.036,-1.518,-0.017,0.321,53.74,84.1,40.524269,-3.41581,639.9,3,5,300.9,4.219
54.96,1,0.005,0.022,0.028,0.008,0.015,0.028,-1.521,-0.02,0.322,53.74,84.1,40.524269,-3.41581,639.9,3,5,300.9,4.219
55.06,1,-0.013,0.005,0.047,-0.001,0.011,0.036,-1.524,-0.022,0.322,54.79,82.6,40.524376,-3.41605,639.9,3,5,299.2,3.867
55.17,1,-0.024,0.021,0.051,-0.011,0.013,0.046,-1.53,-0.025,0.323,54.79,82.6,40.524376,-3.41605,639.9,3,5,299.2,3.867
55.27,1,-0.024,0.005,0.044,-0.024,0.011,0.044,-1.534,-0.028,0.324,54.79,82.6,40.524376,-3.41605,639.9,3,5,299.2,3.867
55.36,1,-0.007,0.014,0.045,-0.019,0.015,0.047,-1.538,-0.029,0.324,54.79,82.6,40.524376,-3.41605,639.9,3,5,299.2,3.867
55.46,1,-0.005,-0.01,0.028,-0.006,0.0,0.038,-1.539,-0.028,0.325,54.79,82.6,40.524376,-3.41605,639.9,3,5,299.2,3.867
55.56,1,0.001,-0.002,0.035,-0.004,0.002,0.034,-1.542,-0.029,0.325,54.79,82.6,40.524376,-3.41605,639.9,3,5,299.2,3.867
55.67,1,0.016,-0.019,0.049,0.005,-0.01,0.042,-1.546,-0.028,0.326,54.79,82.6,40.524376,-3.41605,639.9,3,5,299.2,3.867
55.77,1,0.015,-0.024,0.035,0.013,-0.018,0.041,-1.548,-0.026,0.328,54.79,82.6,40.524376,-3.41605,639.9,3,5,299.2,3.867
55.87,1,0.003,-0.027,0.024,0.007,-0.021,0.032,-1.55,-0.023,0.33,54.79,82.6,40.524376,-3.41605,639.9,3,5,299.2,3.867
55.97,1,0.009,-0.017,0.023,0.007,-0.018,0.027,-1.553,-0.022,0.332,54.79,82.6,40.524376,-3.41605,639.9,3,5,299.2,3.867
56.06,1,-0.028,-0.015,0.007,-0.006,-0.018,0.018,-1.554,-0.02,0.334,55.77,82.1,40.524475,-3.416282,639.9,3,5,298.1,2.812
56.16,1,-0.021,-0.023,0.012,-0.017,-0.02,0.011,-1.556,-0.02,0.336,55.77,82.1,40.524475,-3.416282,639.9,3,5,298.1,2.812
56.26,1,-0.029,-0.021,0.01,-0.025,-0.02,0.011,-1.559,-0.017,0.339,55.77,82.1,40.524475,-3.416282,639.9,3,5,298.1,2.812
56.36,1,-0.032,-0.03,0.007,-0.028,-0.026,0.009,-1.56,-0.014,0.342,55.77,82.1,40.524475,-3.416282,639.9,3,5,298.1,2.812
56.47,1,0.005,-0.052,0.021,-0.016,-0.039,0.013,-1.561,-0.011,0.345,55.77,82.1,40.524475,-3.416282,639.9,3,5,298.1,2.812
56.57,1,0.042,-0.039,0.016,0.01,-0.041,0.018,-1.561,-0.008,0.347,55.77,82.1,40.524475,-3.416282,639.9,3,5,298.1,2.812
56.67,1,0.05,-0.025,0.009,0.039,-0.037,0.014,-1.56,-0.008,0.35,55.77,82.1,40.524475,-3.416282,639.9,3,5,298.1,2.812
56.77,1,0.002,-0.001,-0.018,0.025,-0.016,-0.003,-1.559,-0.006,0.353,55.77,82.1,40.524475,-3.416282,639.9,3,5,298.1,2.812
56.87,1,-0.038,-0.012,-0.006,-0.008,-0.013,-0.006,-1.559,-0.003,0.356,55.77,82.1,40.524475,-3.416282,639.9,3,5,298.1,2.812
56.97,1,0.001,-0.039,-0.008,-0.012,-0.021,-0.008,-1.558,-0.001,0.359,55.77,82.1,40.524475,-3.416282,639.9,3,5,298.1,2.812
57.07,1,0.007,-0.05,-0.007,-0.0,-0.037,-0.005,-1.555,0.005,0.362,56.73,81.6,40.524574,-3.416522,640.1,3,5,296.7,2.461
57.18,1,0.025,-0.041,-0.011,0.012,-0.045,-0.008,-1.553,0.008,0.365,56.73,81.6,40.524574,-3.416522,640.1,3,5,296.7,2.461
57.27,1,0.005,0.001,-0.025,0.011,-0.016,-0.018,-1.551,0.012,0.369,56.73,81.6,40.524574,-3.416522,640.1,3,5,296.7,2.461
57.37,1,-0.003,-0.014,-0.018,0.005,-0.017,-0.019,-1.55,0.013,0.372,56.73,81.6,40.524574,-3.416522,640.1,3,5,296.7,2.461
57.47,1,-0.012,-0.01,-0.012,-0.005,-0.012,-0.016,-1.549,0.013,0.375,56.73,81.6,40.524574,-3.416522,640.1,3,5,296.7,2.461
57.57,1,-0.029,-0.012,-0.002,-0.017,-0.013,-0.013,-1.55,0.016,0.378,56.73,81.6,40.524574,-3.416522,640.1,3,5,296.7,2.461
57.68,1,-0.005,-0.032,0.018,-0.016,-0.022,0.008,-1.55,0.02,0.383,56.73,81.6,40.524574,-3.416522,640.1,3,5,296.7,2.461
57.77,1,0.04,-0.045,-0.026,0.009,-0.031,-0.009,-1.546,0.023,0.387,56.73,81.6,40.524574,-3.416522,640.1,3,5,296.7,2.461
57.87,1,0.041,-0.05,-0.01,0.031,-0.045,-0.01,-1.544,0.026,0.391,56.73,81.6,40.524574,-3.416522,640.1,3,5,296.7,2.461
57.97,1,-0.009,-0.05,-0.004,0.021,-0.049,-0.009,-1.541,0.027,0.395,56.73,81.6,40.524574,-3.416522,640.1,3,5,296.7,2.461
58.07,1,-0.025,0.017,0.008,-0.005,-0.025,-0.0,-1.542,0.024,0.398,57.76,83.6,40.524654,-3.416768,639.9,3,5,293.9,4.219
58.17,1,0.018,-0.002,0.024,-0.004,-0.004,0.012,-1.544,0.021,0.4,57.76,83.6,40.524654,-3.416768,639.9,3,5,293.9,4.219
58.27,1,0.031,0.01,0.016,0.009,0.002,0.015,-1.544,0.021,0.404,57.76,83.6,40.524654,-3.416768,639.9,3,5,293.9,4.219
58.37,1,0.042,0.011,0.02,0.034,0.007,0.021,-1.544,0.019,0.407,57.76,83.6,40.524654,-3.416768,639.9,3,5,293.9,4.219
58.47,1,-0.004,0.015,-0.03,0.025,0.009,-0.005,-1.543,0.019,0.409,57.76,83.6,40.524654,-3.416768,639.9,3,5,293.9,4.219
58.57,1,-0.012,0.03,0.028,0.002,0.022,0.006,-1.546,0.017,0.41,57.76,83.6,40.524654,-3.416768,639.9,3,5,293.9,4.219
58.67,1,-0.015,0.038,0.012,-0.01,0.03,0.011,-1.549,0.013,0.411,57.76,83.6,40.524654,-3.416768,639.9,3,5,293.9,4.219
58.77,1,-0.014,0.029,0.03,-0.017,0.032,0.02,-1.552,0.014,0.412,57.76,83.6,40.524654,-3.416768,639.9,3,5,293.9,4.219
58.88,1,0.021,0.022,0.022,0.002,0.026,0.024,-1.553,0.013,0.413,57.76,83.6,40.524654,-3.416768,639.9,3,5,293.9,4.219
58.98,1,0.024,0.054,0.028,0.016,0.034,0.024,-1.554,0.01,0.412,57.76,83.6,40.524654,-3.416768,639.9,3,5,293.9,4.219
59.08,1,0.012,0.07,0.027,0.016,0.057,0.026,-1.557,0.006,0.411,58.74,83.3,40.524731,-3.417026,639.9,3,5,290.7,5.977
59.17,1,-0.041,0.06,0.02,-0.004,0.061,0.025,-1.559,0.003,0.41,58.74,83.3,40.524731,-3.417026,639.9,3,5,290.7,5.977
59.27,1,-0.049,0.055,0.013,-0.038,0.059,0.016,-1.561,0.001,0.41,58.74,83.3,40.524731,-3.417026,639.9,3,5,290.7,5.977
59.37,1,-0.057,0.055,0.026,-0.046,0.054,0.02,-1.565,-0.001,0.409,58.74,83.3,40.524731,-3.417026,639.9,3,5,290.7,5.977
59.48,1,0.063,0.03,0.062,-0.014,0.048,0.038,-1.567,-0.003,0.408,58.74,83.3,40.524731,-3.417026,639.9,3,5,290.7,5.977
59.57,1,0.119,0.059,0.009,0.065,0.043,0.039,-1.564,-0.003,0.407,58.74,83.3,40.524731,-3.417026,639.9,3,5,290.7,5.977
59.68,1,0.077,0.023,0.011,0.089,0.033,0.013,-1.561,-0.002,0.406,58.74,83.3,40.524731,-3.417026,639.9,3,5,290.7,5.977
59.77,1,0.005,0.05,0.017,0.052,0.045,0.017,-1.562,-0.006,0.404,58.74,83.3,40.524731,-3.417026,639.9,3,5,290.7,5.977
59.87,1,-0.088,0.062,0.021,-0.017,0.058,0.02,-1.564,-0.01,0.403,58.74,83.3,40.524731,-3.417026,639.9,3,5,290.7,5.977
59.97,1,-0.099,0.027,0.02,-0.068,0.045,0.018,-1.567,-0.011,0.403,58.74,83.3,40.524731,-3.417026,639.9,3,5,290.7,5.977
60.08,1,-0.066,-0.013,0.04,-0.081,0.015,0.026,-1.571,-0.012,0.402,59.75,84.5,40.524796,-3.417296,639.6,3,5,289.3,4.57
60.18,1,-0.014,-0.015,0.022,-0.042,-0.005,0.033,-1.576,-0.012,0.401,59.75,84.5,40.524796,-3.417296,639.6,3,5,289.3,4.57
60.29,1,-0.001,0.012,0.013,-0.027,0.005,0.015,-1.578,-0.015,0.4,59.75,84.5,40.524796,-3.417296,639.6,3,5,289.3,4.57
60.38,1,0.039,-0.011,0.05,0.012,-0.0,0.035,-1.583,-0.015,0.4,59.75,84.5,40.524796,-3.417296,639.6,3,5,289.3,4.57
60.48,1,0.031,-0.023,0.009,0.028,-0.003,0.023,-1.582,-0.015,0.401,59.75,84.5,40.524796,-3.417296,639.6,3,5,289.3,4.57
60.58,1,0.022,-0.031,-0.007,0.025,-0.03,0.01,-1.581,-0.014,0.402,59.75,84.5,40.524796,-3.417296,639.6,3,5,289.3,4.57
60.68,1,-0.041,-0.021,0.044,-0.003,-0.032,0.018,-1.582,-0.013,0.403,59.75,84.5,40.524796,-3.417296,639.6,3,5,289.3,4.57
60.78,1,-0.014,-0.024,0.042,-0.018,-0.02,0.036,-1.584,-0.012,0.403,59.75,84.5,40.524796,-3.417296,639.6,3,5,289.3,4.57
60.88,1,-0.002,-0.019,0.01,-0.013,-0.023,0.027,-1.586,-0.011,0.404,59.75,84.5,40.524796,-3.417296,639.6,3,5,289.3,4.57
60.98,1,-0.04,-0.017,0.001,-0.019,-0.021,0.012,-1.587,-0.009,0.404,59.75,84.5,40.524796,-3.417296,639.6,3,5,289.3,4.57
61.08,1,-0.04,0.003,0.006,-0.034,-0.011,0.007,-1.59,-0.009,0.404,60.75,86.9,40.524853,-3.417555,639.4,3,5,288.6,2.109
61.18,1,-0.053,0.011,0.021,-0.047,0.002,0.01,-1.592,-0.009,0.404,60.75,86.9,40.524853,-3.417555,639.4,3,5,288.6,2.109
61.29,1,-0.004,0.015,0.031,-0.029,0.009,0.026,-1.595,-0.009,0.404,60.75,86.9,40.524853,-3.417555,639.4,3,5,288.6,2.109
61.38,1,0.012,-0.009,-0.008,0.002,0.006,0.009,-1.594,-0.008,0.405,60.75,86.9,40.524853,-3.417555,639.4,3,5,288.6,2.109
61.48,1,0.005,-0.017,0.002,0.0,-0.005,0.002,-1.595,-0.003,0.405,60.75,86.9,40.524853,-3.417555,639.4,3,5,288.6,2.109
61.58,1,0.014,0.001,0.007,0.008,-0.008,0.007,-1.595,0.002,0.405,60.75,86.9,40.524853,-3.417555,639.4,3,5,288.6,2.109
61.68,1,0.023,-0.015,0.008,0.01,-0.01,0.007,-1.595,0.006,0.405,60.75,86.9,40.524853,-3.417555,639.4,3,5,288.6,2.109
61.78,1,-0.001,0.008,-0.018,0.012,-0.003,-0.001,-1.594,0.006,0.405,60.75,86.9,40.524853,-3.417555,639.4,3,5,288.6,2.109
61.88,1,-0.013,0.028,-0.01,-0.002,0.011,-0.012,-1.593,0.005,0.404,60.75,86.9,40.524853,-3.417555,639.4,3,5,288.6,2.109
61.98,1,-0.03,0.043,0.007,-0.016,0.03,-0.001,-1.593,0.005,0.403,60.75,86.9,40.524853,-3.417555,639.4,3,5,288.6,2.109
62.09,1,-0.02,0.024,-0.017,-0.023,0.029,-0.005,-1.593,0.004,0.402,61.74,89.6,40.524925,-3.417831,639.0,3,5,287.6,1.758
62.19,1,-0.036,0.024,-0.016,-0.023,0.027,-0.013,-1.592,0.004,0.402,61.74,89.6,40.524925,-3.417831,639.0,3,5,287.6,1.758
62.28,1,-0.034,0.017,-0.003,-0.033,0.021,-0.01,-1.593,0.004,0.401,61.74,89.6,40.524925,-3.417831,639.0,3,5,287.6,1.758
62.38,1,-0.001,-0.01,0.002,-0.022,0.008,-0.003,-1.593,0.005,0.4,61.74,89.6,40.524925,-3.417831,639.0,3,5,287.6,1.758
62.48,1,-0.004,0.011,-0.011,-0.007,0.005,-0.007,-1.591,0.006,0.399,61.74,89.6,40.524925,-3.417831,639.0,3,5,287.6,1.758
62.59,1,0.023,0.014,-0.017,0.008,0.01,-0.013,-1.589,0.007,0.398,61.74,89.6,40.524925,-3.417831,639.0,3,5,287.6,1.758
62.69,1,-0.024,0.016,-0.04,-0.002,0.017,-0.025,-1.586,0.006,0.397,61.74,89.6,40.524925,-3.417831,639.0,3,5,287.6,1.758
62.79,1,-0.017,0.026,-0.013,-0.015,0.02,-0.025,-1.585,0.006,0.396,61.74,89.6,40.524925,-3.417831,639.0,3,5,287.6,1.758
62.88,1,0.035,0.021,-0.029,0.001,0.021,-0.02,-1.582,0.006,0.395,61.74,89.6,40.524925,-3.417831,639.0,3,5,287.6,1.758
62.99,1,0.016,0.015,-0.043,0.019,0.017,-0.033,-1.577,0.009,0.394,61.74,89.6,40.524925,-3.417831,639.0,3,5,287.6,1.758
63.09,1,0.001,0.033,-0.043,0.013,0.023,-0.038,-1.573,0.01,0.391,62.75,92.5,40.524979,-3.418113,639.0,3,5,286.5,2.109
63.18,1,-0.039,0.032,-0.046,-0.014,0.03,-0.042,-1.57,0.008,0.389,62.75,92.5,40.524979,-3.418113,639.0,3,5,286.5,2.109
63.3,1,-0.037,0.049,-0.03,-0.029,0.037,-0.039,-1.567,0.005,0.386,62.75,92.5,40.524979,-3.418113,639.0,3,5,286.5,2.109
63.39,1,-0.038,0.051,-0.025,-0.033,0.047,-0.032,-1.565,0.003,0.384,62.75,92.5,40.524979,-3.418113,639.0,3,5,286.5,2.109
63.49,1,-0.011,0.011,-0.018,-0.029,0.035,-0.03,-1.563,0.004,0.382,62.75,92.5,40.524979,-3.418113,639.0,3,5,286.5,2.109
63.59,1,0.039,-0.018,-0.013,0.011,0.008,-0.011,-1.562,0.007,0.38,62.75,92.5,40.524979,-3.418113,639.0,3,5,286.5,2.109
63.69,1,0.028,0.009,-0.044,0.017,-0.001,-0.029,-1.559,0.009,0.378,62.75,92.5,40.524979,-3.418113,639.0,3,5,286.5,2.109
63.8,1,-0.007,0.008,-0.032,0.009,0.005,-0.028,-1.556,0.01,0.376,62.75,92.5,40.524979,-3.418113,639.0,3,5,286.5,2.109
63.89,1,-0.039,-0.019,-0.024,-0.009,-0.003,-0.034,-1.553,0.013,0.375,62.75,92.5,40.524979,-3.418113,639.0,3,5,286.5,2.109
64.0,1,-0.017,-0.001,-0.007,-0.024,-0.003,-0.02,-1.553,0.015,0.374,62.75,92.5,40.524979,-3.418113,639.0,3,5,286.5,2.109
64.09,1,0.003,-0.014,-0.036,-0.007,-0.008,-0.024,-1.55,0.018,0.372,63.75,93.2,40.525047,-3.418401,638.8,3,5,285.8,1.758
64.19,1,-0.002,-0.023,-0.022,-0.004,-0.017,-0.027,-1.548,0.018,0.37,63.75,93.2,40.525047,-3.418401,638.8,3,5,285.8,1.758
64.29,1,0.033,-0.018,0.005,0.009,-0.019,-0.006,-1.547,0.015,0.368,63.75,93.2,40.525047,-3.418401,638.8,3,5,285.8,1.758
64.39,1,0.016,0.017,-0.052,0.02,-0.004,-0.025,-1.543,0.009,0.367,63.75,93.2,40.525047,-3.418401,638.8,3,5,285.8,1.758
64.49,1,-0.077,0.069,-0.03,-0.014,0.03,-0.035,-1.542,0.003,0.365,63.75,93.2,40.525047,-3.418401,638.8,3,5,285.8,1.758
64.59,1,-0.051,0.019,-0.006,-0.049,0.039,-0.025,-1.543,0.001,0.364,63.75,93.2,40.525047,-3.418401,638.8,3,5,285.8,1.758
64.69,1,-0.011,-0.018,-0.015,-0.036,0.01,-0.014,-1.544,0.006,0.363,63.75,93.2,40.525047,-3.418401,638.8,3,5,285.8,1.758
64.8,1,0.028,-0.007,-0.008,-0.004,-0.006,-0.011,-1.544,0.011,0.362,63.75,93.2,40.525047,-3.418401,638.8,3,5,285.8,1.758
64.89,1,0.043,-0.0,-0.036,0.022,-0.004,-0.015,-1.54,0.015,0.36,63.75,93.2,40.525047,-3.418401,638.8,3,5,285.8,1.758
65.0,1,0.009,0.018,-0.029,0.024,0.005,-0.032,-1.535,0.016,0.358,63.75,93.2,40.525047,-3.418401,638.8,3,5,285.8,1.758
65.09,1,-0.041,0.035,-0.017,-0.005,0.02,-0.023,-1.533,0.015,0.356,64.73,94.6,40.525116,-3.418695,638.2,3,5,285.1,1.406
65.2,1,-0.013,0.034,-0.008,-0.021,0.032,-0.017,-1.533,0.012,0.353,64.73,94.6,40.525116,-3.418695,638.2,3,5,285.1,1.406
65.3,1,0.01,0.024,-0.019,-0.003,0.03,-0.015,-1.531,0.012,0.35,64.73,94.6,40.525116,-3.418695,638.2,3,5,285.1,1.406
65.39,1,0.006,0.034,0.001,0.004,0.032,-0.012,-1.529,0.012,0.347,64.73,94.6,40.525116,-3.418695,638.2,3,5,285.1,1.406
65.49,1,-0.006,0.012,-0.024,0.0,0.02,-0.01,-1.528,0.013,0.345,64.73,94.6,40.525116,-3.418695,638.2,3,5,285.1,1.406
65.59,1,-0.022,0.024,-0.007,-0.01,0.019,-0.013,-1.526,0.012,0.341,64.73,94.6,40.525116,-3.418695,638.2,3,5,285.1,1.406
65.7,1,-0.033,0.016,-0.024,-0.023,0.022,-0.018,-1.526,0.012,0.338,64.73,94.6,40.525116,-3.418695,638.2,3,5,285.1,1.406
65.79,1,-0.037,0.025,-0.001,-0.033,0.022,-0.013,-1.527,0.011,0.335,64.73,94.6,40.525116,-3.418695,638.2,3,5,285.1,1.406
65.89,1,-0.01,-0.003,-0.012,-0.023,0.012,-0.005,-1.527,0.01,0.331,64.73,94.6,40.525116,-3.418695,638.2,3,5,285.1,1.406
65.99,1,0.005,0.026,-0.047,-0.008,0.015,-0.027,-1.524,0.01,0.328,64.73,94.6,40.525116,-3.418695,638.2,3,5,285.1,1.406
66.09,1,0.024,0.04,-0.043,0.012,0.024,-0.036,-1.518,0.008,0.325,65.75,95.8,40.525181,-3.418991,637.1,3,5,285.8,0.703
66.21,1,-0.001,0.039,-0.04,0.006,0.037,-0.045,-1.512,0.005,0.321,65.75,95.8,40.525181,-3.418991,637.1,3,5,285.8,0.703
66.3,1,0.008,0.026,0.01,0.002,0.032,-0.021,-1.512,0.004,0.318,65.75,95.8,40.525181,-3.418991,637.1,3,5,285.8,0.703
66.4,1,-0.014,0.023,0.001,0.0,0.027,0.0,-1.513,0.006,0.315,65.75,95.8,40.525181,-3.418991,637.1,3,5,285.8,0.703
66.5,1,-0.039,0.002,0.006,-0.022,0.015,-0.002,-1.514,0.006,0.311,65.75,95.8,40.525181,-3.418991,637.1,3,5,285.8,0.703
66.59,1,-0.038,0.042,0.028,-0.03,0.024,0.016,-1.516,0.005,0.308,65.75,95.8,40.525181,-3.418991,637.1,3,5,285.8,0.703
66.69,1,-0.033,0.024,0.018,-0.032,0.03,0.02,-1.519,0.002,0.303,65.75,95.8,40.525181,-3.418991,637.1,3,5,285.8,0.703
66.8,1,-0.016,0.027,0.017,-0.025,0.025,0.017,-1.521,0.001,0.299,65.75,95.8,40.525181,-3.418991,637.1,3,5,285.8,0.703
66.9,1,-0.013,0.04,0.035,-0.02,0.034,0.023,-1.523,0.0,0.295,65.75,95.8,40.525181,-3.418991,637.1,3,5,285.8,0.703
67.0,1,0.005,0.034,0.021,-0.011,0.033,0.022,-1.526,-0.001,0.29,65.75,95.8,40.525181,-3.418991,637.1,3,5,285.8,0.703
67.1,1,0.004,0.04,0.037,-0.0,0.036,0.029,-1.527,-0.004,0.286,66.75,93.5,40.525249,-3.419288,636.6,3,5,286.5,1.406
67.2,1,-0.001,0.035,0.005,0.004,0.036,0.025,-1.529,-0.006,0.281,66.75,93.5,40.525249,-3.419288,636.6,3,5,286.5,1.406
67.3,1,-0.034,0.038,0.014,-0.015,0.035,0.014,-1.531,-0.008,0.276,66.75,93.5,40.525249,-3.419288,636.6,3,5,286.5,1.406
67.4,1,-0.028,0.031,0.052,-0.025,0.034,0.031,-1.534,-0.006,0.272,66.75,93.5,40.525249,-3.419288,636.6,3,5,286.5,1.406
67.5,1,0.009,0.018,0.004,-0.009,0.03,0.023,-1.534,-0.003,0.267,66.75,93.5,40.525249,-3.419288,636.6,3,5,286.5,1.406
67.61,1,-0.037,0.035,-0.002,-0.012,0.028,0.012,-1.535,-0.005,0.263,66.75,93.5,40.525249,-3.419288,636.6,3,5,286.5,1.406
67.71,1,-0.106,0.03,-0.023,-0.059,0.032,-0.015,-1.538,-0.007,0.258,66.75,93.5,40.525249,-3.419288,636.6,3,5,286.5,1.406
67.8,1,-0.091,0.036,0.052,-0.092,0.032,0.019,-1.544,-0.006,0.254,66.75,93.5,40.525249,-3.419288,636.6,3,5,286.5,1.406
67.9,1,0.061,0.011,0.042,-0.027,0.024,0.036,-1.543,-0.005,0.249,66.75,93.5,40.525249,-3.419288,636.6,3,5,286.5,1.406
68.0,1,0.07,-0.002,-0.025,0.039,0.012,0.009,-1.538,-0.003,0.245,66.75,93.5,40.525249,-3.419288,636.6,3,5,286.5,1.406
68.11,1,-0.016,0.029,0.006,0.026,0.015,0.0,-1.538,-0.002,0.24,67.76,93.3,40.525322,-3.41958,635.8,3,5,287.6,1.758
68.2,1,-0.049,0.012,0.026,-0.022,0.018,0.014,-1.54,-0.002,0.236,67.76,93.3,40.525322,-3.41958,635.8,3,5,287.6,1.758
68.3,1,-0.031,0.016,0.003,-0.03,0.015,0.012,-1.541,-0.002,0.231,67.76,93.3,40.525322,-3.41958,635.8,3,5,287.6,1.758
68.4,1,0.015,0.019,0.003,-0.013,0.015,0.008,-1.541,-0.003,0.226,67.76,93.3,40.525322,-3.41958,635.8,3,5,287.6,1.758
68.5,1,-0.015,0.031,-0.03,-0.006,0.022,-0.01,-1.54,-0.005,0.221,67.76,93.3,40.525322,-3.41958,635.8,3,5,287.6,1.758
68.6,1,-0.072,0.031,-0.017,-0.035,0.028,-0.021,-1.541,-0.007,0.217,67.76,93.3,40.525322,-3.41958,635.8,3,5,287.6,1.758
68.7,1,-0.071,0.009,0.006,-0.061,0.023,-0.005,-1.542,-0.005,0.212,67.76,93.3,40.525322,-3.41958,635.8,3,5,287.6,1.758
68.8,1,-0.007,-0.0,-0.016,-0.039,0.012,-0.008,-1.541,-0.005,0.207,67.76,93.3,40.525322,-3.41958,635.8,3,5,287.6,1.758
68.91,1,0.001,0.027,-0.032,-0.014,0.014,-0.021,-1.539,-0.009,0.201,67.76,93.3,40.525322,-3.41958,635.8,3,5,287.6,1.758
69.0,1,0.005,0.027,-0.03,-0.004,0.021,-0.026,-1.536,-0.01,0.196,67.76,93.3,40.525322,-3.41958,635.8,3,5,287.6,1.758
69.1,1,0.003,-0.004,-0.034,0.001,0.013,-0.03,-1.532,-0.009,0.191,68.74,94.1,40.525391,-3.41986,635.4,3,5,289.3,2.812
69.2,1,-0.013,0.014,-0.035,-0.004,0.01,-0.034,-1.528,-0.01,0.186,68.74,94.1,40.525391,-3.41986,635.4,3,5,289.3,2.812
69.31,1,-0.016,-0.012,-0.028,-0.01,0.001,-0.032,-1.526,-0.012,0.181,68.74,94.1,40.525391,-3.41986,635.4,3,5,289.3,2.812
69.4,1,-0.005,-0.0,-0.02,-0.012,0.001,-0.024,-1.525,-0.014,0.175,68.74,94.1,40.525391,-3.41986,635.4,3,5,289.3,2.812
69.51,1,-0.015,0.017,-0.028,-0.014,0.004,-0.028,-1.523,-0.017,0.17,68.74,94.1,40.525391,-3.41986,635.4,3,5,289.3,2.812
69.6,1,-0.04,0.019,-0.042,-0.021,0.013,-0.032,-1.519,-0.02,0.164,68.74,94.1,40.525391,-3.41986,635.4,3,5,289.3,2.812
69.7,1,-0.088,0.022,-0.042,-0.049,0.02,-0.036,-1.518,-0.021,0.159,68.74,94.1,40.525391,-3.41986,635.4,3,5,289.3,2.812
69.8,1,-0.065,0.002,-0.004,-0.069,0.013,-0.026,-1.522,-0.02,0.154,68.74,94.1,40.525391,-3.41986,635.4,3,5,289.3,2.812
69.91,1,0.011,-0.024,-0.005,-0.039,-0.006,-0.012,-1.523,-0.02,0.149,68.74,94.1,40.525391,-3.41986,635.4,3,5,289.3,2.812
70.0,1,0.047,-0.019,-0.021,0.011,-0.013,-0.014,-1.519,-0.021,0.144,68.74,94.1,40.525391,-3.41986,635.4,3,5,289.3,2.812
70.12,1,0.014,-0.003,-0.039,0.024,-0.013,-0.025,-1.516,-0.023,0.139,69.81,93.8,40.525471,-3.420149,634.8,3,5,291.1,3.516
70.21,1,-0.052,0.015,-0.02,-0.012,0.001,-0.031,-1.514,-0.023,0.134,69.81,93.8,40.525471,-3.420149,634.8,3,5,291.1,3.516
70.31,1,-0.037,-0.023,0.001,-0.031,-0.001,-0.01,-1.516,-0.022,0.13,69.81,93.8,40.525471,-3.420149,634.8,3,5,291.1,3.516
70.41,1,-0.006,-0.045,-0.025,-0.024,-0.027,-0.017,-1.516,-0.02,0.127,69.81,93.8,40.525471,-3.420149,634.8,3,5,291.1,3.516
70.51,1,-0.013,-0.047,-0.019,-0.019,-0.039,-0.021,-1.513,-0.017,0.123,69.81,93.8,40.525471,-3.420149,634.8,3,5,291.1,3.516
70.61,1,0.023,-0.025,-0.014,0.006,-0.039,-0.014,-1.512,-0.016,0.119,69.81,93.8,40.525471,-3.420149,634.8,3,5,291.1,3.516
70.72,1,0.023,-0.023,-0.004,0.015,-0.027,-0.013,-1.509,-0.014,0.115,69.81,93.8,40.525471,-3.420149,634.8,3,5,291.1,3.516
70.82,1,0.002,-0.009,-0.015,0.016,-0.018,-0.009,-1.509,-0.014,0.111,69.81,93.8,40.525471,-3.420149,634.8,3,5,291.1,3.516
70.91,1,-0.03,-0.013,-0.028,-0.009,-0.018,-0.02,-1.508,-0.015,0.107,69.81,93.8,40.525471,-3.420149,634.8,3,5,291.1,3.516
71.01,1,-0.054,-0.035,0.014,-0.034,-0.021,-0.01,-1.51,-0.018,0.104,69.81,93.8,40.525471,-3.420149,634.8,3,5,291.1,3.516
71.11,1,0.014,-0.04,-0.007,-0.023,-0.032,0.001,-1.51,-0.019,0.1,70.73,93.5,40.525555,-3.420452,634.1,4,5,293.2,3.867
71.21,1,0.032,-0.037,0.012,0.016,-0.036,0.002,-1.507,-0.016,0.096,70.73,93.5,40.525555,-3.420452,634.1,4,5,293.2,3.867
71.31,1,0.04,-0.015,-0.018,0.027,-0.028,-0.003,-1.503,-0.023,0.093,70.73,93.5,40.525555,-3.420452,634.1,4,5,293.2,3.867
71.41,1,-0.074,0.023,-0.041,-0.007,-0.002,-0.025,-1.502,-0.025,0.089,70.73,93.5,40.525555,-3.420452,634.1,4,5,293.2,3.867
71.51,1,-0.098,-0.014,-0.008,-0.064,-0.001,-0.022,-1.506,-0.024,0.086,70.73,93.5,40.525555,-3.420452,634.1,4,5,293.2,3.867
71.61,1,-0.132,-0.042,-0.037,-0.095,-0.024,-0.019,-1.508,-0.024,0.082,70.73,93.5,40.525555,-3.420452,634.1,4,5,293.2,3.867
71.72,1,-0.033,-0.025,-0.001,-0.08,-0.035,-0.024,-1.512,-0.022,0.077,70.73,93.5,40.525555,-3.420452,634.1,4,5,293.2,3.867
71.82,1,-0.037,-0.001,-0.019,-0.057,-0.015,-0.013,-1.514,-0.023,0.073,70.73,93.5,40.525555,-3.420452,634.1,4,5,293.2,3.867
71.92,1,0.051,-0.003,0.01,-0.016,0.004,-0.007,-1.514,-0.023,0.069,70.73,93.5,40.525555,-3.420452,634.1,4,5,293.2,3.867
72.02,1,0.061,-0.031,-0.003,0.047,-0.015,0.004,-1.513,-0.02,0.065,70.73,93.5,40.525555,-3.420452,634.1,4,5,293.2,3.867
72.11,1,0.017,-0.017,-0.022,0.033,-0.021,-0.01,-1.508,-0.018,0.06,71.74,92.0,40.525654,-3.420718,633.5,4,5,294.6,3.516
72.21,1,0.004,0.006,-0.012,0.016,-0.01,-0.016,-1.506,-0.019,0.055,71.74,92.0,40.525654,-3.420718,633.5,4,5,294.6,3.516
72.31,1,-0.039,0.018,0.009,-0.009,0.008,-0.003,-1.509,-0.023,0.049,71.74,92.0,40.525654,-3.420718,633.5,4,5,294.6,3.516
72.41,1,-0.057,0.062,0.006,-0.035,0.027,0.0,-1.511,-0.031,0.044,71.74,92.0,40.525654,-3.420718,633.5,4,5,294.6,3.516
72.52,1,-0.044,0.041,0.028,-0.044,0.039,0.012,-1.513,-0.036,0.038,71.74,92.0,40.525654,-3.420718,633.5,4,5,294.6,3.516
72.61,1,-0.032,0.061,0.028,-0.041,0.053,0.024,-1.516,-0.037,0.033,71.74,92.0,40.525654,-3.420718,633.5,4,5,294.6,3.516
72.71,1,0.034,0.043,0.013,-0.01,0.048,0.022,-1.519,-0.04,0.027,71.74,92.0,40.525654,-3.420718,633.5,4,5,294.6,3.516
72.81,1,-0.003,0.015,0.009,0.011,0.034,0.016,-1.521,-0.042,0.022,71.74,92.0,40.525654,-3.420718,633.5,4,5,294.6,3.516
72.91,1,-0.009,0.01,0.005,-0.008,0.022,0.007,-1.524,-0.043,0.016,71.74,92.0,40.525654,-3.420718,633.5,4,5,294.6,3.516
73.01,1,-0.044,0.002,0.039,-0.025,0.015,0.019,-1.527,-0.044,0.011,71.74,92.0,40.525654,-3.420718,633.5,4,5,294.6,3.516
73.12,1,0.018,0.026,0.047,-0.008,0.016,0.038,-1.531,-0.046,0.005,72.74,91.3,40.525757,-3.420994,633.2,4,5,296.7,3.516
73.21,1,0.007,0.005,0.021,0.008,0.01,0.035,-1.535,-0.05,-0.0,72.74,91.3,40.525757,-3.420994,633.2,4,5,296.7,3.516
73.31,1,-0.008,-0.016,0.023,-0.004,-0.0,0.023,-1.536,-0.047,-0.005,72.74,91.3,40.525757,-3.420994,633.2,4,5,296.7,3.516
73.42,1,-0.054,0.007,0.046,-0.027,-0.002,0.034,-1.541,-0.049,-0.011,72.74,91.3,40.525757,-3.420994,633.2,4,5,296.7,3.516
73.52,1,0.017,0.016,0.049,-0.015,0.002,0.043,-1.546,-0.05,-0.017,72.74,91.3,40.525757,-3.420994,633.2,4,5,296.7,3.516
73.62,1,0.007,0.038,0.012,0.005,0.021,0.032,-1.547,-0.054,-0.024,72.74,91.3,40.525757,-3.420994,633.2,4,5,296.7,3.516
73.73,1,-0.016,0.048,0.022,-0.004,0.039,0.023,-1.55,-0.059,-0.03,72.74,91.3,40.525757,-3.420994,633.2,4,5,296.7,3.516
73.82,1,-0.062,0.019,0.022,-0.028,0.03,0.021,-1.553,-0.064,-0.036,72.74,91.3,40.525757,-3.420994,633.2,4,5,296.7,3.516
73.92,1,-0.044,0.032,0.047,-0.044,0.033,0.031,-1.557,-0.066,-0.042,72.74,91.3,40.525757,-3.420994,633.2,4,5,296.7,3.516
74.02,1,0.022,0.061,0.016,-0.019,0.048,0.026,-1.556,-0.069,-0.049,72.74,91.3,40.525757,-3.420994,633.2,4,5,296.7,3.516
74.12,1,0.001,0.018,0.014,0.005,0.028,0.026,-1.556,-0.068,-0.055,73.75,91.8,40.52586,-3.421252,632.8,4,5,299.5,4.922
74.22,1,-0.024,0.011,0.013,-0.011,0.023,0.015,-1.559,-0.067,-0.061,73.75,91.8,40.52586,-3.421252,632.8,4,5,299.5,4.922
74.32,1,-0.027,0.038,0.028,-0.026,0.027,0.023,-1.564,-0.069,-0.068,73.75,91.8,40.52586,-3.421252,632.8,4,5,299.5,4.922
74.43,1,-0.019,0.007,0.014,-0.021,0.023,0.017,-1.566,-0.071,-0.074,73.75,91.8,40.52586,-3.421252,632.8,4,5,299.5,4.922
74.52,1,-0.012,0.008,-0.008,-0.018,0.013,0.007,-1.567,-0.074,-0.081,73.75,91.8,40.52586,-3.421252,632.8,4,5,299.5,4.922
74.63,1,-0.046,0.025,0.009,-0.028,0.016,0.002,-1.569,-0.075,-0.087,73.75,91.8,40.52586,-3.421252,632.8,4,5,299.5,4.922
74.72,1,-0.004,0.01,0.033,-0.018,0.012,0.018,-1.573,-0.072,-0.093,73.75,91.8,40.52586,-3.421252,632.8,4,5,299.5,4.922
74.92,1,-0.011,-0.011,-0.011,-0.01,-0.007,-0.003,-1.574,-0.073,-0.104,73.75,91.8,40.52586,-3.421252,632.8,4,5,299.5,4.922
75.02,1,-0.03,-0.003,-0.002,-0.017,-0.005,-0.001,-1.575,-0.074,-0.11,73.75,91.8,40.52586,-3.421252,632.8,4,5,299.5,4.922
75.12,1,-0.056,0.02,-0.004,-0.035,0.007,-0.005,-1.577,-0.076,-0.115,73.75,91.8,40.52586,-3.421252,632.8,4,5,299.5,4.922
75.22,1,-0.021,0.007,0.005,-0.039,0.01,-0.004,-1.577,-0.078,-0.121,74.76,92.9,40.525982,-3.421513,632.1,4,5,302.7,5.977
75.32,1,-0.034,0.01,-0.015,-0.029,0.013,-0.001,-1.575,-0.075,-0.127,74.76,92.9,40.525982,-3.421513,632.1,4,5,302.7,5.977
75.43,1,0.025,-0.014,-0.002,-0.007,-0.003,-0.007,-1.576,-0.072,-0.132,74.76,92.9,40.525982,-3.421513,632.1,4,5,302.7,5.977
75.52,1,0.004,0.003,-0.038,0.003,-0.004,-0.017,-1.575,-0.071,-0.138,74.76,92.9,40.525982,-3.421513,632.1,4,5,302.7,5.977
75.63,1,-0.017,-0.003,-0.039,-0.006,-0.001,-0.033,-1.573,-0.071,-0.143,74.76,92.9,40.525982,-3.421513,632.1,4,5,302.7,5.977
75.72,1,-0.021,-0.01,-0.024,-0.012,-0.004,-0.029,-1.571,-0.074,-0.149,74.76,92.9,40.525982,-3.421513,632.1,4,5,302.7,5.977
75.83,1,-0.023,-0.011,-0.03,-0.023,-0.008,-0.029,-1.57,-0.076,-0.154,74.76,92.9,40.525982,-3.421513,632.1,4,5,302.7,5.977
75.93,1,0.018,0.011,-0.025,-0.006,0.002,-0.027,-1.568,-0.078,-0.159,74.76,92.9,40.525982,-3.421513,632.1,4,5,302.7,5.977
76.02,1,0.008,0.013,-0.038,0.007,0.007,-0.031,-1.565,-0.078,-0.164,74.76,92.9,40.525982,-3.421513,632.1,4,5,302.7,5.977
76.12,1,-0.007,0.003,-0.029,-0.0,0.005,-0.031,-1.564,-0.074,-0.169,74.76,92.9,40.525982,-3.421513,632.1,4,5,302.7,5.977
76.22,1,-0.049,-0.046,-0.014,-0.019,-0.017,-0.023,-1.562,-0.071,-0.173,75.76,94.1,40.526108,-3.421748,631.8,4,5,305.9,6.328
76.32,1,-0.043,-0.033,-0.016,-0.04,-0.032,-0.019,-1.562,-0.067,-0.177,75.76,94.1,40.526108,-3.421748,631.8,4,5,305.9,6.328
76.42,1,-0.009,-0.013,-0.015,-0.024,-0.022,-0.017,-1.562,-0.062,-0.181,75.76,94.1,40.526108,-3.421748,631.8,4,5,305.9,6.328
76.52,1,0.009,-0.018,-0.015,-0.006,-0.017,-0.013,-1.562,-0.06,-0.186,75.76,94.1,40.526108,-3.421748,631.8,4,5,305.9,6.328
76.63,1,-0.033,0.004,-0.037,-0.012,-0.006,-0.026,-1.561,-0.061,-0.19,75.76,94.1,40.526108,-3.421748,631.8,4,5,305.9,6.328
76.72,1,-0.017,-0.014,-0.002,-0.02,-0.008,-0.02,-1.561,-0.062,-0.195,75.76,94.1,40.526108,-3.421748,631.8,4,5,305.9,6.328
76.83,1,-0.031,-0.01,-0.012,-0.025,-0.01,-0.011,-1.56,-0.061,-0.199,75.76,94.1,40.526108,-3.421748,631.8,4,5,305.9,6.328
76.92,1,-0.03,-0.012,-0.02,-0.028,-0.014,-0.014,-1.559,-0.061,-0.203,75.76,94.1,40.526108,-3.421748,631.8,4,5,305.9,6.328
77.03,1,-0.047,-0.003,-0.035,-0.035,-0.009,-0.025,-1.558,-0.057,-0.207,75.76,94.1,40.526108,-3.421748,631.8,4,5,305.9,6.328
77.13,1,-0.028,-0.01,-0.034,-0.039,-0.009,-0.03,-1.556,-0.056,-0.211,75.76,94.1,40.526108,-3.421748,631.8,4,5,305.9,6.328
77.23,1,-0.017,-0.032,-0.032,-0.026,-0.011,-0.033,-1.553,-0.053,-0.215,76.74,93.4,40.526249,-3.421986,631.1,4,5,309.4,6.68
77.33,1,-0.007,-0.007,-0.027,-0.012,-0.014,-0.028,-1.551,-0.055,-0.22,76.74,93.4,40.526249,-3.421986,631.1,4,5,309.4,6.68
77.43,1,-0.033,0.005,-0.036,-0.021,-0.01,-0.034,-1.55,-0.055,-0.224,76.74,93.4,40.526249,-3.421986,631.1,4,5,309.4,6.68
77.53,1,-0.064,0.012,-0.013,-0.041,0.006,-0.025,-1.55,-0.058,-0.228,76.74,93.4,40.526249,-3.421986,631.1,4,5,309.4,6.68
77.63,1,-0.025,0.008,-0.018,-0.039,0.005,-0.018,-1.55,-0.06,-0.233,76.74,93.4,40.526249,-3.421986,631.1,4,5,309.4,6.68
77.73,1,-0.009,-0.038,-0.022,-0.025,-0.013,-0.022,-1.549,-0.056,-0.237,76.74,93.4,40.526249,-3.421986,631.1,4,5,309.4,6.68
77.83,1,0.009,-0.012,-0.017,-0.008,-0.015,-0.019,-1.547,-0.055,-0.242,76.74,93.4,40.526249,-3.421986,631.1,4,5,309.4,6.68
77.93,1,-0.017,0.01,-0.004,-0.006,-0.003,-0.014,-1.548,-0.056,-0.247,76.74,93.4,40.526249,-3.421986,631.1,4,5,309.4,6.68
78.03,1,-0.001,-0.008,-0.026,-0.009,-0.005,-0.012,-1.548,-0.056,-0.252,76.74,93.4,40.526249,-3.421986,631.1,4,5,309.4,6.68
78.13,1,-0.017,-0.017,-0.037,-0.001,-0.015,-0.027,-1.545,-0.059,-0.256,76.74,93.4,40.526249,-3.421986,631.1,4,5,309.4,6.68
78.23,1,-0.034,0.046,-0.039,-0.025,0.012,-0.032,-1.543,-0.059,-0.261,77.76,94.6,40.526398,-3.422222,630.4,4,5,310.8,4.922
78.33,1,0.04,0.008,-0.02,-0.002,0.016,-0.03,-1.541,-0.058,-0.265,77.76,94.6,40.526398,-3.422222,630.4,4,5,310.8,4.922
78.43,1,-0.021,0.018,-0.034,0.002,0.022,-0.03,-1.538,-0.059,-0.269,77.76,94.6,40.526398,-3.422222,630.4,4,5,310.8,4.922
78.54,1,-0.013,-0.02,-0.033,-0.008,0.002,-0.029,-1.535,-0.06,-0.274,77.76,94.6,40.526398,-3.422222,630.4,4,5,310.8,4.922
78.63,1,-0.043,-0.015,-0.037,-0.023,-0.006,-0.038,-1.532,-0.058,-0.278,77.76,94.6,40.526398,-3.422222,630.4,4,5,310.8,4.922
78.73,1,-0.036,-0.027,-0.021,-0.036,-0.023,-0.03,-1.531,-0.06,-0.282,77.76,94.6,40.526398,-3.422222,630.4,4,5,310.8,4.922
78.83,1,-0.008,-0.002,-0.037,-0.025,-0.015,-0.031,-1.528,-0.061,-0.286,77.76,94.6,40.526398,-3.422222,630.4,4,5,310.8,4.922
78.93,1,0.01,0.013,-0.025,-0.01,0.003,-0.029,-1.525,-0.062,-0.29,77.76,94.6,40.526398,-3.422222,630.4,4,5,310.8,4.922
79.03,1,-0.017,0.004,-0.04,-0.004,0.005,-0.034,-1.521,-0.061,-0.294,77.76,94.6,40.526398,-3.422222,630.4,4,5,310.8,4.922
79.13,1,-0.047,-0.009,-0.049,-0.027,-0.004,-0.041,-1.519,-0.061,-0.298,77.76,94.6,40.526398,-3.422222,630.4,4,5,310.8,4.922
79.23,1,-0.029,-0.023,-0.017,-0.031,-0.01,-0.036,-1.519,-0.061,-0.302,78.79,96.0,40.526573,-3.42245,629.7,4,5,313.9,4.57
79.33,1,-0.018,-0.009,-0.015,-0.024,-0.014,-0.019,-1.518,-0.061,-0.306,78.79,96.0,40.526573,-3.42245,629.7,4,5,313.9,4.57
79.43,1,-0.006,0.01,-0.018,-0.015,-0.004,-0.018,-1.516,-0.061,-0.311,78.79,96.0,40.526573,-3.42245,629.7,4,5,313.9,4.57
79.53,1,-0.021,0.005,-0.026,-0.016,0.005,-0.022,-1.516,-0.063,-0.315,78.79,96.0,40.526573,-3.42245,629.7,4,5,313.9,4.57
79.63,1,-0.015,-0.014,0.006,-0.02,-0.004,-0.012,-1.515,-0.063,-0.319,78.79,96.0,40.526573,-3.42245,629.7,4,5,313.9,4.57
79.73,1,-0.004,-0.019,-0.008,-0.01,-0.014,-0.008,-1.514,-0.06,-0.324,78.79,96.0,40.526573,-3.42245,629.7,4,5,313.9,4.57
79.83,1,-0.004,-0.017,-0.02,-0.004,-0.018,-0.01,-1.514,-0.062,-0.328,78.79,96.0,40.526573,-3.42245,629.7,4,5,313.9,4.57
79.94,1,-0.016,-0.002,-0.014,-0.01,-0.007,-0.016,-1.513,-0.063,-0.332,78.79,96.0,40.526573,-3.42245,629.7,4,5,313.9,4.57
80.04,1,-0.026,-0.002,-0.021,-0.016,-0.006,-0.017,-1.513,-0.061,-0.336,78.79,96.0,40.526573,-3.42245,629.7,4,5,313.9,4.57
80.13,1,-0.016,-0.032,-0.02,-0.019,-0.014,-0.018,-1.512,-0.061,-0.339,78.79,96.0,40.526573,-3.42245,629.7,4,5,313.9,4.57
80.24,1,-0.013,-0.054,-0.001,-0.012,-0.038,-0.012,-1.512,-0.055,-0.343,79.79,95.8,40.526741,-3.422674,629.1,4,5,316.4,5.625
80.34,1,-0.015,-0.019,-0.013,-0.021,-0.034,-0.013,-1.512,-0.054,-0.347,79.79,95.8,40.526741,-3.422674,629.1,4,5,316.4,5.625
80.44,1,-0.057,0.038,-0.018,-0.03,-0.001,-0.01,-1.514,-0.053,-0.351,79.79,95.8,40.526741,-3.422674,629.1,4,5,316.4,5.625
80.54,1,-0.009,0.014,0.021,-0.03,0.017,-0.005,-1.516,-0.052,-0.354,79.79,95.8,40.526741,-3.422674,629.1,4,5,316.4,5.625
80.64,1,0.005,-0.032,0.002,-0.014,-0.005,0.005,-1.516,-0.052,-0.358,79.79,95.8,40.526741,-3.422674,629.1,4,5,316.4,5.625
80.74,1,-0.019,-0.029,0.004,-0.005,-0.02,0.005,-1.518,-0.05,-0.362,79.79,95.8,40.526741,-3.422674,629.1,4,5,316.4,5.625
80.84,1,-0.015,-0.007,0.023,-0.019,-0.017,0.009,-1.52,-0.05,-0.366,79.79,95.8,40.526741,-3.422674,629.1,4,5,316.4,5.625
80.94,1,-0.013,-0.008,0.018,-0.012,-0.011,0.02,-1.522,-0.049,-0.37,79.79,95.8,40.526741,-3.422674,629.1,4,5,316.4,5.625
81.04,1,0.012,0.001,0.017,-0.003,-0.002,0.018,-1.525,-0.05,-0.374,79.79,95.8,40.526741,-3.422674,629.1,4,5,316.4,5.625
81.15,1,-0.039,0.004,0.007,-0.011,0.002,0.011,-1.526,-0.05,-0.378,79.79,95.8,40.526741,-3.422674,629.1,4,5,316.4,5.625
81.25,1,-0.061,0.018,0.019,-0.041,0.004,0.014,-1.528,-0.05,-0.382,80.78,94.5,40.526917,-3.422881,628.5,4,5,318.9,4.922
81.34,1,-0.029,-0.003,0.03,-0.043,0.006,0.022,-1.531,-0.05,-0.386,80.78,94.5,40.526917,-3.422881,628.5,4,5,318.9,4.922
81.44,1,-0.04,-0.014,-0.007,-0.036,-0.004,0.016,-1.533,-0.05,-0.39,80.78,94.5,40.526917,-3.422881,628.5,4,5,318.9,4.922
81.54,1,-0.034,0.011,-0.0,-0.039,-0.0,-0.002,-1.535,-0.051,-0.394,80.78,94.5,40.526917,-3.422881,628.5,4,5,318.9,4.922
81.64,1,0.024,-0.006,0.026,-0.011,-0.001,0.012,-1.538,-0.052,-0.399,80.78,94.5,40.526917,-3.422881,628.5,4,5,318.9,4.922
81.75,1,0.029,0.002,0.012,0.013,-0.001,0.014,-1.538,-0.054,-0.403,80.78,94.5,40.526917,-3.422881,628.5,4,5,318.9,4.922
81.84,1,-0.007,0.022,0.008,0.01,0.006,0.012,-1.538,-0.056,-0.408,80.78,94.5,40.526917,-3.422881,628.5,4,5,318.9,4.922
81.94,1,-0.001,0.036,0.003,-0.001,0.025,0.007,-1.539,-0.06,-0.413,80.78,94.5,40.526917,-3.422881,628.5,4,5,318.9,4.922
82.04,1,-0.074,0.059,-0.002,-0.031,0.039,0.002,-1.539,-0.067,-0.419,80.78,94.5,40.526917,-3.422881,628.5,4,5,318.9,4.922
82.15,1,-0.033,0.045,0.011,-0.043,0.045,0.006,-1.542,-0.07,-0.425,80.78,94.5,40.526917,-3.422881,628.5,4,5,318.9,4.922
82.24,1,-0.045,0.021,0.006,-0.039,0.038,0.008,-1.543,-0.07,-0.43,81.74,93.3,40.527096,-3.423076,627.4,4,5,321.3,4.922
82.35,1,-0.025,-0.003,-0.004,-0.033,0.02,0.003,-1.544,-0.07,-0.435,81.74,93.3,40.527096,-3.423076,627.4,4,5,321.3,4.922
82.44,1,-0.011,-0.007,-0.006,-0.023,-0.001,-0.001,-1.544,-0.067,-0.439,81.74,93.3,40.527096,-3.423076,627.4,4,5,321.3,4.922
82.54,1,-0.02,-0.002,-0.005,-0.015,-0.006,-0.004,-1.544,-0.066,-0.444,81.74,93.3,40.527096,-3.423076,627.4,4,5,321.3,4.922
82.64,1,-0.0,0.005,0.014,-0.009,0.006,0.0,-1.546,-0.067,-0.448,81.74,93.3,40.527096,-3.423076,627.4,4,5,321.3,4.922
82.74,1,-0.039,-0.027,-0.018,-0.021,-0.001,0.0,-1.547,-0.066,-0.451,81.74,93.3,40.527096,-3.423076,627.4,4,5,321.3,4.922
82.84,1,-0.05,-0.036,0.02,-0.043,-0.027,0.0,-1.55,-0.063,-0.454,81.74,93.3,40.527096,-3.423076,627.4,4,5,321.3,4.922
82.94,1,-0.063,-0.056,0.031,-0.049,-0.046,0.02,-1.556,-0.06,-0.458,81.74,93.3,40.527096,-3.423076,627.4,4,5,321.3,4.922
83.04,1,-0.006,-0.041,0.002,-0.036,-0.048,0.014,-1.557,-0.058,-0.461,81.74,93.3,40.527096,-3.423076,627.4,4,5,321.3,4.922
83.15,1,0.003,-0.015,0.007,-0.008,-0.032,0.008,-1.558,-0.057,-0.464,81.74,93.3,40.527096,-3.423076,627.4,4,5,321.3,4.922
83.24,1,0.01,-0.017,0.01,-0.004,-0.017,0.007,-1.56,-0.057,-0.468,82.73,93.7,40.52729,-3.423254,627.3,4,5,324.1,5.273
83.34,1,0.011,-0.019,0.019,0.009,-0.02,0.016,-1.562,-0.06,-0.471,82.73,93.7,40.52729,-3.423254,627.3,4,5,324.1,5.273
83.44,1,-0.047,-0.014,0.008,-0.013,-0.018,0.012,-1.562,-0.062,-0.475,82.73,93.7,40.52729,-3.423254,627.3,4,5,324.1,5.273
83.55,1,-0.038,-0.014,-0.004,-0.03,-0.015,0.004,-1.562,-0.061,-0.478,82.73,93.7,40.52729,-3.423254,627.3,4,5,324.1,5.273
83.65,1,-0.042,-0.019,0.011,-0.037,-0.018,0.005,-1.565,-0.059,-0.481,82.73,93.7,40.52729,-3.423254,627.3,4,5,324.1,5.273
83.74,1,-0.014,0.006,0.006,-0.032,-0.007,0.006,-1.568,-0.057,-0.485,82.73,93.7,40.52729,-3.423254,627.3,4,5,324.1,5.273
83.84,1,-0.022,-0.005,0.013,-0.023,-0.004,0.009,-1.571,-0.057,-0.489,82.73,93.7,40.52729,-3.423254,627.3,4,5,324.1,5.273
83.95,1,-0.0,0.006,0.001,-0.01,-0.003,0.009,-1.574,-0.058,-0.493,82.73,93.7,40.52729,-3.423254,627.3,4,5,324.1,5.273
84.05,1,-0.019,0.001,-0.005,-0.011,0.001,-0.001,-1.573,-0.06,-0.496,82.73,93.7,40.52729,-3.423254,627.3,4,5,324.1,5.273
84.16,1,-0.046,0.001,-0.003,-0.028,0.004,-0.002,-1.573,-0.061,-0.5,82.73,93.7,40.52729,-3.423254,627.3,4,5,324.1,5.273
84.25,1,-0.015,0.001,-0.008,-0.031,0.001,-0.003,-1.571,-0.062,-0.504,83.76,95.3,40.527489,-3.423434,626.4,4,5,327.0,5.625
84.35,1,0.02,-0.003,-0.009,-0.006,0.001,-0.01,-1.57,-0.061,-0.508,83.76,95.3,40.527489,-3.423434,626.4,4,5,327.0,5.625
84.45,1,0.009,0.023,-0.026,0.005,0.011,-0.014,-1.567,-0.064,-0.511,83.76,95.3,40.527489,-3.423434,626.4,4,5,327.0,5.625
84.55,1,-0.017,-0.006,-0.012,-0.001,0.006,-0.018,-1.566,-0.065,-0.515,83.76,95.3,40.527489,-3.423434,626.4,4,5,327.0,5.625
84.65,1,-0.025,-0.029,0.015,-0.017,-0.015,-0.003,-1.565,-0.065,-0.517,83.76,95.3,40.527489,-3.423434,626.4,4,5,327.0,5.625
84.75,1,0.025,-0.069,0.006,-0.004,-0.034,0.007,-1.565,-0.065,-0.519,83.76,95.3,40.527489,-3.423434,626.4,4,5,327.0,5.625
84.95,1,0.01,-0.062,-0.001,0.003,-0.053,-0.008,-1.567,-0.061,-0.522,83.76,95.3,40.527489,-3.423434,626.4,4,5,327.0,5.625
85.05,1,-0.022,-0.083,-0.01,-0.007,-0.068,-0.004,-1.568,-0.06,-0.522,83.76,95.3,40.527489,-3.423434,626.4,4,5,327.0,5.625
85.15,1,-0.041,-0.058,-0.024,-0.022,-0.068,-0.013,-1.569,-0.053,-0.523,83.76,95.3,40.527489,-3.423434,626.4,4,5,327.0,5.625
85.26,1,-0.024,-0.068,-0.018,-0.031,-0.069,-0.018,-1.57,-0.049,-0.524,83.76,95.3,40.527489,-3.423434,626.4,4,5,327.0,5.625
85.36,1,-0.003,-0.057,-0.024,-0.02,-0.064,-0.02,-1.57,-0.047,-0.524,84.77,96.9,40.527702,-3.4236,626.3,4,5,329.4,5.273
85.45,1,-0.013,-0.047,-0.017,-0.012,-0.055,-0.023,-1.568,-0.045,-0.525,84.77,96.9,40.527702,-3.4236,626.3,4,5,329.4,5.273
85.55,1,0.02,-0.033,-0.026,-0.001,-0.047,-0.018,-1.565,-0.044,-0.525,84.77,96.9,40.527702,-3.4236,626.3,4,5,329.4,5.273
85.65,1,-0.039,-0.047,-0.034,-0.007,-0.046,-0.028,-1.562,-0.042,-0.525,84.77,96.9,40.527702,-3.4236,626.3,4,5,329.4,5.273
85.75,1,-0.016,-0.077,-0.036,-0.021,-0.055,-0.032,-1.56,-0.039,-0.525,84.77,96.9,40.527702,-3.4236,626.3,4,5,329.4,5.273
85.85,1,-0.019,-0.047,-0.013,-0.02,-0.056,-0.026,-1.559,-0.034,-0.526,84.77,96.9,40.527702,-3.4236,626.3,4,5,329.4,5.273
85.95,1,-0.013,-0.035,-0.014,-0.017,-0.048,-0.015,-1.558,-0.029,-0.525,84.77,96.9,40.527702,-3.4236,626.3,4,5,329.4,5.273
86.07,1,0.006,-0.027,-0.023,-0.005,-0.035,-0.021,-1.556,-0.029,-0.525,84.77,96.9,40.527702,-3.4236,626.3,4,5,329.4,5.273
86.15,1,-0.005,-0.036,-0.023,-0.001,-0.03,-0.022,-1.554,-0.028,-0.525,84.77,96.9,40.527702,-3.4236,626.3,4,5,329.4,5.273
86.25,1,0.015,-0.043,-0.02,0.005,-0.043,-0.021,-1.554,-0.029,-0.525,84.77,96.9,40.527702,-3.4236,626.3,4,5,329.4,5.273
86.35,1,-0.052,-0.03,-0.021,-0.017,-0.035,-0.021,-1.555,-0.029,-0.525,85.73,98.3,40.52792,-3.423758,626.1,4,5,331.5,4.57
86.45,1,-0.027,-0.038,-0.018,-0.031,-0.03,-0.019,-1.556,-0.029,-0.525,85.73,98.3,40.52792,-3.423758,626.1,4,5,331.5,4.57
86.55,1,0.029,-0.014,-0.025,-0.01,-0.025,-0.024,-1.554,-0.034,-0.525,85.73,98.3,40.52792,-3.423758,626.1,4,5,331.5,4.57
86.66,1,0.015,-0.022,-0.03,0.015,-0.023,-0.028,-1.551,-0.034,-0.525,85.73,98.3,40.52792,-3.423758,626.1,4,5,331.5,4.57
86.75,1,-0.018,-0.031,-0.003,0.002,-0.029,-0.014,-1.551,-0.035,-0.525,85.73,98.3,40.52792,-3.423758,626.1,4,5,331.5,4.57
86.85,1,0.018,-0.016,-0.004,0.006,-0.025,-0.006,-1.55,-0.036,-0.526,85.73,98.3,40.52792,-3.423758,626.1,4,5,331.5,4.57
86.95,1,0.006,0.005,-0.022,0.01,-0.007,-0.018,-1.546,-0.036,-0.527,85.73,98.3,40.52792,-3.423758,626.1,4,5,331.5,4.57
87.06,1,-0.023,0.008,-0.007,-0.01,0.0,-0.013,-1.545,-0.037,-0.527,85.73,98.3,40.52792,-3.423758,626.1,4,5,331.5,4.57
87.15,1,-0.012,0.004,-0.0,-0.015,0.002,-0.008,-1.545,-0.039,-0.528,85.73,98.3,40.52792,-3.423758,626.1,4,5,331.5,4.57
87.27,1,-0.028,-0.018,0.014,-0.015,-0.005,0.006,-1.547,-0.039,-0.529,85.73,98.3,40.52792,-3.423758,626.1,4,5,331.5,4.57
87.36,1,-0.015,-0.013,0.016,-0.021,-0.012,0.01,-1.548,-0.042,-0.529,86.76,98.8,40.528141,-3.423922,625.4,4,5,332.2,2.812
87.46,1,0.026,-0.029,0.017,-0.001,-0.016,0.016,-1.55,-0.042,-0.53,86.76,98.8,40.528141,-3.423922,625.4,4,5,332.2,2.812
87.56,1,-0.001,-0.012,0.001,0.006,-0.019,0.009,-1.552,-0.045,-0.531,86.76,98.8,40.528141,-3.423922,625.4,4,5,332.2,2.812
87.66,1,0.028,-0.032,0.011,0.013,-0.024,0.01,-1.552,-0.045,-0.531,86.76,98.8,40.528141,-3.423922,625.4,4,5,332.2,2.812
87.76,1,0.025,-0.018,-0.008,0.018,-0.024,0.002,-1.551,-0.049,-0.532,86.76,98.8,40.528141,-3.423922,625.4,4,5,332.2,2.812
87.87,1,0.001,0.001,-0.025,0.016,-0.009,-0.012,-1.548,-0.05,-0.532,86.76,98.8,40.528141,-3.423922,625.4,4,5,332.2,2.812
87.97,1,-0.027,-0.03,-0.013,-0.003,-0.017,-0.015,-1.546,-0.049,-0.532,86.76,98.8,40.528141,-3.423922,625.4,4,5,332.2,2.812
88.06,1,-0.03,-0.034,-0.004,-0.024,-0.027,-0.011,-1.546,-0.048,-0.532,86.76,98.8,40.528141,-3.423922,625.4,4,5,332.2,2.812
88.16,1,-0.032,-0.03,-0.006,-0.026,-0.025,-0.006,-1.544,-0.047,-0.532,86.76,98.8,40.528141,-3.423922,625.4,4,5,332.2,2.812
88.26,1,-0.018,-0.022,-0.04,-0.021,-0.026,-0.018,-1.54,-0.045,-0.531,86.76,98.8,40.528141,-3.423922,625.4,4,5,332.2,2.812
88.36,1,-0.014,0.007,-0.032,-0.019,-0.011,-0.031,-1.537,-0.043,-0.531,87.75,98.9,40.528366,-3.424085,625.3,4,5,332.9,1.406
88.47,1,-0.013,-0.013,-0.047,-0.02,-0.008,-0.04,-1.534,-0.043,-0.531,87.75,98.9,40.528366,-3.424085,625.3,4,5,332.9,1.406
88.56,1,-0.016,-0.006,-0.006,-0.014,-0.015,-0.024,-1.533,-0.041,-0.531,87.75,98.9,40.528366,-3.424085,625.3,4,5,332.9,1.406
88.66,1,-0.015,-0.032,-0.03,-0.014,-0.017,-0.019,-1.531,-0.042,-0.531,87.75,98.9,40.528366,-3.424085,625.3,4,5,332.9,1.406
88.76,1,0.027,-0.023,-0.037,0.003,-0.023,-0.033,-1.526,-0.042,-0.53,87.75,98.9,40.528366,-3.424085,625.3,4,5,332.9,1.406
88.86,1,0.004,-0.0,-0.032,0.009,-0.011,-0.032,-1.521,-0.041,-0.53,87.75,98.9,40.528366,-3.424085,625.3,4,5,332.9,1.406
88.97,1,0.009,-0.027,-0.029,0.008,-0.016,-0.034,-1.518,-0.035,-0.529,87.75,98.9,40.528366,-3.424085,625.3,4,5,332.9,1.406
89.07,1,-0.005,-0.042,-0.016,0.002,-0.03,-0.024,-1.516,-0.032,-0.527,87.75,98.9,40.528366,-3.424085,625.3,4,5,332.9,1.406
89.16,1,0.019,-0.065,-0.04,0.004,-0.046,-0.028,-1.513,-0.027,-0.523,87.75,98.9,40.528366,-3.424085,625.3,4,5,332.9,1.406
89.26,1,-0.008,-0.097,-0.038,0.012,-0.067,-0.039,-1.511,-0.017,-0.519,87.75,98.9,40.528366,-3.424085,625.3,4,5,332.9,1.406
89.36,1,-0.044,-0.118,-0.022,-0.018,-0.096,-0.027,-1.51,-0.009,-0.515,88.76,99.5,40.528591,-3.42423,625.0,4,5,333.6,1.406
89.46,1,-0.049,-0.101,-0.019,-0.043,-0.107,-0.026,-1.51,-0.004,-0.51,88.76,99.5,40.528591,-3.42423,625.0,4,5,333.6,1.406
89.56,1,-0.035,-0.116,-0.006,-0.04,-0.11,-0.016,-1.509,-0.001,-0.505,88.76,99.5,40.528591,-3.42423,625.0,4,5,333.6,1.406
89.68,1,-0.021,-0.086,-0.011,-0.03,-0.099,-0.009,-1.509,0.004,-0.501,88.76,99.5,40.528591,-3.42423,625.0,4,5,333.6,1.406
89.76,1,0.004,-0.088,-0.004,-0.02,-0.093,-0.01,-1.507,0.009,-0.496,88.76,99.5,40.528591,-3.42423,625.0,4,5,333.6,1.406
89.86,1,0.01,-0.049,-0.01,0.005,-0.073,-0.006,-1.504,0.014,-0.492,88.76,99.5,40.528591,-3.42423,625.0,4,5,333.6,1.406
89.97,1,-0.01,-0.038,-0.018,-0.001,-0.06,-0.012,-1.502,0.019,-0.488,88.76,99.5,40.528591,-3.42423,625.0,4,5,333.6,1.406
90.06,1,0.002,-0.015,-0.01,-0.001,-0.033,-0.014,-1.5,0.019,-0.485,88.76,99.5,40.528591,-3.42423,625.0,4,5,333.6,1.406
90.16,1,-0.017,0.007,-0.014,-0.009,-0.008,-0.011,-1.501,0.02,-0.482,88.76,99.5,40.528591,-3.42423,625.0,4,5,333.6,1.406
90.27,1,-0.01,0.013,-0.019,-0.01,-0.001,-0.016,-1.5,0.017,-0.479,88.76,99.5,40.528591,-3.42423,625.0,4,5,333.6,1.406
90.37,1,0.035,-0.013,0.006,0.006,0.0,-0.01,-1.501,0.014,-0.476,89.74,98.4,40.52882,-3.424365,624.5,4,5,334.3,1.406
90.46,1,0.021,-0.026,-0.018,0.017,-0.015,-0.007,-1.499,0.013,-0.473,89.74,98.4,40.52882,-3.424365,624.5,4,5,334.3,1.406
90.57,1,-0.029,-0.006,-0.018,0.004,-0.015,-0.013,-1.498,0.011,-0.47,89.74,98.4,40.52882,-3.424365,624.5,4,5,334.3,1.406
90.67,1,0.004,0.003,0.019,-0.009,-0.006,-0.002,-1.497,0.008,-0.468,89.74,98.4,40.52882,-3.424365,624.5,4,5,334.3,1.406
90.77,1,-0.019,0.019,0.004,-0.01,0.009,0.008,-1.496,0.006,-0.466,89.74,98.4,40.52882,-3.424365,624.5,4,5,334.3,1.406
90.88,1,0.004,0.021,-0.008,-0.002,0.015,-0.002,-1.494,0.003,-0.464,89.74,98.4,40.52882,-3.424365,624.5,4,5,334.3,1.406
90.97,1,-0.037,0.022,-0.017,-0.013,0.021,-0.006,-1.494,0.002,-0.462,89.74,98.4,40.52882,-3.424365,624.5,4,5,334.3,1.406
91.07,1,-0.137,-0.038,-0.027,-0.071,-0.006,-0.023,-1.496,-0.0,-0.459,89.74,98.4,40.52882,-3.424365,624.5,4,5,334.3,1.406
91.17,1,-0.071,0.04,0.052,-0.093,0.006,0.011,-1.5,-0.006,-0.457,89.74,98.4,40.52882,-3.424365,624.5,4,5,334.3,1.406
91.27,1,0.076,0.103,0.078,-0.018,0.055,0.05,-1.499,-0.01,-0.456,89.74,98.4,40.52882,-3.424365,624.5,4,5,334.3,1.406
91.37,1,0.156,0.014,0.032,0.078,0.049,0.049,-1.493,-0.01,-0.454,90.77,96.9,40.529037,-3.424505,623.7,4,5,332.6,1.758
91.47,1,0.043,-0.004,0.002,0.087,0.019,0.022,-1.491,-0.01,-0.452,90.77,96.9,40.529037,-3.424505,623.7,4,5,332.6,1.758
91.58,1,-0.062,0.03,0.02,0.015,0.016,0.016,-1.493,-0.014,-0.451,90.77,96.9,40.529037,-3.424505,623.7,4,5,332.6,1.758
91.68,1,-0.1,0.035,0.05,-0.055,0.025,0.033,-1.499,-0.017,-0.449,90.77,96.9,40.529037,-3.424505,623.7,4,5,332.6,1.758
91.77,1,-0.012,-0.024,0.047,-0.053,0.014,0.042,-1.504,-0.015,-0.446,90.77,96.9,40.529037,-3.424505,623.7,4,5,332.6,1.758
91.87,1,0.063,-0.044,0.039,0.006,-0.018,0.045,-1.507,-0.011,-0.442,90.77,96.9,40.529037,-3.424505,623.7,4,5,332.6,1.758
91.97,1,0.062,-0.04,0.024,0.047,-0.034,0.03,-1.508,-0.008,-0.439,90.77,96.9,40.529037,-3.424505,623.7,4,5,332.6,1.758
92.07,1,0.046,-0.047,0.041,0.05,-0.046,0.032,-1.509,-0.002,-0.435,90.77,96.9,40.529037,-3.424505,623.7,4,5,332.6,1.758
92.17,1,0.019,-0.012,0.045,0.037,-0.031,0.043,-1.511,-0.005,-0.432,90.77,96.9,40.529037,-3.424505,623.7,4,5,332.6,1.758
92.27,1,-0.006,0.016,0.024,0.019,-0.005,0.038,-1.51,-0.004,-0.429,90.77,96.9,40.529037,-3.424505,623.7,4,5,332.6,1.758
92.37,1,-0.076,-0.007,-0.02,-0.025,-0.003,0.01,-1.512,-0.002,-0.426,91.73,95.5,40.529251,-3.424652,622.7,4,5,331.9,2.461
92.47,1,-0.193,-0.006,-0.001,-0.105,-0.004,0.002,-1.516,-0.0,-0.422,91.73,95.5,40.529251,-3.424652,622.7,4,5,331.9,2.461
92.58,1,-0.223,-0.034,0.014,-0.178,-0.008,-0.003,-1.522,-0.0,-0.418,91.73,95.5,40.529251,-3.424652,622.7,4,5,331.9,2.461
92.67,1,-0.059,-0.074,0.142,-0.137,-0.049,0.059,-1.524,0.001,-0.415,91.73,95.5,40.529251,-3.424652,622.7,4,5,331.9,2.461
92.77,1,0.194,-0.015,0.047,0.011,-0.045,0.084,-1.519,0.001,-0.413,91.73,95.5,40.529251,-3.424652,622.7,4,5,331.9,2.461
92.88,1,0.149,-0.007,0.013,0.122,-0.033,0.043,-1.515,0.001,-0.41,91.73,95.5,40.529251,-3.424652,622.7,4,5,331.9,2.461
92.97,1,0.04,0.029,0.036,0.085,0.005,0.029,-1.515,0.0,-0.407,91.73,95.5,40.529251,-3.424652,622.7,4,5,331.9,2.461
93.07,1,0.008,0.022,0.035,0.043,0.023,0.034,-1.523,-0.0,-0.404,91.73,95.5,40.529251,-3.424652,622.7,4,5,331.9,2.461
93.17,1,-0.075,0.018,0.026,-0.015,0.018,0.031,-1.528,-0.001,-0.401,91.73,95.5,40.529251,-3.424652,622.7,4,5,331.9,2.461
93.27,1,-0.024,0.027,0.047,-0.033,0.022,0.039,-1.534,-0.002,-0.398,91.73,95.5,40.529251,-3.424652,622.7,4,5,331.9,2.461
93.37,1,0.019,-0.008,0.04,-0.011,0.011,0.041,-1.537,0.0,-0.395,92.73,95.7,40.529465,-3.424799,622.1,4,5,331.2,1.406
93.47,1,0.023,-0.026,0.008,0.009,-0.006,0.027,-1.539,0.004,-0.392,92.73,95.7,40.529465,-3.424799,622.1,4,5,331.2,1.406
93.57,1,-0.013,-0.014,0.015,0.006,-0.013,0.014,-1.543,0.005,-0.389,92.73,95.7,40.529465,-3.424799,622.1,4,5,331.2,1.406
93.67,1,-0.055,0.006,0.035,-0.026,-0.011,0.03,-1.55,0.004,-0.386,92.73,95.7,40.529465,-3.424799,622.1,4,5,331.2,1.406
93.77,1,-0.049,0.009,-0.007,-0.035,0.002,0.013,-1.553,0.001,-0.383,92.73,95.7,40.529465,-3.424799,622.1,4,5,331.2,1.406
93.87,1,-0.094,-0.009,0.005,-0.067,0.001,0.002,-1.554,0.005,-0.38,92.73,95.7,40.529465,-3.424799,622.1,4,5,331.2,1.406
93.98,1,-0.036,-0.028,0.029,-0.064,-0.014,0.018,-1.557,0.007,-0.376,92.73,95.7,40.529465,-3.424799,622.1,4,5,331.2,1.406
94.08,1,-0.016,-0.02,0.006,-0.034,-0.021,0.016,-1.558,0.011,-0.373,92.73,95.7,40.529465,-3.424799,622.1,4,5,331.2,1.406
94.18,1,0.027,-0.003,0.027,-0.007,-0.012,0.015,-1.558,0.011,-0.37,92.73,95.7,40.529465,-3.424799,622.1,4,5,331.2,1.406
94.28,1,0.043,-0.007,0.019,0.022,-0.005,0.018,-1.558,0.012,-0.367,92.73,95.7,40.529465,-3.424799,622.1,4,5,331.2,1.406
94.38,1,0.037,0.026,-0.004,0.039,0.001,0.013,-1.557,0.007,-0.364,93.78,96.0,40.529675,-3.42495,622.0,4,5,330.1,1.758
94.48,1,0.006,0.006,0.006,0.026,0.013,0.005,-1.557,0.004,-0.361,93.78,96.0,40.529675,-3.42495,622.0,4,5,330.1,1.758
94.58,1,0.004,-0.032,-0.009,0.008,-0.001,-0.003,-1.555,0.005,-0.357,93.78,96.0,40.529675,-3.42495,622.0,4,5,330.1,1.758
94.68,1,-0.002,-0.019,0.018,-0.001,-0.021,0.005,-1.555,0.01,-0.353,93.78,96.0,40.529675,-3.42495,622.0,4,5,330.1,1.758
94.88,1,-0.011,-0.017,-0.019,0.003,-0.024,-0.003,-1.552,0.013,-0.345,93.78,96.0,40.529675,-3.42495,622.0,4,5,330.1,1.758
94.98,1,-0.066,-0.007,-0.025,-0.021,-0.012,-0.015,-1.551,0.016,-0.341,93.78,96.0,40.529675,-3.42495,622.0,4,5,330.1,1.758
95.08,1,0.003,-0.042,0.024,-0.038,-0.031,-0.003,-1.553,0.017,-0.337,93.78,96.0,40.529675,-3.42495,622.0,4,5,330.1,1.758
95.19,1,0.05,0.01,-0.037,0.015,-0.017,-0.005,-1.554,0.016,-0.333,93.78,96.0,40.529675,-3.42495,622.0,4,5,330.1,1.758
95.29,1,-0.012,0.015,-0.106,0.016,0.011,-0.069,-1.556,0.014,-0.328,93.78,96.0,40.529675,-3.42495,622.0,4,5,330.1,1.758
95.38,1,-0.115,-0.004,-0.01,-0.041,-0.001,-0.042,-1.558,0.012,-0.325,93.78,96.0,40.529675,-3.42495,622.0,4,5,330.1,1.758
95.48,1,-0.023,0.019,-0.012,-0.06,0.009,-0.024,-1.558,0.01,-0.321,94.73,97.5,40.529884,-3.425112,621.4,4,5,329.1,2.109
95.58,1,0.011,-0.027,-0.011,-0.018,0.002,-0.018,-1.556,0.006,-0.317,94.73,97.5,40.529884,-3.425112,621.4,4,5,329.1,2.109
95.68,1,0.049,-0.055,0.017,0.01,-0.031,-0.004,-1.553,0.008,-0.313,94.73,97.5,40.529884,-3.425112,621.4,4,5,329.1,2.109
95.78,1,0.058,-0.034,-0.013,0.045,-0.043,0.002,-1.551,0.008,-0.309,94.73,97.5,40.529884,-3.425112,621.4,4,5,329.1,2.109
95.89,1,0.008,0.01,-0.014,0.039,-0.018,-0.008,-1.55,0.008,-0.305,94.73,97.5,40.529884,-3.425112,621.4,4,5,329.1,2.109
95.98,1,-0.011,-0.018,-0.017,0.01,-0.01,-0.012,-1.547,0.01,-0.301,94.73,97.5,40.529884,-3.425112,621.4,4,5,329.1,2.109
96.08,1,-0.038,-0.029,-0.017,-0.019,-0.021,-0.017,-1.547,0.013,-0.297,94.73,97.5,40.529884,-3.425112,621.4,4,5,329.1,2.109
96.18,1,-0.036,-0.006,-0.023,-0.028,-0.013,-0.02,-1.546,0.011,-0.294,94.73,97.5,40.529884,-3.425112,621.4,4,5,329.1,2.109
96.29,1,-0.045,-0.022,-0.033,-0.035,-0.015,-0.023,-1.545,0.011,-0.289,94.73,97.5,40.529884,-3.425112,621.4,4,5,329.1,2.109
96.38,1,-0.088,-0.017,-0.051,-0.059,-0.021,-0.039,-1.544,0.014,-0.285,94.73,97.5,40.529884,-3.425112,621.4,4,5,329.1,2.109
96.49,1,-0.017,-0.021,-0.021,-0.057,-0.018,-0.035,-1.542,0.014,-0.281,95.74,98.6,40.530083,-3.425273,620.6,4,5,327.7,2.461
96.58,1,0.07,-0.035,-0.022,0.007,-0.028,-0.023,-1.538,0.015,-0.277,95.74,98.6,40.530083,-3.425273,620.6,4,5,327.7,2.461
96.68,1,0.091,-0.044,-0.056,0.064,-0.035,-0.037,-1.534,0.015,-0.273,95.74,98.6,40.530083,-3.425273,620.6,4,5,327.7,2.461
96.78,1,0.024,-0.026,-0.046,0.049,-0.034,-0.047,-1.528,0.014,-0.269,95.74,98.6,40.530083,-3.425273,620.6,4,5,327.7,2.461
96.89,1,-0.014,0.004,-0.014,0.018,-0.015,-0.034,-1.526,0.012,-0.265,95.74,98.6,40.530083,-3.425273,620.6,4,5,327.7,2.461
96.99,1,-0.004,0.01,-0.031,-0.001,-0.003,-0.026,-1.524,0.01,-0.261,95.74,98.6,40.530083,-3.425273,620.6,4,5,327.7,2.461
97.09,1,-0.02,0.0,-0.042,-0.004,0.003,-0.037,-1.52,0.01,-0.256,95.74,98.6,40.530083,-3.425273,620.6,4,5,327.7,2.461
97.2,1,-0.097,-0.003,-0.046,-0.046,-0.002,-0.038,-1.519,0.012,-0.252,95.74,98.6,40.530083,-3.425273,620.6,4,5,327.7,2.461
97.28,1,-0.053,-0.004,-0.005,-0.066,-0.002,-0.032,-1.521,0.015,-0.248,95.74,98.6,40.530083,-3.425273,620.6,4,5,327.7,2.461
97.38,1,0.037,-0.027,0.009,-0.021,-0.01,-0.001,-1.523,0.018,-0.244,95.74,98.6,40.530083,-3.425273,620.6,4,5,327.7,2.461
97.49,1,0.031,0.005,-0.042,0.025,-0.015,-0.018,-1.517,0.017,-0.24,96.73,100.3,40.530285,-3.425451,620.5,4,5,327.0,2.109
97.59,1,0.027,0.005,-0.013,0.02,0.002,-0.026,-1.512,0.016,-0.236,96.73,100.3,40.530285,-3.425451,620.5,4,5,327.0,2.109
97.69,1,0.005,0.014,-0.027,0.012,0.012,-0.018,-1.51,0.018,-0.231,96.73,100.3,40.530285,-3.425451,620.5,4,5,327.0,2.109
97.79,1,-0.026,-0.02,-0.051,0.004,-0.005,-0.034,-1.508,0.019,-0.227,96.73,100.3,40.530285,-3.425451,620.5,4,5,327.0,2.109
97.89,1,-0.091,-0.011,-0.024,-0.045,-0.008,-0.037,-1.507,0.02,-0.222,96.73,100.3,40.530285,-3.425451,620.5,4,5,327.0,2.109
97.99,1,-0.001,-0.047,-0.007,-0.041,-0.02,-0.017,-1.509,0.026,-0.218,96.73,100.3,40.530285,-3.425451,620.5,4,5,327.0,2.109
98.09,1,-0.041,0.021,-0.024,-0.033,-0.01,-0.026,-1.51,0.025,-0.214,96.73,100.3,40.530285,-3.425451,620.5,4,5,327.0,2.109
98.19,1,-0.005,0.064,-0.011,-0.027,0.019,-0.014,-1.512,0.024,-0.21,96.73,100.3,40.530285,-3.425451,620.5,4,5,327.0,2.109
98.3,1,0.046,0.025,-0.019,0.017,0.042,-0.018,-1.51,0.025,-0.206,96.73,100.3,40.530285,-3.425451,620.5,4,5,327.0,2.109
98.4,1,0.029,0.026,-0.018,0.019,0.027,-0.021,-1.509,0.026,-0.202,96.73,100.3,40.530285,-3.425451,620.5,4,5,327.0,2.109
98.49,1,0.002,0.01,-0.012,0.022,0.015,-0.009,-1.508,0.027,-0.198,97.75,101.3,40.530502,-3.425645,619.6,4,5,324.8,2.812
98.59,1,-0.017,0.01,-0.045,0.007,0.013,-0.032,-1.508,0.028,-0.194,97.75,101.3,40.530502,-3.425645,619.6,4,5,324.8,2.812
98.69,1,-0.102,0.005,0.003,-0.057,0.012,-0.021,-1.51,0.028,-0.191,97.75,101.3,40.530502,-3.425645,619.6,4,5,324.8,2.812
98.79,1,-0.001,0.01,-0.017,-0.042,0.006,-0.005,-1.513,0.03,-0.187,97.75,101.3,40.530502,-3.425645,619.6,4,5,324.8,2.812
98.9,1,-0.008,0.01,-0.02,-0.013,0.008,-0.02,-1.512,0.029,-0.183,97.75,101.3,40.530502,-3.425645,619.6,4,5,324.8,2.812
98.99,1,-0.016,0.039,-0.014,-0.013,0.024,-0.018,-1.51,0.027,-0.18,97.75,101.3,40.530502,-3.425645,619.6,4,5,324.8,2.812
99.1,1,0.004,0.033,0.017,-0.01,0.031,-0.002,-1.511,0.023,-0.177,97.75,101.3,40.530502,-3.425645,619.6,4,5,324.8,2.812
99.19,1,-0.008,0.029,-0.048,-0.003,0.031,-0.018,-1.506,0.02,-0.173,97.75,101.3,40.530502,-3.425645,619.6,4,5,324.8,2.812
99.29,1,0.004,0.022,-0.015,0.001,0.024,-0.02,-1.504,0.018,-0.171,97.75,101.3,40.530502,-3.425645,619.6,4,5,324.8,2.812
99.39,1,-0.012,0.03,-0.016,-0.008,0.026,-0.018,-1.506,0.014,-0.168,97.75,101.3,40.530502,-3.425645,619.6,4,5,324.8,2.812
99.5,1,-0.039,0.034,-0.015,-0.02,0.028,-0.016,-1.507,0.012,-0.166,98.73,97.2,40.530693,-3.425833,619.3,4,5,322.0,4.922
99.6,1,-0.053,0.032,-0.002,-0.042,0.033,-0.01,-1.509,0.011,-0.163,98.73,97.2,40.530693,-3.425833,619.3,4,5,322.0,4.922
99.69,1,0.001,0.05,0.025,-0.029,0.045,0.005,-1.512,0.01,-0.161,98.73,97.2,40.530693,-3.425833,619.3,4,5,322.0,4.922
99.79,1,-0.01,0.049,0.0,-0.009,0.046,0.012,-1.513,0.01,-0.158,98.73,97.2,40.530693,-3.425833,619.3,4,5,322.0,4.922
99.89,1,-0.012,-0.03,0.018,-0.011,0.015,0.009,-1.515,0.009,-0.155,98.73,97.2,40.530693,-3.425833,619.3,4,5,322.0,4.922
99.99,1,-0.016,-0.036,0.008,-0.011,-0.017,0.01,-1.517,0.008,-0.152,98.73,97.2,40.530693,-3.425833,619.3,4,5,322.0,4.922
100.1,1,-0.046,-0.032,0.02,-0.027,-0.029,0.015,-1.52,0.006,-0.149,98.73,97.2,40.530693,-3.425833,619.3,4,5,322.0,4.922
100.19,1,-0.061,-0.008,0.04,-0.052,-0.019,0.023,-1.525,0.005,-0.145,98.73,97.2,40.530693,-3.425833,619.3,4,5,322.0,4.922
100.29,1,-0.019,-0.001,0.053,-0.039,-0.009,0.041,-1.531,0.004,-0.142,98.73,97.2,40.530693,-3.425833,619.3,4,5,322.0,4.922
100.39,1,-0.019,-0.001,0.019,-0.021,-0.005,0.036,-1.535,0.005,-0.139,98.73,97.2,40.530693,-3.425833,619.3,4,5,322.0,4.922
100.49,1,-0.037,0.028,0.032,-0.029,0.01,0.028,-1.538,0.007,-0.136,99.73,95.5,40.530884,-3.42603,618.5,4,5,320.3,4.57
100.6,1,-0.019,0.004,0.043,-0.027,0.007,0.037,-1.544,0.007,-0.133,99.73,95.5,40.530884,-3.42603,618.5,4,5,320.3,4.57
100.69,1,-0.026,0.004,0.042,-0.024,0.01,0.039,-1.546,0.006,-0.13,99.73,95.5,40.530884,-3.42603,618.5,4,5,320.3,4.57
100.8,1,-0.003,-0.014,0.018,-0.022,-0.002,0.031,-1.549,0.004,-0.126,99.73,95.5,40.530884,-3.42603,618.5,4,5,320.3,4.57
100.89,1,-0.025,-0.002,0.016,-0.011,-0.004,0.023,-1.551,0.004,-0.123,99.73,95.5,40.530884,-3.42603,618.5,4,5,320.3,4.57
101.0,1,-0.048,0.002,0.008,-0.031,-0.004,0.012,-1.552,0.002,-0.12,99.73,95.5,40.530884,-3.42603,618.5,4,5,320.3,4.57
101.1,1,-0.07,0.004,0.028,-0.047,-0.001,0.021,-1.556,0.001,-0.117,99.73,95.5,40.530884,-3.42603,618.5,4,5,320.3,4.57
101.2,1,-0.062,0.012,0.039,-0.069,0.01,0.025,-1.561,0.0,-0.114,99.73,95.5,40.530884,-3.42603,618.5,4,5,320.3,4.57
101.3,1,-0.02,-0.001,0.023,-0.039,0.004,0.034,-1.563,0.003,-0.111,99.73,95.5,40.530884,-3.42603,618.5,4,5,320.3,4.57
101.4,1,-0.02,-0.017,-0.0,-0.033,-0.003,0.013,-1.564,0.007,-0.108,99.73,95.5,40.530884,-3.42603,618.5,4,5,320.3,4.57
101.5,1,0.019,0.003,0.015,-0.007,-0.006,0.015,-1.566,0.01,-0.105,100.74,94.7,40.531055,-3.426232,617.7,3,5,318.9,3.164
101.6,1,-0.035,0.003,0.009,-0.008,0.001,0.011,-1.568,0.015,-0.101,100.74,94.7,40.531055,-3.426232,617.7,3,5,318.9,3.164
101.7,1,-0.03,0.003,0.024,-0.026,0.002,0.018,-1.571,0.016,-0.098,100.74,94.7,40.531055,-3.426232,617.7,3,5,318.9,3.164
101.8,1,-0.035,-0.021,-0.004,-0.032,-0.004,0.008,-1.571,0.015,-0.095,100.74,94.7,40.531055,-3.426232,617.7,3,5,318.9,3.164
101.9,1,-0.02,0.0,0.017,-0.027,-0.01,0.009,-1.572,0.014,-0.092,100.74,94.7,40.531055,-3.426232,617.7,3,5,318.9,3.164
102.0,1,-0.01,-0.006,0.001,-0.017,-0.006,0.007,-1.573,0.011,-0.089,100.74,94.7,40.531055,-3.426232,617.7,3,5,318.9,3.164
102.1,1,-0.016,0.006,0.007,-0.021,-0.004,0.006,-1.572,0.009,-0.086,100.74,94.7,40.531055,-3.426232,617.7,3,5,318.9,3.164
102.2,1,-0.037,0.004,-0.008,-0.013,0.004,0.0,-1.573,0.007,-0.083,100.74,94.7,40.531055,-3.426232,617.7,3,5,318.9,3.164
102.3,1,-0.097,-0.013,-0.015,-0.06,0.001,-0.008,-1.575,0.006,-0.08,100.74,94.7,40.531055,-3.426232,617.7,3,5,318.9,3.164
102.4,1,-0.22,0.064,-0.034,-0.123,0.019,-0.02,-1.58,0.005,-0.077,100.74,94.7,40.531055,-3.426232,617.7,3,5,318.9,3.164
102.51,1,-0.115,0.04,0.059,-0.163,0.044,0.006,-1.588,0.009,-0.074,101.77,92.6,40.531231,-3.426431,617.2,4,5,317.5,2.812
102.61,1,0.101,-0.022,0.033,-0.042,0.018,0.039,-1.591,0.014,-0.07,101.77,92.6,40.531231,-3.426431,617.2,4,5,317.5,2.812
102.7,1,0.11,-0.037,-0.056,0.063,-0.019,-0.008,-1.587,0.016,-0.067,101.77,92.6,40.531231,-3.426431,617.2,4,5,317.5,2.812
102.8,1,-0.002,0.023,-0.026,0.047,-0.005,-0.029,-1.587,0.015,-0.065,101.77,92.6,40.531231,-3.426431,617.2,4,5,317.5,2.812
102.9,1,-0.055,0.021,0.031,-0.009,0.01,0.0,-1.591,0.013,-0.063,101.77,92.6,40.531231,-3.426431,617.2,4,5,317.5,2.812
103.0,1,-0.09,0.024,-0.009,-0.051,0.024,0.003,-1.592,0.013,-0.06,101.77,92.6,40.531231,-3.426431,617.2,4,5,317.5,2.812
103.1,1,-0.054,0.015,-0.031,-0.066,0.015,-0.014,-1.591,0.012,-0.057,101.77,92.6,40.531231,-3.426431,617.2,4,5,317.5,2.812
103.21,1,0.004,-0.003,-0.002,-0.031,0.011,-0.012,-1.591,0.012,-0.054,101.77,92.6,40.531231,-3.426431,617.2,4,5,317.5,2.812
103.3,1,-0.025,-0.005,-0.002,-0.014,-0.001,-0.006,-1.59,0.016,-0.05,101.77,92.6,40.531231,-3.426431,617.2,4,5,317.5,2.812
103.4,1,-0.04,-0.018,-0.003,-0.034,-0.008,-0.004,-1.59,0.016,-0.047,101.77,92.6,40.531231,-3.426431,617.2,4,5,317.5,2.812
103.5,1,-0.037,-0.009,0.001,-0.037,-0.01,-0.003,-1.59,0.017,-0.044,102.73,97.5,40.531406,-3.426656,617.3,4,5,316.1,2.812
103.61,1,-0.077,0.007,-0.006,-0.056,-0.002,-0.004,-1.592,0.018,-0.04,102.73,97.5,40.531406,-3.426656,617.3,4,5,316.1,2.812
103.71,1,-0.045,-0.002,0.02,-0.054,0.001,0.006,-1.593,0.018,-0.037,102.73,97.5,40.531406,-3.426656,617.3,4,5,316.1,2.812
103.8,1,-0.069,-0.005,-0.01,-0.055,0.001,0.002,-1.594,0.019,-0.034,102.73,97.5,40.531406,-3.426656,617.3,4,5,316.1,2.812
103.9,1,-0.016,0.008,-0.005,-0.05,0.004,-0.004,-1.596,0.02,-0.031,102.73,97.5,40.531406,-3.426656,617.3,4,5,316.1,2.812
104.0,1,-0.005,0.007,-0.011,-0.013,-0.002,-0.003,-1.597,0.018,-0.028,102.73,97.5,40.531406,-3.426656,617.3,4,5,316.1,2.812
104.1,1,-0.044,0.006,-0.027,-0.027,0.003,-0.018,-1.596,0.017,-0.025,102.73,97.5,40.531406,-3.426656,617.3,4,5,316.1,2.812
104.21,1,-0.037,0.002,-0.005,-0.034,0.008,-0.015,-1.597,0.017,-0.022,102.73,97.5,40.531406,-3.426656,617.3,4,5,316.1,2.812
104.3,1,0.006,-0.018,0.008,-0.023,-0.008,0.001,-1.599,0.019,-0.019,102.73,97.5,40.531406,-3.426656,617.3,4,5,316.1,2.812
104.41,1,-0.015,0.022,-0.042,-0.009,0.003,-0.02,-1.597,0.018,-0.016,102.73,97.5,40.531406,-3.426656,617.3,4,5,316.1,2.812
104.51,1,-0.05,0.019,-0.015,-0.03,0.019,-0.022,-1.596,0.015,-0.014,103.74,98.0,40.531567,-3.426887,617.6,4,5,314.3,3.164
104.61,1,-0.054,-0.019,-0.021,-0.043,-0.001,-0.019,-1.596,0.014,-0.011,103.74,98.0,40.531567,-3.426887,617.6,4,5,314.3,3.164
104.71,1,-0.039,-0.003,0.0,-0.046,-0.004,-0.015,-1.597,0.012,-0.009,103.74,98.0,40.531567,-3.426887,617.6,4,5,314.3,3.164
104.91,1,-0.001,-0.0,-0.01,-0.015,-0.004,-0.008,-1.594,0.013,-0.003,103.74,98.0,40.531567,-3.426887,617.6,4,5,314.3,3.164
105.01,1,-0.012,-0.021,-0.027,-0.012,-0.009,-0.016,-1.592,0.016,-0.0,103.74,98.0,40.531567,-3.426887,617.6,4,5,314.3,3.164
105.11,1,-0.041,-0.009,-0.034,-0.026,-0.008,-0.029,-1.59,0.016,0.003,103.74,98.0,40.531567,-3.426887,617.6,4,5,314.3,3.164
105.21,1,-0.041,0.01,-0.033,-0.033,0.001,-0.029,-1.588,0.016,0.006,103.74,98.0,40.531567,-3.426887,617.6,4,5,314.3,3.164
105.31,1,-0.042,-0.006,-0.039,-0.04,-0.002,-0.033,-1.587,0.016,0.009,103.74,98.0,40.531567,-3.426887,617.6,4,5,314.3,3.164
105.41,1,-0.032,-0.002,0.001,-0.04,-0.0,-0.027,-1.586,0.017,0.012,103.74,98.0,40.531567,-3.426887,617.6,4,5,314.3,3.164
105.51,1,-0.021,-0.012,-0.021,-0.028,-0.007,-0.013,-1.587,0.019,0.015,103.74,98.0,40.531567,-3.426887,617.6,4,5,314.3,3.164
105.61,1,-0.028,-0.016,-0.015,-0.023,-0.01,-0.017,-1.587,0.02,0.017,104.78,99.2,40.531742,-3.427126,617.9,3,5,312.5,3.516
105.71,1,-0.042,-0.002,-0.003,-0.036,-0.01,-0.01,-1.588,0.021,0.02,104.78,99.2,40.531742,-3.427126,617.9,3,5,312.5,3.516
105.81,1,-0.035,0.008,-0.001,-0.036,-0.004,-0.006,-1.588,0.019,0.023,104.78,99.2,40.531742,-3.427126,617.9,3,5,312.5,3.516
105.91,1,-0.05,0.022,-0.018,-0.041,0.009,-0.009,-1.59,0.021,0.026,104.78,99.2,40.531742,-3.427126,617.9,3,5,312.5,3.516
106.01,1,-0.063,0.02,-0.029,-0.051,0.017,-0.019,-1.589,0.02,0.028,104.78,99.2,40.531742,-3.427126,617.9,3,5,312.5,3.516
106.11,1,-0.032,0.011,0.006,-0.044,0.014,-0.008,-1.591,0.021,0.031,104.78,99.2,40.531742,-3.427126,617.9,3,5,312.5,3.516
106.21,1,0.005,0.016,-0.004,-0.024,0.019,-0.007,-1.593,0.02,0.034,104.78,99.2,40.531742,-3.427126,617.9,3,5,312.5,3.516
106.32,1,-0.023,0.002,-0.014,-0.017,0.011,-0.008,-1.594,0.022,0.037,104.78,99.2,40.531742,-3.427126,617.9,3,5,312.5,3.516
106.42,1,-0.027,-0.034,0.002,-0.023,-0.011,-0.008,-1.593,0.02,0.039,104.78,99.2,40.531742,-3.427126,617.9,3,5,312.5,3.516
106.51,1,-0.011,0.004,-0.005,-0.019,-0.014,-0.001,-1.593,0.021,0.042,104.78,99.2,40.531742,-3.427126,617.9,3,5,312.5,3.516
106.61,1,-0.027,0.028,-0.018,-0.021,0.014,-0.01,-1.593,0.022,0.045,105.77,100.7,40.53191,-3.427379,618.0,3,5,310.8,3.516
106.72,1,-0.037,0.005,-0.03,-0.031,0.007,-0.021,-1.592,0.023,0.047,105.77,100.7,40.53191,-3.427379,618.0,3,5,310.8,3.516
106.81,1,-0.047,0.003,-0.009,-0.039,0.001,-0.018,-1.594,0.023,0.05,105.77,100.7,40.53191,-3.427379,618.0,3,5,310.8,3.516
106.91,1,-0.028,0.025,-0.004,-0.037,0.016,-0.009,-1.596,0.022,0.052,105.77,100.7,40.53191,-3.427379,618.0,3,5,310.8,3.516
107.01,1,0.009,0.027,-0.012,-0.015,0.028,-0.009,-1.594,0.018,0.054,105.77,100.7,40.53191,-3.427379,618.0,3,5,310.8,3.516
107.11,1,-0.022,0.035,-0.023,-0.012,0.028,-0.018,-1.594,0.015,0.055,105.77,100.7,40.53191,-3.427379,618.0,3,5,310.8,3.516
107.21,1,-0.027,0.032,0.02,-0.019,0.029,-0.003,-1.596,0.014,0.057,105.77,100.7,40.53191,-3.427379,618.0,3,5,310.8,3.516
107.32,1,-0.022,0.018,-0.013,-0.02,0.024,0.002,-1.598,0.01,0.058,105.77,100.7,40.53191,-3.427379,618.0,3,5,310.8,3.516
107.41,1,-0.043,0.033,-0.018,-0.029,0.024,-0.013,-1.596,0.007,0.059,105.77,100.7,40.53191,-3.427379,618.0,3,5,310.8,3.516
107.52,1,-0.037,0.028,0.009,-0.038,0.028,-0.005,-1.597,0.005,0.061,105.77,100.7,40.53191,-3.427379,618.0,3,5,310.8,3.516
107.62,1,-0.012,0.035,-0.007,-0.027,0.031,-0.003,-1.597,-0.0,0.062,106.74,99.6,40.532047,-3.427625,618.2,4,5,308.3,4.219
107.71,1,-0.02,0.045,-0.011,-0.019,0.039,-0.006,-1.596,-0.003,0.063,106.74,99.6,40.532047,-3.427625,618.2,4,5,308.3,4.219
107.81,1,-0.037,0.042,-0.027,-0.028,0.041,-0.018,-1.595,-0.004,0.064,106.74,99.6,40.532047,-3.427625,618.2,4,5,308.3,4.219
107.92,1,-0.052,0.027,-0.022,-0.038,0.034,-0.019,-1.597,-0.007,0.065,106.74,99.6,40.532047,-3.427625,618.2,4,5,308.3,4.219
108.02,1,-0.032,0.025,-0.011,-0.042,0.033,-0.017,-1.596,-0.01,0.066,106.74,99.6,40.532047,-3.427625,618.2,4,5,308.3,4.219
108.12,1,-0.051,0.007,-0.017,-0.04,0.02,-0.015,-1.597,-0.009,0.067,106.74,99.6,40.532047,-3.427625,618.2,4,5,308.3,4.219
108.22,1,-0.095,0.025,-0.016,-0.062,0.017,-0.016,-1.599,-0.008,0.067,106.74,99.6,40.532047,-3.427625,618.2,4,5,308.3,4.219
108.32,1,-0.053,0.019,0.011,-0.075,0.022,-0.007,-1.602,-0.007,0.069,106.74,99.6,40.532047,-3.427625,618.2,4,5,308.3,4.219
108.42,1,-0.015,-0.012,0.013,-0.042,0.005,0.009,-1.604,-0.004,0.071,106.74,99.6,40.532047,-3.427625,618.2,4,5,308.3,4.219
108.52,1,-0.032,-0.019,-0.017,-0.032,-0.007,-0.003,-1.603,-0.001,0.074,106.74,99.6,40.532047,-3.427625,618.2,4,5,308.3,4.219
108.62,1,-0.013,-0.014,0.001,-0.024,-0.012,-0.005,-1.603,0.004,0.076,107.74,99.6,40.5322,-3.427883,619.0,4,5,306.6,4.219
108.73,1,-0.027,0.0,-0.001,-0.028,-0.008,0.001,-1.603,0.006,0.079,107.74,99.6,40.5322,-3.427883,619.0,4,5,306.6,4.219
108.83,1,-0.019,-0.003,-0.003,-0.018,-0.006,-0.001,-1.6,0.007,0.081,107.74,99.6,40.5322,-3.427883,619.0,4,5,306.6,4.219
108.92,1,-0.035,-0.011,-0.011,-0.023,-0.008,-0.007,-1.6,0.01,0.084,107.74,99.6,40.5322,-3.427883,619.0,4,5,306.6,4.219
109.02,1,-0.052,-0.03,-0.018,-0.038,-0.016,-0.017,-1.6,0.011,0.087,107.74,99.6,40.5322,-3.427883,619.0,4,5,306.6,4.219
109.12,1,-0.06,-0.032,0.008,-0.052,-0.029,-0.002,-1.602,0.014,0.091,107.74,99.6,40.5322,-3.427883,619.0,4,5,306.6,4.219
109.22,1,-0.011,-0.007,-0.0,-0.04,-0.022,0.0,-1.602,0.017,0.094,107.74,99.6,40.5322,-3.427883,619.0,4,5,306.6,4.219
109.32,1,-0.044,-0.009,-0.008,-0.031,-0.012,-0.004,-1.605,0.018,0.097,107.74,99.6,40.5322,-3.427883,619.0,4,5,306.6,4.219
109.42,1,-0.044,-0.024,-0.006,-0.043,-0.011,-0.006,-1.607,0.019,0.101,107.74,99.6,40.5322,-3.427883,619.0,4,5,306.6,4.219
109.52,1,-0.013,-0.041,-0.001,-0.03,-0.028,-0.004,-1.609,0.022,0.104,107.74,99.6,40.5322,-3.427883,619.0,4,5,306.6,4.219
109.62,1,-0.026,-0.037,-0.007,-0.026,-0.034,-0.004,-1.609,0.026,0.108,108.75,100.1,40.532349,-3.428152,619.7,4,5,305.5,2.812
109.72,1,-0.009,-0.014,0.02,-0.015,-0.027,0.006,-1.61,0.028,0.111,108.75,100.1,40.532349,-3.428152,619.7,4,5,305.5,2.812
109.82,1,-0.004,-0.013,-0.016,-0.008,-0.021,-0.001,-1.612,0.03,0.115,108.75,100.1,40.532349,-3.428152,619.7,4,5,305.5,2.812
109.93,1,-0.026,-0.007,0.0,-0.015,-0.014,-0.005,-1.612,0.03,0.118,108.75,100.1,40.532349,-3.428152,619.7,4,5,305.5,2.812
110.03,1,-0.037,0.005,0.003,-0.026,-0.005,0.002,-1.614,0.03,0.121,108.75,100.1,40.532349,-3.428152,619.7,4,5,305.5,2.812
110.12,1,-0.023,0.002,0.007,-0.03,0.001,0.003,-1.616,0.03,0.125,108.75,100.1,40.532349,-3.428152,619.7,4,5,305.5,2.812
110.22,1,0.018,-0.009,-0.006,-0.01,-0.001,0.001,-1.614,0.032,0.128,108.75,100.1,40.532349,-3.428152,619.7,4,5,305.5,2.812
110.32,1,0.025,-0.014,-0.007,0.014,-0.01,-0.005,-1.612,0.032,0.13,108.75,100.1,40.532349,-3.428152,619.7,4,5,305.5,2.812
110.43,1,-0.003,0.014,-0.016,0.008,-0.001,-0.011,-1.611,0.033,0.133,108.75,100.1,40.532349,-3.428152,619.7,4,5,305.5,2.812
110.52,1,-0.023,0.021,-0.008,-0.01,0.011,-0.009,-1.611,0.03,0.136,108.75,100.1,40.532349,-3.428152,619.7,4,5,305.5,2.812
110.62,1,-0.03,0.001,-0.022,-0.02,0.011,-0.015,-1.61,0.033,0.139,109.74,99.3,40.532497,-3.428417,620.5,4,5,305.2,1.406
110.74,1,-0.007,0.023,-0.022,-0.016,0.015,-0.021,-1.607,0.032,0.142,109.74,99.3,40.532497,-3.428417,620.5,4,5,305.2,1.406
110.82,1,-0.02,0.012,-0.017,-0.014,0.011,-0.018,-1.605,0.033,0.145,109.74,99.3,40.532497,-3.428417,620.5,4,5,305.2,1.406
110.92,1,-0.006,0.016,-0.022,-0.02,0.014,-0.02,-1.603,0.033,0.147,109.74,99.3,40.532497,-3.428417,620.5,4,5,305.2,1.406
111.03,1,-0.005,0.023,-0.023,-0.005,0.017,-0.02,-1.602,0.032,0.15,109.74,99.3,40.532497,-3.428417,620.5,4,5,305.2,1.406
111.13,1,-0.022,0.036,-0.016,-0.012,0.029,-0.022,-1.601,0.029,0.152,109.74,99.3,40.532497,-3.428417,620.5,4,5,305.2,1.406
111.23,1,0.018,0.031,-0.013,0.001,0.027,-0.014,-1.601,0.025,0.154,109.74,99.3,40.532497,-3.428417,620.5,4,5,305.2,1.406
111.33,1,-0.036,0.014,-0.001,-0.015,0.025,-0.012,-1.6,0.022,0.156,109.74,99.3,40.532497,-3.428417,620.5,4,5,305.2,1.406
111.43,1,-0.007,0.017,-0.007,-0.014,0.021,-0.004,-1.599,0.022,0.158,109.74,99.3,40.532497,-3.428417,620.5,4,5,305.2,1.406
111.53,1,-0.021,0.027,-0.004,-0.01,0.015,-0.008,-1.598,0.021,0.16,109.74,99.3,40.532497,-3.428417,620.5,4,5,305.2,1.406
111.63,1,-0.004,-0.002,0.018,-0.016,0.015,0.007,-1.599,0.019,0.163,110.77,101.8,40.532639,-3.428717,621.7,4,5,302.3,3.164
111.73,1,0.026,0.013,-0.02,0.002,0.013,-0.0,-1.599,0.021,0.165,110.77,101.8,40.532639,-3.428717,621.7,4,5,302.3,3.164
111.83,1,-0.014,0.005,-0.019,0.005,0.012,-0.015,-1.597,0.021,0.168,110.77,101.8,40.532639,-3.428717,621.7,4,5,302.3,3.164
111.93,1,-0.025,-0.01,0.005,-0.011,-0.0,-0.008,-1.598,0.023,0.171,110.77,101.8,40.532639,-3.428717,621.7,4,5,302.3,3.164
112.03,1,-0.011,-0.019,-0.005,-0.017,-0.01,-0.001,-1.6,0.024,0.174,110.77,101.8,40.532639,-3.428717,621.7,4,5,302.3,3.164
112.13,1,-0.028,-0.012,-0.02,-0.02,-0.015,-0.01,-1.601,0.025,0.177,110.77,101.8,40.532639,-3.428717,621.7,4,5,302.3,3.164
112.24,1,-0.019,-0.003,-0.009,-0.022,-0.011,-0.012,-1.601,0.024,0.179,110.77,101.8,40.532639,-3.428717,621.7,4,5,302.3,3.164
112.33,1,-0.025,-0.001,-0.029,-0.018,-0.005,-0.019,-1.6,0.024,0.182,110.77,101.8,40.532639,-3.428717,621.7,4,5,302.3,3.164
112.43,1,-0.021,0.01,-0.003,-0.025,0.003,-0.019,-1.599,0.022,0.184,110.77,101.8,40.532639,-3.428717,621.7,4,5,302.3,3.164
112.53,1,-0.022,0.041,-0.019,-0.023,0.022,-0.01,-1.599,0.022,0.186,110.77,101.8,40.532639,-3.428717,621.7,4,5,302.3,3.164
112.63,1,-0.003,0.035,-0.004,-0.015,0.031,-0.013,-1.599,0.021,0.188,111.74,100.3,40.532772,-3.428985,623.5,4,5,299.9,5.273
112.73,1,-0.001,0.024,-0.024,-0.006,0.029,-0.014,-1.599,0.02,0.19,111.74,100.3,40.532772,-3.428985,623.5,4,5,299.9,5.273
112.84,1,-0.018,0.007,-0.017,-0.009,0.017,-0.018,-1.599,0.018,0.192,111.74,100.3,40.532772,-3.428985,623.5,4,5,299.9,5.273
112.93,1,-0.025,0.006,-0.011,-0.019,0.01,-0.014,-1.598,0.02,0.194,111.74,100.3,40.532772,-3.428985,623.5,4,5,299.9,5.273
113.04,1,-0.013,0.011,0.008,-0.02,0.01,-0.005,-1.599,0.02,0.196,111.74,100.3,40.532772,-3.428985,623.5,4,5,299.9,5.273
113.13,1,-0.005,0.026,-0.01,-0.012,0.018,-0.004,-1.597,0.02,0.198,111.74,100.3,40.532772,-3.428985,623.5,4,5,299.9,5.273
113.23,1,0.002,0.049,-0.007,-0.001,0.037,-0.007,-1.596,0.019,0.199,111.74,100.3,40.532772,-3.428985,623.5,4,5,299.9,5.273
113.33,1,-0.001,0.026,0.004,0.001,0.032,-0.005,-1.597,0.017,0.201,111.74,100.3,40.532772,-3.428985,623.5,4,5,299.9,5.273
113.43,1,-0.023,0.022,-0.033,-0.012,0.024,-0.01,-1.598,0.016,0.202,111.74,100.3,40.532772,-3.428985,623.5,4,5,299.9,5.273
113.53,1,-0.003,0.018,0.012,-0.017,0.024,-0.011,-1.598,0.014,0.204,111.74,100.3,40.532772,-3.428985,623.5,4,5,299.9,5.273
113.64,1,-0.016,0.021,-0.016,-0.006,0.019,-0.002,-1.599,0.012,0.205,112.73,100.2,40.53289,-3.429277,624.5,3,5,298.1,4.219
113.73,1,-0.007,0.017,-0.024,-0.009,0.019,-0.02,-1.596,0.011,0.207,112.73,100.2,40.53289,-3.429277,624.5,3,5,298.1,4.219
113.83,1,-0.001,0.008,-0.017,-0.01,0.014,-0.018,-1.594,0.013,0.209,112.73,100.2,40.53289,-3.429277,624.5,3,5,298.1,4.219
113.93,1,-0.05,0.007,-0.033,-0.019,0.011,-0.024,-1.59,0.011,0.21,112.73,100.2,40.53289,-3.429277,624.5,3,5,298.1,4.219
114.04,1,-0.037,-0.014,0.001,-0.039,0.0,-0.018,-1.59,0.011,0.212,112.73,100.2,40.53289,-3.429277,624.5,3,5,298.1,4.219
114.14,1,-0.02,-0.002,-0.004,-0.028,-0.002,-0.004,-1.59,0.013,0.214,112.73,100.2,40.53289,-3.429277,624.5,3,5,298.1,4.219
114.24,1,0.022,0.013,-0.013,-0.005,-0.003,-0.007,-1.587,0.013,0.216,112.73,100.2,40.53289,-3.429277,624.5,3,5,298.1,4.219
114.34,1,0.026,-0.004,-0.032,0.016,-0.001,-0.021,-1.583,0.016,0.218,112.73,100.2,40.53289,-3.429277,624.5,3,5,298.1,4.219
114.44,1,-0.019,-0.003,-0.048,0.002,0.005,-0.034,-1.58,0.014,0.221,112.73,100.2,40.53289,-3.429277,624.5,3,5,298.1,4.219
114.54,1,-0.038,-0.009,-0.03,-0.017,-0.006,-0.035,-1.576,0.014,0.223,112.73,100.2,40.53289,-3.429277,624.5,3,5,298.1,4.219
114.64,1,-0.022,0.007,-0.049,-0.031,-0.003,-0.039,-1.572,0.013,0.225,113.77,100.1,40.532997,-3.429566,625.7,4,5,296.0,3.867
114.74,1,0.011,0.001,-0.058,-0.008,0.002,-0.048,-1.566,0.013,0.227,113.77,100.1,40.532997,-3.429566,625.7,4,5,296.0,3.867
114.84,1,-0.004,-0.003,-0.052,-0.003,0.001,-0.054,-1.559,0.013,0.229,113.77,100.1,40.532997,-3.429566,625.7,4,5,296.0,3.867
114.94,1,-0.004,0.001,-0.046,-0.001,-0.002,-0.049,-1.556,0.012,0.231,113.77,100.1,40.532997,-3.429566,625.7,4,5,296.0,3.867
115.04,1,-0.031,0.025,-0.082,-0.011,0.01,-0.061,-1.551,0.011,0.232,113.77,100.1,40.532997,-3.429566,625.7,4,5,296.0,3.867
115.14,1,0.001,0.017,-0.032,-0.014,0.014,-0.057,-1.546,0.008,0.234,113.77,100.1,40.532997,-3.429566,625.7,4,5,296.0,3.867
115.25,1,-0.009,0.009,-0.037,-0.007,0.015,-0.039,-1.543,0.008,0.235,113.77,100.1,40.532997,-3.429566,625.7,4,5,296.0,3.867
115.34,1,0.005,0.009,-0.055,-0.007,0.01,-0.05,-1.54,0.008,0.236,113.77,100.1,40.532997,-3.429566,625.7,4,5,296.0,3.867
115.44,1,-0.009,-0.002,-0.04,-0.004,0.007,-0.045,-1.537,0.009,0.238,113.77,100.1,40.532997,-3.429566,625.7,4,5,296.0,3.867
115.54,1,-0.027,0.008,-0.027,-0.014,0.009,-0.038,-1.534,0.01,0.239,113.77,100.1,40.532997,-3.429566,625.7,4,5,296.0,3.867
115.64,1,-0.009,0.027,-0.029,-0.012,0.016,-0.029,-1.531,0.009,0.24,114.75,100.1,40.533104,-3.429861,626.6,4,5,296.0,2.109
115.74,1,0.009,0.0,-0.032,-0.001,0.011,-0.032,-1.527,0.006,0.242,114.75,100.1,40.533104,-3.429861,626.6,4,5,296.0,2.109
115.84,1,-0.001,0.018,-0.036,-0.0,0.01,-0.037,-1.525,0.009,0.244,114.75,100.1,40.533104,-3.429861,626.6,4,5,296.0,2.109
115.94,1,-0.046,-0.004,-0.018,-0.016,0.006,-0.025,-1.523,0.01,0.246,114.75,100.1,40.533104,-3.429861,626.6,4,5,296.0,2.109
116.04,1,-0.05,-0.01,-0.03,-0.041,-0.002,-0.027,-1.522,0.013,0.247,114.75,100.1,40.533104,-3.429861,626.6,4,5,296.0,2.109
116.14,1,-0.003,-0.006,-0.017,-0.026,-0.006,-0.023,-1.522,0.012,0.249,114.75,100.1,40.533104,-3.429861,626.6,4,5,296.0,2.109
116.24,1,-0.017,0.032,-0.019,-0.016,0.012,-0.023,-1.52,0.009,0.251,114.75,100.1,40.533104,-3.429861,626.6,4,5,296.0,2.109
116.34,1,0.004,0.038,-0.012,-0.005,0.029,-0.015,-1.52,0.011,0.252,114.75,100.1,40.533104,-3.429861,626.6,4,5,296.0,2.109
116.44,1,-0.013,0.022,-0.014,-0.014,0.027,-0.015,-1.519,0.009,0.254,114.75,100.1,40.533104,-3.429861,626.6,4,5,296.0,2.109
116.54,1,0.001,-0.009,0.025,-0.006,0.006,-0.002,-1.519,0.012,0.256,114.75,100.1,40.533104,-3.429861,626.6,4,5,296.0,2.109
116.65,1,-0.018,-0.009,0.012,-0.008,-0.001,0.013,-1.521,0.013,0.258,115.75,97.3,40.533199,-3.430159,627.7,3,5,292.9,3.164
116.74,1,-0.006,-0.006,0.018,-0.011,-0.004,0.012,-1.522,0.013,0.259,115.75,97.3,40.533199,-3.430159,627.7,3,5,292.9,3.164
