Timestamp_Accel,SystemActivated,accelerometerXAxis,accelerometerYAxis,accelerometerZAxis,AccelX_KF,AccelY_KF,AccelZ_KF,gyroscopeXAxis,gyroscopeYAxis,gyroscopeZAxis,Timestamp_GPS,Speed,latitude,longitude,Altitude,VerticalAccuracy,HorizontalAccuracy,Course,Difcourse
41.92,0,-0.05,-0.013,0.01,-0.049,-0.016,0.023,-1.591,0.014,0.099,41.97,0.0,40.513298,-3.4063,609.1,21,339,-1.0,-1.0
42.02,0,-0.042,0.005,0.005,-0.05,-0.006,0.009,-1.591,0.014,0.099,41.97,0.0,40.513298,-3.4063,609.1,21,339,-1.0,-1.0
42.12,0,-0.008,-0.007,0.042,-0.027,-0.005,0.025,-1.593,0.015,0.099,41.97,0.0,40.513298,-3.4063,609.1,21,339,-1.0,-1.0
42.24,0,-0.012,0.0,0.008,-0.018,-0.004,0.023,-1.591,0.018,0.099,41.97,0.0,40.513298,-3.4063,609.1,21,339,-1.0,-1.0
42.32,1,-0.023,-0.011,0.026,-0.018,-0.005,0.02,-1.591,0.019,0.099,41.97,0.0,40.513298,-3.4063,609.1,21,339,-1.0,-1.0
42.43,1,-0.029,0.003,0.021,-0.021,-0.001,0.02,-1.592,0.018,0.099,41.97,0.0,40.513298,-3.4063,609.1,21,339,-1.0,-1.0
42.52,1,-0.049,0.017,0.03,-0.037,0.004,0.028,-1.594,0.015,0.099,41.97,0.0,40.513298,-3.4063,609.1,21,339,-1.0,-1.0
42.63,1,-0.043,0.023,0.019,-0.038,0.015,0.021,-1.593,0.015,0.098,41.97,0.0,40.513298,-3.4063,609.1,21,339,-1.0,-1.0
42.72,1,-0.023,0.007,0.026,-0.04,0.014,0.025,-1.594,0.016,0.098,41.97,0.0,40.513298,-3.4063,609.1,21,339,-1.0,-1.0
42.82,1,0.008,-0.011,0.011,-0.016,0.0,0.018,-1.592,0.018,0.098,41.97,0.0,40.513298,-3.4063,609.1,21,339,-1.0,-1.0
42.93,1,-0.03,-0.012,-0.011,-0.016,-0.004,0.004,-1.591,0.017,0.098,42.99,83.5,40.52187,-3.412418,586.1,128,50,325.2,171.211
43.04,1,-0.001,-0.019,0.002,-0.011,-0.011,-0.002,-1.593,0.018,0.098,42.99,83.5,40.52187,-3.412418,586.1,128,50,325.2,171.211
43.14,1,-0.043,-0.019,0.009,-0.018,-0.015,0.008,-1.596,0.019,0.099,42.99,83.5,40.52187,-3.412418,586.1,128,50,325.2,171.211
43.24,1,0.009,-0.025,0.005,-0.02,-0.022,0.004,-1.595,0.022,0.1,42.99,83.5,40.52187,-3.412418,586.1,128,50,325.2,171.211
43.33,1,0.013,-0.023,0.027,0.003,-0.025,0.011,-1.595,0.024,0.1,42.99,83.5,40.52187,-3.412418,586.1,128,50,325.2,171.211
43.43,1,-0.007,-0.032,0.006,0.001,-0.024,0.02,-1.597,0.025,0.101,42.99,83.5,40.52187,-3.412418,586.1,128,50,325.2,171.211
43.53,1,-0.041,-0.012,-0.005,-0.014,-0.022,0.005,-1.599,0.025,0.102,42.99,83.5,40.52187,-3.412418,586.1,128,50,325.2,171.211
43.64,1,-0.031,-0.01,0.03,-0.033,-0.014,0.007,-1.601,0.026,0.102,42.99,83.5,40.52187,-3.412418,586.1,128,50,325.2,171.211
43.73,1,-0.0,-0.007,0.026,-0.015,-0.011,0.022,-1.603,0.029,0.103,42.99,83.5,40.52187,-3.412418,586.1,128,50,325.2,171.211
43.83,1,0.01,-0.018,-0.021,-0.0,-0.012,0.007,-1.602,0.031,0.104,42.99,83.5,40.52187,-3.412418,586.1,128,50,325.2,171.211
43.93,1,-0.025,-0.023,-0.004,-0.014,-0.019,-0.003,-1.601,0.033,0.105,43.98,81.9,40.521988,-3.412745,626.9,8,10,324.1,1.055
44.03,1,-0.02,-0.018,0.023,-0.017,-0.019,0.009,-1.601,0.034,0.106,43.98,81.9,40.521988,-3.412745,626.9,8,10,324.1,1.055
44.13,1,-0.014,-0.041,-0.005,-0.008,-0.025,0.003,-1.601,0.036,0.108,43.98,81.9,40.521988,-3.412745,626.9,8,10,324.1,1.055
44.23,1,-0.047,-0.043,0.015,-0.036,-0.037,0.004,-1.6,0.039,0.11,43.98,81.9,40.521988,-3.412745,626.9,8,10,324.1,1.055
44.33,1,-0.012,-0.023,-0.008,-0.024,-0.033,0.005,-1.601,0.039,0.111,43.98,81.9,40.521988,-3.412745,626.9,8,10,324.1,1.055
44.43,1,-0.058,-0.003,-0.01,-0.04,-0.02,-0.003,-1.602,0.039,0.112,43.98,81.9,40.521988,-3.412745,626.9,8,10,324.1,1.055
44.53,1,0.017,-0.006,0.025,-0.02,-0.009,0.005,-1.605,0.036,0.112,43.98,81.9,40.521988,-3.412745,626.9,8,10,324.1,1.055
44.63,1,0.004,0.035,0.021,-0.001,0.011,0.017,-1.605,0.032,0.112,43.98,81.9,40.521988,-3.412745,626.9,8,10,324.1,1.055
44.73,1,-0.023,0.01,-0.01,-0.006,0.016,0.008,-1.603,0.031,0.113,43.98,81.9,40.521988,-3.412745,626.9,8,10,324.1,1.055
44.83,1,-0.009,0.009,-0.004,-0.012,0.011,0.001,-1.604,0.032,0.114,43.98,81.9,40.521988,-3.412745,626.9,8,10,324.1,1.055
44.93,1,-0.041,-0.014,0.034,-0.022,0.002,0.009,-1.605,0.033,0.115,44.98,86.4,40.522163,-3.412905,626.2,6,5,324.5,0.703
45.03,1,0.031,-0.004,0.012,-0.011,-0.003,0.016,-1.604,0.034,0.116,44.98,86.4,40.522163,-3.412905,626.2,6,5,324.5,0.703
45.13,1,0.017,0.014,-0.028,0.015,-0.001,-0.0,-1.603,0.033,0.117,44.98,86.4,40.522163,-3.412905,626.2,6,5,324.5,0.703
45.23,1,-0.049,0.043,0.016,-0.004,0.022,0.0,-1.603,0.032,0.117,44.98,86.4,40.522163,-3.412905,626.2,6,5,324.5,0.703
45.33,1,-0.0,0.009,0.014,-0.015,0.023,0.004,-1.604,0.032,0.117,44.98,86.4,40.522163,-3.412905,626.2,6,5,324.5,0.703
45.43,1,-0.042,-0.022,-0.027,-0.015,-0.0,-0.002,-1.604,0.032,0.117,44.98,86.4,40.522163,-3.412905,626.2,6,5,324.5,0.703
45.54,1,-0.077,-0.044,0.014,-0.057,-0.023,-0.003,-1.607,0.032,0.117,44.98,86.4,40.522163,-3.412905,626.2,6,5,324.5,0.703
45.64,1,0.008,0.0,0.036,-0.033,-0.017,0.017,-1.611,0.029,0.118,44.98,86.4,40.522163,-3.412905,626.2,6,5,324.5,0.703
45.73,1,-0.026,-0.006,-0.013,-0.018,-0.012,0.014,-1.611,0.025,0.118,44.98,86.4,40.522163,-3.412905,626.2,6,5,324.5,0.703
45.83,1,-0.066,-0.029,-0.021,-0.05,-0.011,-0.014,-1.61,0.024,0.119,44.98,86.4,40.522163,-3.412905,626.2,6,5,324.5,0.703
45.93,1,-0.044,-0.008,0.021,-0.043,-0.017,0.001,-1.613,0.023,0.121,45.98,87.9,40.522335,-3.413071,626.7,6,5,324.1,0.352
46.04,1,-0.1,-0.03,-0.02,-0.077,-0.023,0.001,-1.613,0.022,0.122,45.98,87.9,40.522335,-3.413071,626.7,6,5,324.1,0.352
46.14,1,-0.044,0.017,0.008,-0.067,-0.008,-0.008,-1.611,0.019,0.122,45.98,87.9,40.522335,-3.413071,626.7,6,5,324.1,0.352
46.24,1,0.015,0.036,0.023,-0.022,0.02,0.012,-1.614,0.015,0.123,45.98,87.9,40.522335,-3.413071,626.7,6,5,324.1,0.352
46.34,1,-0.003,0.006,-0.002,-0.0,0.014,0.013,-1.612,0.013,0.124,45.98,87.9,40.522335,-3.413071,626.7,6,5,324.1,0.352
46.43,1,-0.048,0.036,-0.023,-0.027,0.026,-0.011,-1.607,0.011,0.124,45.98,87.9,40.522335,-3.413071,626.7,6,5,324.1,0.352
46.53,1,-0.012,0.008,0.004,-0.031,0.017,-0.009,-1.606,0.009,0.124,45.98,87.9,40.522335,-3.413071,626.7,6,5,324.1,0.352
46.63,1,-0.025,0.021,0.045,-0.014,0.013,0.021,-1.605,0.009,0.125,45.98,87.9,40.522335,-3.413071,626.7,6,5,324.1,0.352
46.73,1,-0.134,0.004,-0.006,-0.068,0.014,0.014,-1.604,0.009,0.125,45.98,87.9,40.522335,-3.413071,626.7,6,5,324.1,0.352
46.83,1,0.023,-0.005,0.045,-0.054,0.009,0.022,-1.606,0.013,0.126,45.98,87.9,40.522335,-3.413071,626.7,6,5,324.1,0.352
46.93,1,-0.007,-0.022,-0.039,-0.005,-0.01,0.005,-1.606,0.017,0.127,47.0,87.1,40.522507,-3.413236,625.9,4,5,324.1,0.352
47.04,1,-0.016,-0.005,-0.02,-0.018,-0.007,-0.02,-1.608,0.016,0.128,47.0,87.1,40.522507,-3.413236,625.9,4,5,324.1,0.352
47.13,1,0.03,-0.033,-0.002,0.006,-0.02,-0.014,-1.611,0.017,0.13,47.0,87.1,40.522507,-3.413236,625.9,4,5,324.1,0.352
47.24,1,0.001,-0.044,0.018,0.007,-0.032,0.009,-1.615,0.017,0.131,47.0,87.1,40.522507,-3.413236,625.9,4,5,324.1,0.352
47.34,1,-0.003,-0.011,-0.024,0.01,-0.026,-0.007,-1.61,0.011,0.132,47.0,87.1,40.522507,-3.413236,625.9,4,5,324.1,0.352
47.44,1,-0.029,-0.001,-0.003,-0.015,-0.014,-0.009,-1.61,0.008,0.133,47.0,87.1,40.522507,-3.413236,625.9,4,5,324.1,0.352
47.55,1,-0.033,-0.005,-0.008,-0.023,-0.007,-0.01,-1.612,0.004,0.135,47.0,87.1,40.522507,-3.413236,625.9,4,5,324.1,0.352
47.64,1,-0.07,-0.031,0.017,-0.05,-0.016,0.006,-1.611,0.003,0.137,47.0,87.1,40.522507,-3.413236,625.9,4,5,324.1,0.352
47.74,1,0.003,-0.025,-0.001,-0.029,-0.023,0.006,-1.614,0.004,0.139,47.0,87.1,40.522507,-3.413236,625.9,4,5,324.1,0.352
47.84,1,0.002,-0.03,0.002,-0.019,-0.028,0.005,-1.611,0.004,0.14,47.0,87.1,40.522507,-3.413236,625.9,4,5,324.1,0.352
47.94,1,-0.012,-0.006,-0.04,-0.001,-0.017,-0.02,-1.61,0.005,0.142,48.07,89.3,40.522686,-3.413425,625.8,4,5,323.1,1.055
48.04,1,-0.03,-0.041,0.014,-0.022,-0.022,-0.009,-1.61,0.011,0.144,48.07,89.3,40.522686,-3.413425,625.8,4,5,323.1,1.055
48.15,1,0.044,-0.074,-0.009,0.006,-0.047,-0.001,-1.612,0.012,0.147,48.07,89.3,40.522686,-3.413425,625.8,4,5,323.1,1.055
48.24,1,-0.055,-0.065,-0.005,-0.009,-0.063,-0.005,-1.612,0.015,0.15,48.07,89.3,40.522686,-3.413425,625.8,4,5,323.1,1.055
48.34,1,-0.056,-0.028,0.001,-0.042,-0.05,-0.004,-1.61,0.018,0.154,48.07,89.3,40.522686,-3.413425,625.8,4,5,323.1,1.055
48.44,1,-0.007,-0.092,0.029,-0.032,-0.057,0.012,-1.611,0.023,0.159,48.07,89.3,40.522686,-3.413425,625.8,4,5,323.1,1.055
48.54,1,-0.012,-0.099,-0.033,-0.018,-0.083,0.002,-1.609,0.031,0.165,48.07,89.3,40.522686,-3.413425,625.8,4,5,323.1,1.055
48.64,1,0.016,-0.102,0.001,-0.004,-0.096,-0.016,-1.607,0.038,0.172,48.07,89.3,40.522686,-3.413425,625.8,4,5,323.1,1.055
48.75,1,0.006,-0.089,-0.016,0.005,-0.098,-0.008,-1.608,0.045,0.178,48.07,89.3,40.522686,-3.413425,625.8,4,5,323.1,1.055
48.84,1,-0.018,-0.068,-0.002,-0.001,-0.085,-0.009,-1.608,0.048,0.183,48.07,89.3,40.522686,-3.413425,625.8,4,5,323.1,1.055
48.94,1,-0.036,-0.037,0.046,-0.023,-0.057,0.017,-1.61,0.05,0.188,48.98,89.4,40.522865,-3.413607,626.0,3,5,322.4,1.758
49.04,1,-0.083,-0.047,0.003,-0.047,-0.052,0.021,-1.61,0.048,0.192,48.98,89.4,40.522865,-3.413607,626.0,3,5,322.4,1.758
49.14,1,-0.005,-0.035,-0.011,-0.039,-0.042,0.004,-1.609,0.047,0.197,48.98,89.4,40.522865,-3.413607,626.0,3,5,322.4,1.758
49.24,1,-0.023,-0.017,-0.019,-0.02,-0.032,-0.01,-1.61,0.046,0.2,48.98,89.4,40.522865,-3.413607,626.0,3,5,322.4,1.758
49.35,1,0.044,-0.012,0.005,0.002,-0.018,-0.008,-1.609,0.045,0.204,48.98,89.4,40.522865,-3.413607,626.0,3,5,322.4,1.758
49.45,1,0.003,-0.02,-0.005,0.017,-0.018,-0.003,-1.609,0.041,0.208,48.98,89.4,40.522865,-3.413607,626.0,3,5,322.4,1.758
49.54,1,-0.033,-0.012,-0.024,-0.017,-0.018,-0.01,-1.61,0.038,0.212,48.98,89.4,40.522865,-3.413607,626.0,3,5,322.4,1.758
49.64,1,0.035,0.003,0.014,0.002,-0.008,-0.006,-1.609,0.033,0.215,48.98,89.4,40.522865,-3.413607,626.0,3,5,322.4,1.758
49.74,1,-0.011,-0.025,-0.005,0.008,-0.01,0.004,-1.61,0.033,0.219,48.98,89.4,40.522865,-3.413607,626.0,3,5,322.4,1.758
49.84,1,-0.019,-0.012,0.013,-0.007,-0.017,0.0,-1.61,0.036,0.223,48.98,89.4,40.522865,-3.413607,626.0,3,5,322.4,1.758
49.94,1,-0.011,-0.023,0.011,-0.013,-0.016,0.007,-1.614,0.035,0.227,49.98,90.0,40.523022,-3.413802,625.9,3,5,319.9,3.164
50.04,1,-0.041,-0.027,0.001,-0.017,-0.022,0.013,-1.614,0.038,0.23,49.98,90.0,40.523022,-3.413802,625.9,3,5,319.9,3.164
50.14,1,-0.013,-0.011,-0.017,-0.026,-0.019,-0.008,-1.614,0.039,0.234,49.98,90.0,40.523022,-3.413802,625.9,3,5,319.9,3.164
50.24,1,0.035,-0.02,-0.011,-0.001,-0.017,-0.009,-1.615,0.038,0.238,49.98,90.0,40.523022,-3.413802,625.9,3,5,319.9,3.164
50.34,1,0.048,0.008,-0.014,0.032,-0.009,-0.012,-1.615,0.036,0.242,49.98,90.0,40.523022,-3.413802,625.9,3,5,319.9,3.164
50.44,1,-0.036,-0.001,-0.015,0.011,-0.005,-0.015,-1.614,0.031,0.246,49.98,90.0,40.523022,-3.413802,625.9,3,5,319.9,3.164
50.54,1,0.024,0.025,0.011,0.005,0.015,-0.005,-1.615,0.029,0.25,49.98,90.0,40.523022,-3.413802,625.9,3,5,319.9,3.164
50.65,1,-0.023,-0.054,-0.016,-0.001,-0.015,-0.002,-1.613,0.03,0.254,49.98,90.0,40.523022,-3.413802,625.9,3,5,319.9,3.164
50.74,1,-0.013,0.003,-0.019,-0.012,-0.017,-0.013,-1.61,0.028,0.256,49.98,90.0,40.523022,-3.413802,625.9,3,5,319.9,3.164
50.84,1,0.015,0.047,0.012,-0.009,0.011,-0.004,-1.61,0.024,0.258,49.98,90.0,40.523022,-3.413802,625.9,3,5,319.9,3.164
50.94,1,0.074,0.076,0.031,0.036,0.049,0.015,-1.609,0.018,0.26,50.99,90.6,40.523182,-3.414,627.1,3,5,317.5,4.922
51.15,1,-0.008,0.064,-0.003,0.026,0.06,-0.006,-1.603,0.019,0.264,50.99,90.6,40.523182,-3.414,627.1,3,5,317.5,4.922
51.26,1,-0.098,0.038,-0.011,-0.032,0.053,-0.008,-1.605,0.018,0.265,50.99,90.6,40.523182,-3.414,627.1,3,5,317.5,4.922
51.35,1,-0.19,0.06,-0.022,-0.106,0.049,-0.014,-1.61,0.016,0.267,50.99,90.6,40.523182,-3.414,627.1,3,5,317.5,4.922
51.44,1,-0.014,0.039,0.01,-0.102,0.053,-0.008,-1.613,0.017,0.269,50.99,90.6,40.523182,-3.414,627.1,3,5,317.5,4.922
51.54,1,-0.044,0.003,-0.006,-0.05,0.03,0.002,-1.612,0.015,0.272,50.99,90.6,40.523182,-3.414,627.1,3,5,317.5,4.922
51.65,1,0.033,0.004,0.003,-0.027,0.011,-0.0,-1.611,0.016,0.275,50.99,90.6,40.523182,-3.414,627.1,3,5,317.5,4.922
51.75,1,0.101,-0.019,0.023,0.051,0.005,0.009,-1.61,0.018,0.277,50.99,90.6,40.523182,-3.414,627.1,3,5,317.5,4.922
51.86,1,0.054,0.002,-0.036,0.066,-0.01,-0.002,-1.607,0.017,0.28,50.99,90.6,40.523182,-3.414,627.1,3,5,317.5,4.922
51.95,1,-0.061,0.017,-0.024,0.013,0.007,-0.027,-1.603,0.013,0.282,50.99,90.6,40.523182,-3.414,627.1,3,5,317.5,4.922
52.05,1,-0.083,0.021,0.005,-0.051,0.013,-0.011,-1.606,0.009,0.285,51.98,91.2,40.52335,-3.414211,628.2,3,5,315.4,4.57
52.15,1,-0.068,0.007,0.01,-0.062,0.013,0.008,-1.611,0.007,0.288,51.98,91.2,40.52335,-3.414211,628.2,3,5,315.4,4.57
52.26,1,0.02,-0.039,-0.039,-0.03,-0.012,-0.019,-1.609,0.008,0.291,51.98,91.2,40.52335,-3.414211,628.2,3,5,315.4,4.57
52.35,1,0.0,-0.012,0.013,-0.0,-0.018,-0.002,-1.615,0.005,0.293,51.98,91.2,40.52335,-3.414211,628.2,3,5,315.4,4.57
52.46,1,-0.007,0.017,-0.015,-0.01,0.002,-0.009,-1.615,0.004,0.296,51.98,91.2,40.52335,-3.414211,628.2,3,5,315.4,4.57
52.56,1,0.011,0.011,-0.008,0.0,0.009,-0.012,-1.615,0.006,0.299,51.98,91.2,40.52335,-3.414211,628.2,3,5,315.4,4.57
52.65,1,0.02,-0.014,0.009,0.009,-0.001,0.0,-1.615,0.011,0.303,51.98,91.2,40.52335,-3.414211,628.2,3,5,315.4,4.57
52.75,1,-0.013,-0.034,-0.016,0.001,-0.019,-0.005,-1.613,0.016,0.307,51.98,91.2,40.52335,-3.414211,628.2,3,5,315.4,4.57
52.85,1,0.04,-0.029,0.004,0.018,-0.027,-0.008,-1.611,0.023,0.311,51.98,91.2,40.52335,-3.414211,628.2,3,5,315.4,4.57
52.95,1,-0.006,-0.01,-0.006,0.006,-0.02,0.0,-1.609,0.026,0.315,51.98,91.2,40.52335,-3.414211,628.2,3,5,315.4,4.57
53.06,1,0.063,-0.012,0.008,0.031,-0.011,0.002,-1.607,0.027,0.318,52.99,91.7,40.523506,-3.41443,628.9,3,5,313.9,3.516
53.15,1,-0.003,-0.013,-0.02,0.029,-0.016,-0.004,-1.607,0.029,0.322,52.99,91.7,40.523506,-3.41443,628.9,3,5,313.9,3.516
53.25,1,-0.019,0.014,-0.017,-0.002,0.0,-0.018,-1.607,0.031,0.325,52.99,91.7,40.523506,-3.41443,628.9,3,5,313.9,3.516
53.35,1,0.025,0.003,-0.015,0.005,0.001,-0.012,-1.605,0.031,0.327,52.99,91.7,40.523506,-3.41443,628.9,3,5,313.9,3.516
53.45,1,0.029,0.042,-0.003,0.023,0.017,-0.013,-1.605,0.028,0.329,52.99,91.7,40.523506,-3.41443,628.9,3,5,313.9,3.516
53.56,1,-0.011,0.053,0.018,0.01,0.04,0.002,-1.604,0.024,0.33,52.99,91.7,40.523506,-3.41443,628.9,3,5,313.9,3.516
53.66,1,0.039,0.04,-0.007,0.01,0.045,0.006,-1.604,0.02,0.332,52.99,91.7,40.523506,-3.41443,628.9,3,5,313.9,3.516
53.76,1,0.046,0.058,-0.019,0.033,0.046,-0.009,-1.605,0.016,0.333,52.99,91.7,40.523506,-3.41443,628.9,3,5,313.9,3.516
53.85,1,-0.021,0.03,-0.011,0.018,0.045,-0.015,-1.606,0.011,0.335,52.99,91.7,40.523506,-3.41443,628.9,3,5,313.9,3.516
53.96,1,0.032,0.003,0.016,0.011,0.024,0.002,-1.606,0.011,0.337,52.99,91.7,40.523506,-3.41443,628.9,3,5,313.9,3.516
54.06,1,-0.116,-0.006,-0.021,-0.032,0.005,-0.007,-1.607,0.011,0.34,53.98,92.3,40.523663,-3.414654,629.9,3,5,311.8,3.516
54.16,1,-0.008,-0.017,0.036,-0.057,-0.005,0.008,-1.607,0.013,0.343,53.98,92.3,40.523663,-3.414654,629.9,3,5,311.8,3.516
54.25,1,0.079,-0.026,-0.034,0.018,-0.015,0.002,-1.604,0.015,0.345,53.98,92.3,40.523663,-3.414654,629.9,3,5,311.8,3.516
54.36,1,-0.058,0.024,-0.025,0.013,-0.006,-0.026,-1.602,0.014,0.348,53.98,92.3,40.523663,-3.414654,629.9,3,5,311.8,3.516
54.46,1,-0.029,0.006,0.033,-0.03,0.011,0.002,-1.606,0.013,0.35,53.98,92.3,40.523663,-3.414654,629.9,3,5,311.8,3.516
54.55,1,-0.017,-0.007,-0.021,-0.026,-0.002,0.006,-1.607,0.014,0.353,53.98,92.3,40.523663,-3.414654,629.9,3,5,311.8,3.516
54.66,1,0.017,0.008,-0.027,0.006,0.004,-0.016,-1.606,0.014,0.355,53.98,92.3,40.523663,-3.414654,629.9,3,5,311.8,3.516
54.76,1,0.009,-0.011,0.011,-0.01,-0.0,-0.009,-1.61,0.013,0.358,53.98,92.3,40.523663,-3.414654,629.9,3,5,311.8,3.516
54.85,1,-0.007,0.001,0.001,0.011,-0.007,-0.003,-1.61,0.012,0.36,53.98,92.3,40.523663,-3.414654,629.9,3,5,311.8,3.516
54.96,1,0.011,0.005,-0.021,-0.002,0.005,-0.008,-1.607,0.012,0.363,53.98,92.3,40.523663,-3.414654,629.9,3,5,311.8,3.516
55.05,1,0.114,-0.012,0.041,0.051,-0.0,0.003,-1.608,0.013,0.366,55.0,92.9,40.523811,-3.414886,631.3,3,5,310.1,3.867
55.16,1,-0.062,-0.022,-0.021,0.03,-0.02,0.009,-1.607,0.015,0.368,55.0,92.9,40.523811,-3.414886,631.3,3,5,310.1,3.867
55.26,1,-0.069,-0.016,-0.014,-0.05,-0.016,-0.011,-1.607,0.015,0.372,55.0,92.9,40.523811,-3.414886,631.3,3,5,310.1,3.867
55.36,1,-0.034,-0.017,-0.031,-0.036,-0.018,-0.015,-1.609,0.014,0.375,55.0,92.9,40.523811,-3.414886,631.3,3,5,310.1,3.867
55.46,1,0.132,-0.035,0.007,0.026,-0.022,-0.015,-1.609,0.016,0.379,55.0,92.9,40.523811,-3.414886,631.3,3,5,310.1,3.867
55.56,1,0.034,0.005,-0.021,0.061,-0.017,-0.009,-1.606,0.014,0.381,55.0,92.9,40.523811,-3.414886,631.3,3,5,310.1,3.867
55.66,1,0.023,-0.013,-0.006,0.03,-0.005,-0.014,-1.603,0.013,0.384,55.0,92.9,40.523811,-3.414886,631.3,3,5,310.1,3.867
55.75,1,0.058,-0.044,0.013,0.045,-0.028,-0.0,-1.603,0.014,0.388,55.0,92.9,40.523811,-3.414886,631.3,3,5,310.1,3.867
55.86,1,-0.052,0.009,-0.007,0.006,-0.013,0.001,-1.602,0.013,0.39,55.0,92.9,40.523811,-3.414886,631.3,3,5,310.1,3.867
55.96,1,-0.052,-0.028,0.011,-0.026,-0.014,0.003,-1.602,0.014,0.393,55.0,92.9,40.523811,-3.414886,631.3,3,5,310.1,3.867
56.06,1,0.02,0.012,0.011,-0.016,-0.01,0.011,-1.601,0.013,0.395,56.1,93.8,40.523952,-3.415132,632.2,3,5,307.6,4.219
56.16,1,0.006,0.016,-0.042,0.008,0.012,-0.019,-1.601,0.012,0.397,56.1,93.8,40.523952,-3.415132,632.2,3,5,307.6,4.219
56.26,1,0.067,0.032,0.012,0.024,0.014,-0.005,-1.602,0.009,0.398,56.1,93.8,40.523952,-3.415132,632.2,3,5,307.6,4.219
56.36,1,-0.021,0.011,-0.016,0.019,0.02,-0.008,-1.602,0.008,0.399,56.1,93.8,40.523952,-3.415132,632.2,3,5,307.6,4.219
56.46,1,-0.034,0.003,0.014,-0.022,0.012,-0.002,-1.601,0.008,0.401,56.1,93.8,40.523952,-3.415132,632.2,3,5,307.6,4.219
56.56,1,0.044,-0.012,-0.023,0.002,-0.002,-0.002,-1.6,0.008,0.402,56.1,93.8,40.523952,-3.415132,632.2,3,5,307.6,4.219
56.66,1,0.021,0.023,-0.03,0.031,0.005,-0.021,-1.596,0.007,0.403,56.1,93.8,40.523952,-3.415132,632.2,3,5,307.6,4.219
56.76,1,0.022,0.019,0.031,0.022,0.015,-0.005,-1.595,0.005,0.405,56.1,93.8,40.523952,-3.415132,632.2,3,5,307.6,4.219
56.87,1,0.05,0.01,-0.017,0.031,0.014,0.005,-1.593,0.006,0.407,56.1,93.8,40.523952,-3.415132,632.2,3,5,307.6,4.219
56.96,1,0.017,0.001,-0.018,0.034,0.01,-0.015,-1.59,0.006,0.408,56.1,93.8,40.523952,-3.415132,632.2,3,5,307.6,4.219
57.06,1,-0.083,0.008,-0.039,-0.025,0.006,-0.023,-1.588,0.007,0.41,56.98,94.6,40.524086,-3.415389,632.1,3,5,305.5,4.57
57.16,1,-0.016,0.014,-0.01,-0.037,0.008,-0.022,-1.589,0.007,0.412,56.98,94.6,40.524086,-3.415389,632.1,3,5,305.5,4.57
57.26,1,0.01,-0.03,-0.013,-0.003,-0.003,-0.015,-1.589,0.009,0.414,56.98,94.6,40.524086,-3.415389,632.1,3,5,305.5,4.57
57.36,1,0.002,-0.014,-0.021,0.008,-0.016,-0.012,-1.588,0.012,0.416,56.98,94.6,40.524086,-3.415389,632.1,3,5,305.5,4.57
57.47,1,-0.009,-0.024,-0.031,-0.007,-0.017,-0.026,-1.585,0.014,0.418,56.98,94.6,40.524086,-3.415389,632.1,3,5,305.5,4.57
57.57,1,0.012,0.004,-0.033,0.001,-0.008,-0.029,-1.582,0.014,0.421,56.98,94.6,40.524086,-3.415389,632.1,3,5,305.5,4.57
57.66,1,-0.036,-0.047,-0.008,-0.015,-0.023,-0.022,-1.581,0.017,0.423,56.98,94.6,40.524086,-3.415389,632.1,3,5,305.5,4.57
57.77,1,-0.001,-0.027,-0.043,-0.014,-0.033,-0.025,-1.578,0.021,0.426,56.98,94.6,40.524086,-3.415389,632.1,3,5,305.5,4.57
57.86,1,-0.015,-0.02,-0.067,-0.012,-0.024,-0.051,-1.572,0.023,0.429,56.98,94.6,40.524086,-3.415389,632.1,3,5,305.5,4.57
57.96,1,0.02,-0.026,-0.053,0.007,-0.022,-0.054,-1.568,0.025,0.432,56.98,94.6,40.524086,-3.415389,632.1,3,5,305.5,4.57
58.06,1,-0.02,-0.016,-0.066,-0.008,-0.024,-0.055,-1.564,0.027,0.434,57.99,95.6,40.524216,-3.415654,632.3,3,5,303.4,4.219
58.16,1,-0.025,-0.009,-0.066,-0.012,-0.015,-0.068,-1.561,0.027,0.436,57.99,95.6,40.524216,-3.415654,632.3,3,5,303.4,4.219
58.26,1,-0.016,-0.02,-0.023,-0.024,-0.013,-0.046,-1.56,0.028,0.439,57.99,95.6,40.524216,-3.415654,632.3,3,5,303.4,4.219
58.36,1,0.045,0.005,-0.051,0.007,-0.01,-0.04,-1.555,0.032,0.441,57.99,95.6,40.524216,-3.415654,632.3,3,5,303.4,4.219
58.46,1,0.047,0.034,-0.064,0.037,0.011,-0.054,-1.547,0.034,0.443,57.99,95.6,40.524216,-3.415654,632.3,3,5,303.4,4.219
58.57,1,0.025,0.016,-0.071,0.033,0.017,-0.064,-1.541,0.034,0.444,57.99,95.6,40.524216,-3.415654,632.3,3,5,303.4,4.219
58.66,1,-0.0,0.018,-0.057,0.018,0.017,-0.067,-1.537,0.031,0.445,57.99,95.6,40.524216,-3.415654,632.3,3,5,303.4,4.219
58.77,1,-0.043,0.025,-0.055,-0.014,0.023,-0.054,-1.534,0.03,0.446,57.99,95.6,40.524216,-3.415654,632.3,3,5,303.4,4.219
58.86,1,-0.005,0.02,-0.04,-0.02,0.024,-0.047,-1.53,0.029,0.447,57.99,95.6,40.524216,-3.415654,632.3,3,5,303.4,4.219
58.96,1,-0.008,0.019,-0.047,-0.009,0.017,-0.048,-1.526,0.027,0.448,57.99,95.6,40.524216,-3.415654,632.3,3,5,303.4,4.219
59.06,1,-0.023,0.001,-0.041,-0.011,0.014,-0.045,-1.522,0.024,0.449,58.99,95.2,40.524338,-3.415919,632.8,3,5,301.3,4.219
59.16,1,0.017,0.035,-0.035,-0.003,0.017,-0.045,-1.519,0.021,0.449,58.99,95.2,40.524338,-3.415919,632.8,3,5,301.3,4.219
59.26,1,0.011,0.036,-0.025,0.012,0.027,-0.028,-1.517,0.018,0.45,58.99,95.2,40.524338,-3.415919,632.8,3,5,301.3,4.219
59.37,1,-0.024,0.039,-0.03,-0.008,0.038,-0.031,-1.514,0.013,0.45,58.99,95.2,40.524338,-3.415919,632.8,3,5,301.3,4.219
59.47,1,-0.036,0.003,-0.045,-0.031,0.022,-0.037,-1.514,0.013,0.451,58.99,95.2,40.524338,-3.415919,632.8,3,5,301.3,4.219
59.56,1,0.037,0.014,-0.028,0.004,0.014,-0.034,-1.513,0.012,0.452,58.99,95.2,40.524338,-3.415919,632.8,3,5,301.3,4.219
59.67,1,0.009,0.031,-0.033,0.014,0.025,-0.032,-1.508,0.011,0.452,58.99,95.2,40.524338,-3.415919,632.8,3,5,301.3,4.219
59.77,1,0.032,0.011,-0.022,0.021,0.018,-0.028,-1.505,0.01,0.453,58.99,95.2,40.524338,-3.415919,632.8,3,5,301.3,4.219
59.87,1,-0.036,0.004,-0.04,0.004,0.012,-0.029,-1.504,0.007,0.454,58.99,95.2,40.524338,-3.415919,632.8,3,5,301.3,4.219
59.97,1,-0.012,0.011,-0.019,-0.015,0.008,-0.028,-1.503,0.005,0.455,58.99,95.2,40.524338,-3.415919,632.8,3,5,301.3,4.219
60.07,1,-0.029,0.003,-0.017,-0.019,0.008,-0.025,-1.502,0.003,0.456,59.99,93.3,40.524456,-3.416192,633.2,3,5,299.2,4.219
60.17,1,-0.014,-0.022,-0.009,-0.022,-0.005,-0.012,-1.503,0.003,0.457,59.99,93.3,40.524456,-3.416192,633.2,3,5,299.2,4.219
60.27,1,-0.008,0.025,-0.031,-0.015,0.001,-0.023,-1.501,0.0,0.458,59.99,93.3,40.524456,-3.416192,633.2,3,5,299.2,4.219
60.37,1,0.046,-0.007,0.027,0.012,0.005,-0.005,-1.501,-0.002,0.458,59.99,93.3,40.524456,-3.416192,633.2,3,5,299.2,4.219
60.47,1,0.006,-0.0,-0.02,0.023,-0.001,-0.001,-1.498,-0.001,0.459,59.99,93.3,40.524456,-3.416192,633.2,3,5,299.2,4.219
60.57,1,-0.003,-0.004,-0.018,0.005,-0.001,-0.014,-1.495,-0.005,0.459,59.99,93.3,40.524456,-3.416192,633.2,3,5,299.2,4.219
60.67,1,0.014,0.028,0.006,0.001,0.014,-0.008,-1.493,-0.004,0.459,59.99,93.3,40.524456,-3.416192,633.2,3,5,299.2,4.219
60.77,1,-0.038,-0.016,-0.011,0.003,0.002,-0.002,-1.494,-0.005,0.46,59.99,93.3,40.524456,-3.416192,633.2,3,5,299.2,4.219
60.87,1,-0.049,0.022,-0.023,-0.037,0.003,-0.017,-1.493,-0.005,0.46,59.99,93.3,40.524456,-3.416192,633.2,3,5,299.2,4.219
60.97,1,-0.013,0.009,0.025,-0.032,0.013,-0.003,-1.495,-0.007,0.46,59.99,93.3,40.524456,-3.416192,633.2,3,5,299.2,4.219
61.17,1,0.034,0.002,0.02,-0.011,-0.002,0.001,-1.497,-0.006,0.461,60.99,90.9,40.524551,-3.416454,633.8,3,5,297.4,3.867
61.27,1,0.028,0.011,0.015,0.02,0.006,0.009,-1.496,-0.007,0.462,60.99,90.9,40.524551,-3.416454,633.8,3,5,297.4,3.867
61.37,1,0.017,-0.013,0.008,0.018,-0.001,0.016,-1.496,-0.004,0.462,60.99,90.9,40.524551,-3.416454,633.8,3,5,297.4,3.867
61.47,1,-0.047,-0.013,-0.0,-0.001,-0.005,0.004,-1.496,-0.003,0.464,60.99,90.9,40.524551,-3.416454,633.8,3,5,297.4,3.867
61.57,1,-0.011,-0.013,0.006,-0.028,-0.014,0.0,-1.496,-0.001,0.465,60.99,90.9,40.524551,-3.416454,633.8,3,5,297.4,3.867
61.68,1,-0.038,-0.055,-0.003,-0.022,-0.029,0.004,-1.496,0.0,0.467,60.99,90.9,40.524551,-3.416454,633.8,3,5,297.4,3.867
61.77,1,-0.033,-0.062,0.017,-0.036,-0.045,0.01,-1.496,0.003,0.469,60.99,90.9,40.524551,-3.416454,633.8,3,5,297.4,3.867
61.88,1,0.013,-0.034,-0.011,-0.012,-0.045,0.002,-1.496,0.004,0.472,60.99,90.9,40.524551,-3.416454,633.8,3,5,297.4,3.867
61.97,1,0.013,-0.015,-0.011,0.013,-0.033,-0.003,-1.491,0.006,0.474,60.99,90.9,40.524551,-3.416454,633.8,3,5,297.4,3.867
62.07,1,-0.002,-0.005,-0.005,-0.003,-0.017,-0.008,-1.491,0.007,0.476,60.99,90.9,40.524551,-3.416454,633.8,3,5,297.4,3.867
62.17,1,0.026,0.011,-0.011,0.009,-0.003,-0.015,-1.491,0.012,0.478,61.99,88.8,40.524651,-3.416721,634.4,3,5,296.0,3.164
62.28,1,-0.018,-0.051,0.0,-0.002,-0.02,-0.004,-1.492,0.016,0.48,61.99,88.8,40.524651,-3.416721,634.4,3,5,296.0,3.164
62.38,1,0.045,0.003,-0.029,0.022,-0.017,-0.016,-1.486,0.019,0.482,61.99,88.8,40.524651,-3.416721,634.4,3,5,296.0,3.164
62.48,1,0.074,-0.02,0.022,0.045,-0.016,0.002,-1.484,0.017,0.483,61.99,88.8,40.524651,-3.416721,634.4,3,5,296.0,3.164
62.57,1,-0.034,-0.043,-0.029,0.023,-0.028,-0.007,-1.483,0.017,0.485,61.99,88.8,40.524651,-3.416721,634.4,3,5,296.0,3.164
62.67,1,-0.037,0.014,0.017,-0.018,-0.012,-0.004,-1.48,0.016,0.487,61.99,88.8,40.524651,-3.416721,634.4,3,5,296.0,3.164
62.77,1,-0.006,-0.002,0.031,-0.011,-0.002,0.014,-1.483,0.016,0.488,61.99,88.8,40.524651,-3.416721,634.4,3,5,296.0,3.164
62.87,1,0.012,0.011,0.017,-0.008,0.007,0.019,-1.487,0.016,0.49,61.99,88.8,40.524651,-3.416721,634.4,3,5,296.0,3.164
62.97,1,0.006,0.014,0.021,0.008,0.007,0.029,-1.487,0.018,0.491,61.99,88.8,40.524651,-3.416721,634.4,3,5,296.0,3.164
63.08,1,-0.023,0.008,-0.016,-0.008,0.009,-0.003,-1.485,0.018,0.492,61.99,88.8,40.524651,-3.416721,634.4,3,5,296.0,3.164
63.17,1,-0.026,0.003,0.015,-0.017,0.005,0.007,-1.487,0.018,0.494,62.99,87.3,40.524734,-3.416985,633.1,3,5,293.6,3.867
63.27,1,-0.056,0.007,0.017,-0.038,0.006,0.01,-1.489,0.02,0.495,62.99,87.3,40.524734,-3.416985,633.1,3,5,293.6,3.867
63.37,1,-0.0,0.027,0.041,-0.026,0.013,0.024,-1.494,0.02,0.495,62.99,87.3,40.524734,-3.416985,633.1,3,5,293.6,3.867
63.48,1,0.029,0.047,0.024,-0.0,0.03,0.03,-1.495,0.02,0.495,62.99,87.3,40.524734,-3.416985,633.1,3,5,293.6,3.867
63.58,1,0.024,0.051,0.069,0.02,0.042,0.045,-1.498,0.018,0.494,62.99,87.3,40.524734,-3.416985,633.1,3,5,293.6,3.867
63.67,1,-0.001,0.063,0.069,0.009,0.055,0.058,-1.503,0.014,0.493,62.99,87.3,40.524734,-3.416985,633.1,3,5,293.6,3.867
63.78,1,-0.031,0.034,0.078,-0.002,0.048,0.074,-1.512,0.011,0.491,62.99,87.3,40.524734,-3.416985,633.1,3,5,293.6,3.867
63.87,1,-0.042,0.056,0.097,-0.024,0.049,0.078,-1.52,0.009,0.49,62.99,87.3,40.524734,-3.416985,633.1,3,5,293.6,3.867
63.98,1,-0.052,0.058,0.078,-0.05,0.056,0.084,-1.526,0.009,0.489,62.99,87.3,40.524734,-3.416985,633.1,3,5,293.6,3.867
64.08,1,0.083,0.03,0.117,-0.002,0.045,0.094,-1.534,0.01,0.488,62.99,87.3,40.524734,-3.416985,633.1,3,5,293.6,3.867
64.18,1,0.128,0.008,0.043,0.08,0.026,0.084,-1.532,0.01,0.486,64.06,85.9,40.524807,-3.41725,632.0,3,5,291.1,4.922
64.28,1,0.089,0.028,0.056,0.1,0.017,0.057,-1.533,0.008,0.485,64.06,85.9,40.524807,-3.41725,632.0,3,5,291.1,4.922
64.39,1,0.02,0.063,0.057,0.067,0.039,0.058,-1.537,0.005,0.483,64.06,85.9,40.524807,-3.41725,632.0,3,5,291.1,4.922
64.48,1,-0.091,0.061,0.059,-0.005,0.059,0.059,-1.541,0.003,0.482,64.06,85.9,40.524807,-3.41725,632.0,3,5,291.1,4.922
64.58,1,-0.16,-0.014,0.069,-0.082,0.029,0.062,-1.547,0.005,0.482,64.06,85.9,40.524807,-3.41725,632.0,3,5,291.1,4.922
64.68,1,-0.08,-0.022,0.073,-0.114,-0.001,0.064,-1.556,0.008,0.481,64.06,85.9,40.524807,-3.41725,632.0,3,5,291.1,4.922
64.79,1,-0.069,-0.033,0.052,-0.087,-0.023,0.071,-1.563,0.008,0.48,64.06,85.9,40.524807,-3.41725,632.0,3,5,291.1,4.922
64.88,1,0.014,0.009,0.054,-0.05,-0.012,0.049,-1.567,0.003,0.479,64.06,85.9,40.524807,-3.41725,632.0,3,5,291.1,4.922
64.99,1,0.057,0.047,0.028,0.013,0.012,0.05,-1.568,0.001,0.479,64.06,85.9,40.524807,-3.41725,632.0,3,5,291.1,4.922
65.08,1,0.085,0.013,0.015,0.057,0.027,0.031,-1.566,0.001,0.478,64.06,85.9,40.524807,-3.41725,632.0,3,5,291.1,4.922
65.18,1,-0.005,-0.013,0.0,0.044,0.006,0.011,-1.569,0.004,0.478,64.99,87.0,40.524883,-3.417528,632.2,3,5,289.0,4.57
65.28,1,-0.069,-0.014,0.023,-0.024,-0.005,0.016,-1.573,0.005,0.478,64.99,87.0,40.524883,-3.417528,632.2,3,5,289.0,4.57
65.38,1,0.03,-0.002,0.024,-0.006,-0.006,0.019,-1.576,0.008,0.477,64.99,87.0,40.524883,-3.417528,632.2,3,5,289.0,4.57
65.49,1,-0.07,0.025,0.044,-0.027,0.008,0.033,-1.579,0.009,0.476,64.99,87.0,40.524883,-3.417528,632.2,3,5,289.0,4.57
65.58,1,-0.031,0.021,0.009,-0.041,0.015,0.026,-1.58,0.008,0.475,64.99,87.0,40.524883,-3.417528,632.2,3,5,289.0,4.57
65.69,1,-0.03,0.012,0.016,-0.026,0.017,0.017,-1.581,0.006,0.474,64.99,87.0,40.524883,-3.417528,632.2,3,5,289.0,4.57
65.78,1,-0.049,0.04,0.017,-0.042,0.026,0.013,-1.583,0.003,0.473,64.99,87.0,40.524883,-3.417528,632.2,3,5,289.0,4.57
65.88,1,-0.014,0.035,0.022,-0.034,0.035,0.026,-1.587,0.002,0.471,64.99,87.0,40.524883,-3.417528,632.2,3,5,289.0,4.57
65.98,1,-0.028,0.017,0.011,-0.018,0.026,0.012,-1.585,0.003,0.469,64.99,87.0,40.524883,-3.417528,632.2,3,5,289.0,4.57
66.08,1,0.001,0.008,0.009,-0.022,0.015,0.012,-1.586,0.009,0.468,64.99,87.0,40.524883,-3.417528,632.2,3,5,289.0,4.57
66.18,1,0.054,-0.022,-0.029,0.018,-0.001,-0.0,-1.584,0.015,0.468,65.99,90.2,40.524956,-3.417801,632.1,3,5,287.6,3.516
66.28,1,-0.017,-0.049,-0.068,0.014,-0.028,-0.041,-1.577,0.02,0.469,65.99,90.2,40.524956,-3.417801,632.1,3,5,287.6,3.516
66.38,1,0.008,-0.024,-0.089,-0.002,-0.031,-0.062,-1.57,0.023,0.469,65.99,90.2,40.524956,-3.417801,632.1,3,5,287.6,3.516
66.48,1,0.01,-0.006,-0.07,0.003,-0.019,-0.075,-1.562,0.022,0.468,65.99,90.2,40.524956,-3.417801,632.1,3,5,287.6,3.516
66.58,1,-0.014,-0.01,-0.059,0.009,-0.009,-0.07,-1.558,0.025,0.468,65.99,90.2,40.524956,-3.417801,632.1,3,5,287.6,3.516
66.69,1,-0.033,-0.01,-0.066,-0.019,-0.012,-0.065,-1.552,0.027,0.467,65.99,90.2,40.524956,-3.417801,632.1,3,5,287.6,3.516
66.79,1,-0.044,-0.012,-0.05,-0.033,-0.012,-0.053,-1.547,0.03,0.467,65.99,90.2,40.524956,-3.417801,632.1,3,5,287.6,3.516
66.88,1,0.006,0.001,-0.063,-0.021,-0.004,-0.06,-1.544,0.031,0.466,65.99,90.2,40.524956,-3.417801,632.1,3,5,287.6,3.516
66.98,1,-0.012,0.01,-0.037,-0.006,0.002,-0.05,-1.542,0.032,0.465,65.99,90.2,40.524956,-3.417801,632.1,3,5,287.6,3.516
67.09,1,-0.006,0.018,-0.035,-0.015,0.009,-0.04,-1.54,0.034,0.463,65.99,90.2,40.524956,-3.417801,632.1,3,5,287.6,3.516
67.18,1,0.012,0.033,-0.054,0.003,0.017,-0.042,-1.535,0.035,0.462,66.99,92.0,40.525021,-3.418089,631.7,3,5,286.9,2.109
67.28,1,-0.037,0.044,-0.06,-0.019,0.033,-0.058,-1.529,0.036,0.46,66.99,92.0,40.525021,-3.418089,631.7,3,5,286.9,2.109
67.39,1,-0.002,0.029,0.005,-0.013,0.036,-0.031,-1.528,0.034,0.458,66.99,92.0,40.525021,-3.418089,631.7,3,5,286.9,2.109
67.49,1,0.023,0.042,-0.049,0.006,0.034,-0.027,-1.524,0.033,0.456,66.99,92.0,40.525021,-3.418089,631.7,3,5,286.9,2.109
67.59,1,0.047,0.017,-0.025,0.026,0.034,-0.037,-1.519,0.03,0.453,66.99,92.0,40.525021,-3.418089,631.7,3,5,286.9,2.109
67.69,1,0.001,0.033,-0.02,0.028,0.027,-0.021,-1.516,0.03,0.45,66.99,92.0,40.525021,-3.418089,631.7,3,5,286.9,2.109
67.78,1,-0.055,0.039,-0.018,-0.018,0.034,-0.025,-1.512,0.031,0.448,66.99,92.0,40.525021,-3.418089,631.7,3,5,286.9,2.109
67.88,1,-0.049,0.051,0.007,-0.041,0.038,-0.01,-1.512,0.028,0.445,66.99,92.0,40.525021,-3.418089,631.7,3,5,286.9,2.109
67.98,1,-0.023,0.046,-0.04,-0.036,0.05,-0.013,-1.513,0.025,0.442,66.99,92.0,40.525021,-3.418089,631.7,3,5,286.9,2.109
68.1,1,-0.021,0.027,-0.009,-0.027,0.041,-0.028,-1.513,0.026,0.438,66.99,92.0,40.525021,-3.418089,631.7,3,5,286.9,2.109
68.19,1,0.045,0.007,0.039,0.011,0.019,0.018,-1.517,0.026,0.436,67.99,90.9,40.525078,-3.418377,631.1,3,5,285.8,1.758
68.28,1,0.034,0.05,0.028,0.018,0.029,0.013,-1.52,0.024,0.432,67.99,90.9,40.525078,-3.418377,631.1,3,5,285.8,1.758
68.39,1,0.003,0.046,0.076,0.022,0.044,0.055,-1.526,0.023,0.429,67.99,90.9,40.525078,-3.418377,631.1,3,5,285.8,1.758
68.49,1,-0.067,0.033,0.035,-0.018,0.038,0.045,-1.531,0.026,0.425,67.99,90.9,40.525078,-3.418377,631.1,3,5,285.8,1.758
68.59,1,-0.029,0.031,0.08,-0.035,0.034,0.057,-1.539,0.023,0.422,67.99,90.9,40.525078,-3.418377,631.1,3,5,285.8,1.758
68.69,1,-0.003,0.03,0.042,-0.028,0.037,0.057,-1.54,0.023,0.419,67.99,90.9,40.525078,-3.418377,631.1,3,5,285.8,1.758
68.8,1,0.021,0.011,0.035,0.003,0.019,0.042,-1.541,0.021,0.416,67.99,90.9,40.525078,-3.418377,631.1,3,5,285.8,1.758
68.9,1,0.039,-0.001,0.057,0.023,0.011,0.049,-1.545,0.018,0.412,67.99,90.9,40.525078,-3.418377,631.1,3,5,285.8,1.758
68.99,1,0.006,0.045,0.025,0.023,0.02,0.041,-1.548,0.013,0.409,67.99,90.9,40.525078,-3.418377,631.1,3,5,285.8,1.758
69.09,1,-0.001,0.037,0.012,0.001,0.033,0.023,-1.547,0.01,0.406,67.99,90.9,40.525078,-3.418377,631.1,3,5,285.8,1.758
69.19,1,-0.044,0.06,0.041,-0.011,0.045,0.027,-1.549,0.009,0.403,68.97,90.4,40.525143,-3.418662,630.5,3,5,285.5,1.406
69.29,1,-0.05,0.035,0.031,-0.034,0.05,0.036,-1.551,0.012,0.401,68.97,90.4,40.525143,-3.418662,630.5,3,5,285.5,1.406
69.39,1,0.002,-0.013,0.039,-0.034,0.022,0.036,-1.555,0.014,0.398,68.97,90.4,40.525143,-3.418662,630.5,3,5,285.5,1.406
69.49,1,0.038,-0.008,0.052,0.015,-0.0,0.046,-1.558,0.017,0.396,68.97,90.4,40.525143,-3.418662,630.5,3,5,285.5,1.406
69.59,1,0.005,-0.017,-0.005,0.015,-0.013,0.022,-1.557,0.02,0.393,68.97,90.4,40.525143,-3.418662,630.5,3,5,285.5,1.406
69.69,1,0.029,-0.007,0.023,0.035,-0.009,0.017,-1.559,0.023,0.39,68.97,90.4,40.525143,-3.418662,630.5,3,5,285.5,1.406
69.79,1,-0.08,0.042,0.009,-0.033,0.011,0.016,-1.562,0.022,0.388,68.97,90.4,40.525143,-3.418662,630.5,3,5,285.5,1.406
69.89,1,-0.013,-0.002,-0.005,-0.037,0.013,0.008,-1.562,0.02,0.385,68.97,90.4,40.525143,-3.418662,630.5,3,5,285.5,1.406
70.0,1,-0.021,-0.014,-0.025,-0.027,-0.0,-0.013,-1.559,0.021,0.382,68.97,90.4,40.525143,-3.418662,630.5,3,5,285.5,1.406
70.09,1,0.046,0.006,-0.018,0.009,-0.004,-0.014,-1.559,0.025,0.379,68.97,90.4,40.525143,-3.418662,630.5,3,5,285.5,1.406
70.19,1,-0.043,0.043,-0.002,-0.004,0.021,-0.013,-1.557,0.027,0.375,70.05,92.7,40.525208,-3.418953,629.9,4,5,285.8,0.352
70.29,1,0.004,0.036,-0.014,-0.007,0.028,-0.011,-1.554,0.027,0.371,70.05,92.7,40.525208,-3.418953,629.9,4,5,285.8,0.352
70.39,1,-0.003,0.03,-0.01,-0.001,0.038,-0.013,-1.554,0.025,0.367,70.05,92.7,40.525208,-3.418953,629.9,4,5,285.8,0.352
70.49,1,-0.012,0.028,0.018,-0.005,0.026,0.0,-1.555,0.024,0.363,70.05,92.7,40.525208,-3.418953,629.9,4,5,285.8,0.352
70.59,1,-0.057,0.007,-0.02,-0.037,0.02,0.0,-1.555,0.022,0.359,70.05,92.7,40.525208,-3.418953,629.9,4,5,285.8,0.352
70.7,1,0.029,0.03,-0.01,-0.014,0.021,-0.012,-1.555,0.021,0.356,70.05,92.7,40.525208,-3.418953,629.9,4,5,285.8,0.352
70.8,1,-0.006,0.028,-0.026,0.005,0.028,-0.015,-1.554,0.021,0.353,70.05,92.7,40.525208,-3.418953,629.9,4,5,285.8,0.352
70.89,1,0.014,0.014,0.007,0.002,0.022,-0.009,-1.552,0.022,0.349,70.05,92.7,40.525208,-3.418953,629.9,4,5,285.8,0.352
70.99,1,-0.011,0.027,-0.014,0.002,0.02,-0.005,-1.551,0.024,0.346,70.05,92.7,40.525208,-3.418953,629.9,4,5,285.8,0.352
71.19,1,-0.067,0.037,0.005,-0.023,0.021,-0.014,-1.549,0.021,0.337,70.05,92.7,40.525208,-3.418953,629.9,4,5,285.8,0.352
71.29,1,-0.057,0.028,-0.003,-0.057,0.028,-0.002,-1.547,0.02,0.333,71.03,94.6,40.525269,-3.419247,629.4,4,5,286.5,1.055
71.39,1,0.01,0.04,-0.007,-0.025,0.035,-0.005,-1.547,0.017,0.328,71.03,94.6,40.525269,-3.419247,629.4,4,5,286.5,1.055
71.49,1,-0.026,0.033,0.004,-0.021,0.032,-0.003,-1.548,0.014,0.324,71.03,94.6,40.525269,-3.419247,629.4,4,5,286.5,1.055
71.59,1,-0.011,0.02,0.018,-0.017,0.03,0.009,-1.548,0.013,0.319,71.03,94.6,40.525269,-3.419247,629.4,4,5,286.5,1.055
71.69,1,0.019,0.055,0.009,-0.004,0.032,0.01,-1.548,0.01,0.314,71.03,94.6,40.525269,-3.419247,629.4,4,5,286.5,1.055
71.79,1,0.01,0.031,0.003,0.016,0.043,0.008,-1.549,0.006,0.309,71.03,94.6,40.525269,-3.419247,629.4,4,5,286.5,1.055
71.9,1,-0.05,0.033,-0.017,-0.013,0.035,-0.004,-1.549,0.002,0.304,71.03,94.6,40.525269,-3.419247,629.4,4,5,286.5,1.055
72.0,1,-0.008,0.019,0.025,-0.024,0.022,0.003,-1.552,0.002,0.299,71.03,94.6,40.525269,-3.419247,629.4,4,5,286.5,1.055
72.09,1,0.005,0.014,0.011,-0.007,0.025,0.009,-1.555,-0.0,0.294,71.03,94.6,40.525269,-3.419247,629.4,4,5,286.5,1.055
72.2,1,-0.016,0.011,0.039,-0.014,0.016,0.026,-1.559,0.001,0.29,71.03,94.6,40.525269,-3.419247,629.4,4,5,286.5,1.055
72.3,1,-0.125,-0.024,-0.009,-0.056,0.007,0.013,-1.564,0.002,0.285,71.99,94.8,40.525341,-3.419549,628.8,4,5,286.5,0.703
72.4,1,-0.078,0.006,0.07,-0.086,-0.014,0.03,-1.572,-0.0,0.28,71.99,94.8,40.525341,-3.419549,628.8,4,5,286.5,0.703
72.51,1,0.032,0.083,0.05,-0.033,0.037,0.051,-1.573,-0.001,0.275,71.99,94.8,40.525341,-3.419549,628.8,4,5,286.5,0.703
72.6,1,0.102,0.028,0.007,0.044,0.039,0.036,-1.57,-0.005,0.269,71.99,94.8,40.525341,-3.419549,628.8,4,5,286.5,0.703
72.7,1,-0.023,0.05,0.007,0.025,0.042,0.011,-1.57,-0.007,0.263,71.99,94.8,40.525341,-3.419549,628.8,4,5,286.5,0.703
72.8,1,-0.016,0.065,0.034,0.004,0.056,0.023,-1.573,-0.013,0.255,71.99,94.8,40.525341,-3.419549,628.8,4,5,286.5,0.703
72.9,1,-0.059,0.079,-0.017,-0.036,0.068,0.006,-1.576,-0.017,0.248,71.99,94.8,40.525341,-3.419549,628.8,4,5,286.5,0.703
73.0,1,0.037,0.06,0.052,-0.008,0.064,0.022,-1.579,-0.019,0.241,71.99,94.8,40.525341,-3.419549,628.8,4,5,286.5,0.703
73.1,1,-0.095,0.085,-0.003,-0.026,0.075,0.021,-1.58,-0.02,0.234,71.99,94.8,40.525341,-3.419549,628.8,4,5,286.5,0.703
73.2,1,-0.036,0.029,0.018,-0.057,0.057,0.009,-1.583,-0.021,0.227,71.99,94.8,40.525341,-3.419549,628.8,4,5,286.5,0.703
73.3,1,-0.068,0.059,0.023,-0.047,0.05,0.022,-1.586,-0.021,0.221,72.99,96.2,40.525417,-3.419851,628.2,4,5,288.3,1.758
73.4,1,-0.019,0.021,-0.003,-0.053,0.043,0.009,-1.587,-0.02,0.214,72.99,96.2,40.525417,-3.419851,628.2,4,5,288.3,1.758
73.5,1,-0.014,0.059,-0.004,-0.021,0.042,0.005,-1.587,-0.019,0.207,72.99,96.2,40.525417,-3.419851,628.2,4,5,288.3,1.758
73.6,1,0.001,0.036,-0.033,-0.02,0.044,-0.02,-1.585,-0.018,0.201,72.99,96.2,40.525417,-3.419851,628.2,4,5,288.3,1.758
73.7,1,0.077,0.033,-0.009,0.029,0.035,-0.014,-1.586,-0.021,0.195,72.99,96.2,40.525417,-3.419851,628.2,4,5,288.3,1.758
73.81,1,-0.025,0.005,-0.032,0.022,0.029,-0.022,-1.585,-0.017,0.189,72.99,96.2,40.525417,-3.419851,628.2,4,5,288.3,1.758
73.91,1,-0.008,-0.031,-0.003,0.001,-0.004,-0.012,-1.586,-0.015,0.184,72.99,96.2,40.525417,-3.419851,628.2,4,5,288.3,1.758
74.0,1,-0.062,-0.004,-0.037,-0.029,-0.01,-0.023,-1.586,-0.012,0.181,72.99,96.2,40.525417,-3.419851,628.2,4,5,288.3,1.758
74.1,1,-0.002,-0.01,-0.027,-0.028,-0.006,-0.029,-1.585,-0.009,0.177,72.99,96.2,40.525417,-3.419851,628.2,4,5,288.3,1.758
74.2,1,-0.052,-0.015,-0.017,-0.017,-0.008,-0.023,-1.584,-0.004,0.173,72.99,96.2,40.525417,-3.419851,628.2,4,5,288.3,1.758
74.3,1,-0.058,-0.025,-0.027,-0.062,-0.022,-0.027,-1.584,-0.003,0.169,73.99,97.9,40.525501,-3.42015,627.9,4,5,290.4,3.867
74.4,1,-0.036,-0.007,0.005,-0.046,-0.018,-0.009,-1.586,-0.004,0.165,73.99,97.9,40.525501,-3.42015,627.9,4,5,290.4,3.867
74.5,1,0.008,-0.018,-0.011,-0.022,-0.012,-0.011,-1.584,-0.007,0.161,73.99,97.9,40.525501,-3.42015,627.9,4,5,290.4,3.867
74.6,1,0.042,0.038,-0.049,0.017,0.001,-0.02,-1.582,-0.008,0.155,73.99,97.9,40.525501,-3.42015,627.9,4,5,290.4,3.867
74.7,1,-0.063,0.018,-0.046,-0.015,0.022,-0.045,-1.577,-0.011,0.151,73.99,97.9,40.525501,-3.42015,627.9,4,5,290.4,3.867
74.8,1,0.022,0.007,-0.004,-0.007,0.016,-0.025,-1.576,-0.014,0.146,73.99,97.9,40.525501,-3.42015,627.9,4,5,290.4,3.867
74.9,1,-0.058,0.007,-0.049,-0.023,0.009,-0.031,-1.573,-0.019,0.141,73.99,97.9,40.525501,-3.42015,627.9,4,5,290.4,3.867
75.01,1,-0.012,0.026,-0.042,-0.031,0.013,-0.04,-1.572,-0.02,0.136,73.99,97.9,40.525501,-3.42015,627.9,4,5,290.4,3.867
75.1,1,0.007,0.01,-0.025,-0.006,0.019,-0.034,-1.568,-0.023,0.13,73.99,97.9,40.525501,-3.42015,627.9,4,5,290.4,3.867
75.2,1,0.032,0.033,-0.029,0.012,0.015,-0.03,-1.563,-0.027,0.124,73.99,97.9,40.525501,-3.42015,627.9,4,5,290.4,3.867
75.3,1,0.029,-0.009,-0.035,0.02,0.018,-0.028,-1.559,-0.033,0.118,75.0,100.3,40.525593,-3.420452,627.3,4,5,293.2,4.922
75.4,1,-0.09,0.048,-0.028,-0.02,0.02,-0.034,-1.555,-0.035,0.113,75.0,100.3,40.525593,-3.420452,627.3,4,5,293.2,4.922
75.5,1,-0.02,0.005,-0.011,-0.044,0.021,-0.021,-1.555,-0.037,0.108,75.0,100.3,40.525593,-3.420452,627.3,4,5,293.2,4.922
75.6,1,0.061,-0.048,0.006,0.018,-0.015,-0.01,-1.551,-0.035,0.104,75.0,100.3,40.525593,-3.420452,627.3,4,5,293.2,4.922
75.7,1,-0.004,0.001,-0.035,0.015,-0.01,-0.006,-1.548,-0.035,0.1,75.0,100.3,40.525593,-3.420452,627.3,4,5,293.2,4.922
75.8,1,-0.053,0.0,-0.065,-0.035,0.005,-0.049,-1.547,-0.034,0.096,75.0,100.3,40.525593,-3.420452,627.3,4,5,293.2,4.922
75.91,1,-0.119,-0.048,-0.011,-0.055,-0.025,-0.038,-1.55,-0.032,0.092,75.0,100.3,40.525593,-3.420452,627.3,4,5,293.2,4.922
76.0,1,-0.087,-0.03,-0.047,-0.076,-0.039,-0.024,-1.553,-0.035,0.089,75.0,100.3,40.525593,-3.420452,627.3,4,5,293.2,4.922
76.1,1,-0.095,-0.01,0.01,-0.066,-0.032,-0.025,-1.556,-0.038,0.084,75.0,100.3,40.525593,-3.420452,627.3,4,5,293.2,4.922
76.2,1,-0.061,0.008,-0.028,-0.117,0.004,-0.022,-1.556,-0.036,0.081,75.0,100.3,40.525593,-3.420452,627.3,4,5,293.2,4.922
76.32,1,0.114,-0.05,0.003,0.02,-0.021,-0.008,-1.555,-0.034,0.077,75.99,100.7,40.5257,-3.420753,626.8,4,5,295.7,5.273
76.4,1,0.051,-0.036,-0.016,0.032,-0.039,-0.007,-1.549,-0.037,0.072,75.99,100.7,40.5257,-3.420753,626.8,4,5,295.7,5.273
76.5,1,0.103,0.011,-0.046,0.081,-0.01,-0.026,-1.546,-0.042,0.065,75.99,100.7,40.5257,-3.420753,626.8,4,5,295.7,5.273
76.61,1,-0.056,0.019,-0.034,0.019,0.006,-0.035,-1.544,-0.048,0.059,75.99,100.7,40.5257,-3.420753,626.8,4,5,295.7,5.273
76.71,1,-0.061,0.03,-0.04,-0.01,0.013,-0.031,-1.543,-0.054,0.053,75.99,100.7,40.5257,-3.420753,626.8,4,5,295.7,5.273
76.81,1,-0.096,0.024,-0.028,-0.072,0.025,-0.039,-1.546,-0.058,0.049,75.99,100.7,40.5257,-3.420753,626.8,4,5,295.7,5.273
76.92,1,-0.022,0.011,-0.013,-0.058,0.018,-0.024,-1.546,-0.057,0.044,75.99,100.7,40.5257,-3.420753,626.8,4,5,295.7,5.273
77.02,1,0.009,0.002,-0.057,-0.023,0.012,-0.034,-1.54,-0.053,0.04,75.99,100.7,40.5257,-3.420753,626.8,4,5,295.7,5.273
77.11,1,0.005,-0.011,-0.062,-0.001,-0.004,-0.055,-1.533,-0.052,0.035,75.99,100.7,40.5257,-3.420753,626.8,4,5,295.7,5.273
77.21,1,-0.008,0.006,-0.07,-0.008,-0.002,-0.064,-1.527,-0.052,0.031,75.99,100.7,40.5257,-3.420753,626.8,4,5,295.7,5.273
77.31,1,-0.012,0.005,-0.029,-0.009,0.007,-0.046,-1.523,-0.054,0.026,76.98,100.6,40.52581,-3.421051,626.6,4,5,297.1,3.867
77.41,1,0.041,0.012,-0.007,0.008,0.01,-0.029,-1.523,-0.053,0.021,76.98,100.6,40.52581,-3.421051,626.6,4,5,297.1,3.867
77.51,1,-0.042,0.008,-0.058,0.001,0.008,-0.034,-1.522,-0.051,0.016,76.98,100.6,40.52581,-3.421051,626.6,4,5,297.1,3.867
77.61,1,-0.02,0.031,-0.02,-0.028,0.011,-0.034,-1.522,-0.052,0.01,76.98,100.6,40.52581,-3.421051,626.6,4,5,297.1,3.867
77.71,1,-0.033,0.065,0.019,-0.012,0.04,-0.011,-1.523,-0.056,0.003,76.98,100.6,40.52581,-3.421051,626.6,4,5,297.1,3.867
77.81,1,-0.005,0.054,0.022,-0.031,0.058,0.008,-1.526,-0.062,-0.004,76.98,100.6,40.52581,-3.421051,626.6,4,5,297.1,3.867
77.91,1,0.083,0.037,0.034,0.046,0.048,0.022,-1.527,-0.064,-0.011,76.98,100.6,40.52581,-3.421051,626.6,4,5,297.1,3.867
78.01,1,-0.132,0.046,0.035,-0.034,0.039,0.028,-1.529,-0.067,-0.018,76.98,100.6,40.52581,-3.421051,626.6,4,5,297.1,3.867
78.11,1,0.032,0.089,0.062,-0.016,0.056,0.058,-1.534,-0.068,-0.025,76.98,100.6,40.52581,-3.421051,626.6,4,5,297.1,3.867
78.24,1,0.069,0.042,0.023,0.022,0.068,0.037,-1.538,-0.068,-0.032,76.98,100.6,40.52581,-3.421051,626.6,4,5,297.1,3.867
78.31,1,0.016,0.02,0.005,0.041,0.039,0.024,-1.543,-0.068,-0.039,78.0,100.3,40.525925,-3.421333,625.9,4,5,299.9,4.219
78.41,1,-0.067,0.027,0.014,-0.021,0.031,0.012,-1.546,-0.072,-0.045,78.0,100.3,40.525925,-3.421333,625.9,4,5,299.9,4.219
78.51,1,-0.018,0.062,0.025,-0.025,0.045,0.017,-1.549,-0.079,-0.052,78.0,100.3,40.525925,-3.421333,625.9,4,5,299.9,4.219
78.61,1,-0.036,0.039,-0.016,-0.047,0.043,0.006,-1.551,-0.08,-0.059,78.0,100.3,40.525925,-3.421333,625.9,4,5,299.9,4.219
78.71,1,-0.009,0.028,0.002,-0.011,0.034,-0.001,-1.552,-0.081,-0.066,78.0,100.3,40.525925,-3.421333,625.9,4,5,299.9,4.219
78.82,1,-0.083,0.009,0.016,-0.052,0.023,0.004,-1.554,-0.084,-0.073,78.0,100.3,40.525925,-3.421333,625.9,4,5,299.9,4.219
78.92,1,0.041,0.022,0.019,-0.015,0.019,0.017,-1.555,-0.085,-0.079,78.0,100.3,40.525925,-3.421333,625.9,4,5,299.9,4.219
79.01,1,-0.14,-0.012,-0.022,-0.048,0.009,-0.001,-1.556,-0.087,-0.086,78.0,100.3,40.525925,-3.421333,625.9,4,5,299.9,4.219
79.11,1,0.033,-0.0,-0.012,-0.041,0.001,-0.009,-1.557,-0.09,-0.092,78.0,100.3,40.525925,-3.421333,625.9,4,5,299.9,4.219
79.21,1,-0.006,0.033,-0.016,-0.009,0.01,-0.016,-1.56,-0.091,-0.098,78.0,100.3,40.525925,-3.421333,625.9,4,5,299.9,4.219
79.31,1,-0.126,-0.008,-0.054,-0.055,0.011,-0.03,-1.56,-0.089,-0.104,79.01,101.4,40.526062,-3.421611,625.5,4,5,303.8,6.68
79.41,1,0.019,-0.018,-0.001,-0.04,-0.007,-0.024,-1.558,-0.089,-0.108,79.01,101.4,40.526062,-3.421611,625.5,4,5,303.8,6.68
79.51,1,-0.019,-0.012,-0.007,-0.031,-0.014,-0.015,-1.555,-0.086,-0.113,79.01,101.4,40.526062,-3.421611,625.5,4,5,303.8,6.68
79.61,1,-0.013,-0.02,0.021,-0.001,-0.016,0.006,-1.556,-0.086,-0.118,79.01,101.4,40.526062,-3.421611,625.5,4,5,303.8,6.68
79.71,1,0.029,-0.033,0.031,0.0,-0.023,0.016,-1.559,-0.091,-0.124,79.01,101.4,40.526062,-3.421611,625.5,4,5,303.8,6.68
79.81,1,-0.053,-0.022,0.042,0.002,-0.023,0.032,-1.562,-0.094,-0.129,79.01,101.4,40.526062,-3.421611,625.5,4,5,303.8,6.68
79.91,1,0.055,-0.024,0.035,-0.019,-0.027,0.034,-1.565,-0.095,-0.134,79.01,101.4,40.526062,-3.421611,625.5,4,5,303.8,6.68
80.02,1,0.006,0.003,0.008,0.013,-0.007,0.028,-1.567,-0.094,-0.14,79.01,101.4,40.526062,-3.421611,625.5,4,5,303.8,6.68
80.11,1,-0.015,-0.012,0.013,0.011,-0.011,0.014,-1.568,-0.094,-0.145,79.01,101.4,40.526062,-3.421611,625.5,4,5,303.8,6.68
80.21,1,-0.085,-0.011,-0.021,-0.049,-0.009,-0.001,-1.569,-0.093,-0.15,79.01,101.4,40.526062,-3.421611,625.5,4,5,303.8,6.68
80.31,1,-0.041,-0.036,-0.006,-0.051,-0.027,-0.007,-1.575,-0.091,-0.156,80.0,101.5,40.526203,-3.421884,625.0,4,5,306.2,6.328
80.41,1,-0.068,-0.053,-0.009,-0.051,-0.028,-0.013,-1.578,-0.091,-0.161,80.0,101.5,40.526203,-3.421884,625.0,4,5,306.2,6.328
80.52,1,-0.073,-0.01,-0.026,-0.053,-0.034,-0.01,-1.576,-0.092,-0.166,80.0,101.5,40.526203,-3.421884,625.0,4,5,306.2,6.328
80.62,1,-0.045,-0.004,-0.042,-0.048,-0.015,-0.027,-1.574,-0.095,-0.171,80.0,101.5,40.526203,-3.421884,625.0,4,5,306.2,6.328
80.73,1,-0.104,-0.008,-0.032,-0.094,-0.001,-0.034,-1.575,-0.097,-0.176,80.0,101.5,40.526203,-3.421884,625.0,4,5,306.2,6.328
80.82,1,-0.032,-0.002,-0.016,-0.068,-0.01,-0.026,-1.575,-0.103,-0.182,80.0,101.5,40.526203,-3.421884,625.0,4,5,306.2,6.328
80.92,1,-0.065,-0.02,-0.031,-0.057,-0.009,-0.026,-1.576,-0.105,-0.187,80.0,101.5,40.526203,-3.421884,625.0,4,5,306.2,6.328
81.12,1,-0.033,-0.036,-0.029,-0.063,-0.024,-0.03,-1.577,-0.104,-0.198,80.0,101.5,40.526203,-3.421884,625.0,4,5,306.2,6.328
81.22,1,-0.022,-0.024,-0.017,-0.03,-0.025,-0.021,-1.576,-0.103,-0.203,80.0,101.5,40.526203,-3.421884,625.0,4,5,306.2,6.328
81.33,1,-0.015,-0.019,-0.047,-0.029,-0.028,-0.033,-1.573,-0.1,-0.208,80.0,101.5,40.526203,-3.421884,625.0,4,5,306.2,6.328
81.42,1,-0.054,-0.013,-0.034,-0.052,-0.013,-0.038,-1.568,-0.097,-0.213,81.0,101.7,40.526348,-3.422154,624.7,4,5,307.6,3.867
81.52,1,-0.03,-0.008,0.006,-0.018,-0.012,-0.019,-1.568,-0.095,-0.218,81.0,101.7,40.526348,-3.422154,624.7,4,5,307.6,3.867
81.63,1,-0.048,-0.019,-0.026,-0.04,-0.015,-0.016,-1.569,-0.095,-0.223,81.0,101.7,40.526348,-3.422154,624.7,4,5,307.6,3.867
81.72,1,-0.041,-0.02,-0.03,-0.063,-0.017,-0.023,-1.568,-0.094,-0.228,81.0,101.7,40.526348,-3.422154,624.7,4,5,307.6,3.867
81.82,1,-0.024,-0.038,-0.019,-0.023,-0.027,-0.025,-1.566,-0.091,-0.232,81.0,101.7,40.526348,-3.422154,624.7,4,5,307.6,3.867
81.93,1,-0.013,-0.035,-0.011,-0.024,-0.032,-0.018,-1.565,-0.086,-0.236,81.0,101.7,40.526348,-3.422154,624.7,4,5,307.6,3.867
82.03,1,-0.034,-0.008,-0.026,-0.025,-0.025,-0.018,-1.559,-0.083,-0.24,81.0,101.7,40.526348,-3.422154,624.7,4,5,307.6,3.867
82.12,1,0.001,-0.004,-0.055,-0.016,-0.013,-0.038,-1.558,-0.082,-0.245,81.0,101.7,40.526348,-3.422154,624.7,4,5,307.6,3.867
82.22,1,-0.003,0.017,-0.041,-0.012,0.006,-0.04,-1.557,-0.085,-0.25,81.0,101.7,40.526348,-3.422154,624.7,4,5,307.6,3.867
82.32,1,0.005,-0.015,-0.059,-0.001,-0.006,-0.05,-1.554,-0.086,-0.254,81.0,101.7,40.526348,-3.422154,624.7,4,5,307.6,3.867
82.42,1,-0.031,-0.025,-0.047,-0.021,-0.013,-0.049,-1.557,-0.084,-0.259,81.98,104.5,40.526512,-3.422416,624.3,4,5,310.8,4.57
82.52,1,-0.005,-0.033,-0.055,-0.003,-0.028,-0.05,-1.557,-0.083,-0.264,81.98,104.5,40.526512,-3.422416,624.3,4,5,310.8,4.57
82.62,1,-0.067,-0.015,-0.03,-0.037,-0.014,-0.043,-1.558,-0.084,-0.268,81.98,104.5,40.526512,-3.422416,624.3,4,5,310.8,4.57
82.72,1,0.029,-0.007,-0.041,-0.015,-0.023,-0.038,-1.557,-0.085,-0.273,81.98,104.5,40.526512,-3.422416,624.3,4,5,310.8,4.57
82.82,1,0.004,-0.022,-0.067,0.001,-0.012,-0.051,-1.552,-0.085,-0.277,81.98,104.5,40.526512,-3.422416,624.3,4,5,310.8,4.57
82.92,1,-0.025,-0.023,-0.039,-0.006,-0.021,-0.05,-1.546,-0.083,-0.281,81.98,104.5,40.526512,-3.422416,624.3,4,5,310.8,4.57
83.02,1,-0.028,-0.039,-0.032,-0.016,-0.026,-0.041,-1.543,-0.078,-0.285,81.98,104.5,40.526512,-3.422416,624.3,4,5,310.8,4.57
83.12,1,-0.062,-0.018,-0.042,-0.039,-0.029,-0.038,-1.544,-0.077,-0.288,81.98,104.5,40.526512,-3.422416,624.3,4,5,310.8,4.57
83.22,1,0.019,-0.039,-0.027,-0.019,-0.031,-0.034,-1.544,-0.075,-0.292,81.98,104.5,40.526512,-3.422416,624.3,4,5,310.8,4.57
83.32,1,-0.033,-0.013,-0.028,-0.02,-0.024,-0.029,-1.54,-0.073,-0.296,81.98,104.5,40.526512,-3.422416,624.3,4,5,310.8,4.57
83.42,1,-0.036,-0.02,-0.013,-0.024,-0.015,-0.029,-1.536,-0.072,-0.3,82.98,104.1,40.526695,-3.422674,623.9,4,5,313.2,5.625
83.52,1,-0.011,-0.037,-0.012,-0.029,-0.031,-0.014,-1.534,-0.071,-0.303,82.98,104.1,40.526695,-3.422674,623.9,4,5,313.2,5.625
83.62,1,-0.002,-0.015,-0.048,-0.01,-0.021,-0.023,-1.53,-0.071,-0.307,82.98,104.1,40.526695,-3.422674,623.9,4,5,313.2,5.625
83.72,1,-0.068,-0.018,-0.016,-0.026,-0.02,-0.032,-1.526,-0.072,-0.311,82.98,104.1,40.526695,-3.422674,623.9,4,5,313.2,5.625
83.83,1,-0.063,-0.019,-0.018,-0.056,-0.02,-0.022,-1.524,-0.069,-0.315,82.98,104.1,40.526695,-3.422674,623.9,4,5,313.2,5.625
83.92,1,-0.034,-0.011,-0.026,-0.046,-0.014,-0.027,-1.522,-0.069,-0.319,82.98,104.1,40.526695,-3.422674,623.9,4,5,313.2,5.625
84.02,1,-0.009,0.002,-0.028,-0.031,-0.009,-0.021,-1.519,-0.071,-0.323,82.98,104.1,40.526695,-3.422674,623.9,4,5,313.2,5.625
84.12,1,0.014,-0.006,0.009,0.004,-0.004,-0.009,-1.519,-0.068,-0.327,82.98,104.1,40.526695,-3.422674,623.9,4,5,313.2,5.625
84.22,1,-0.005,-0.004,0.03,-0.008,-0.005,0.009,-1.519,-0.065,-0.331,82.98,104.1,40.526695,-3.422674,623.9,4,5,313.2,5.625
84.32,1,-0.036,-0.031,-0.034,-0.017,-0.017,0.001,-1.517,-0.063,-0.335,82.98,104.1,40.526695,-3.422674,623.9,4,5,313.2,5.625
84.42,1,0.023,-0.008,-0.0,-0.013,-0.016,-0.01,-1.516,-0.064,-0.339,84.0,102.7,40.526878,-3.42291,623.3,4,5,316.8,5.977
84.52,1,-0.051,0.009,0.017,-0.015,-0.007,-0.002,-1.518,-0.066,-0.345,84.0,102.7,40.526878,-3.42291,623.3,4,5,316.8,5.977
84.62,1,0.018,0.033,0.058,-0.017,0.015,0.032,-1.523,-0.071,-0.35,84.0,102.7,40.526878,-3.42291,623.3,4,5,316.8,5.977
84.72,1,-0.012,0.023,0.029,0.002,0.022,0.037,-1.526,-0.077,-0.355,84.0,102.7,40.526878,-3.42291,623.3,4,5,316.8,5.977
84.82,1,-0.06,0.01,0.056,-0.024,0.019,0.042,-1.531,-0.081,-0.361,84.0,102.7,40.526878,-3.42291,623.3,4,5,316.8,5.977
84.93,1,-0.055,0.011,0.048,-0.054,0.017,0.045,-1.536,-0.08,-0.366,84.0,102.7,40.526878,-3.42291,623.3,4,5,316.8,5.977
85.03,1,-0.021,0.007,0.019,-0.034,0.005,0.041,-1.54,-0.079,-0.371,84.0,102.7,40.526878,-3.42291,623.3,4,5,316.8,5.977
85.13,1,-0.069,0.013,0.043,-0.043,0.015,0.033,-1.546,-0.08,-0.376,84.0,102.7,40.526878,-3.42291,623.3,4,5,316.8,5.977
85.23,1,0.008,0.007,0.043,-0.036,0.01,0.039,-1.547,-0.08,-0.381,84.0,102.7,40.526878,-3.42291,623.3,4,5,316.8,5.977
85.33,1,-0.004,0.003,0.027,-0.001,0.005,0.035,-1.548,-0.081,-0.386,84.0,102.7,40.526878,-3.42291,623.3,4,5,316.8,5.977
85.43,1,0.006,-0.007,0.037,-0.017,0.001,0.033,-1.55,-0.083,-0.39,84.99,102.7,40.527073,-3.423132,622.9,4,5,319.2,5.977
85.53,1,-0.016,0.032,0.017,0.005,0.01,0.027,-1.55,-0.086,-0.395,84.99,102.7,40.527073,-3.423132,622.9,4,5,319.2,5.977
85.63,1,-0.036,-0.006,0.022,-0.031,0.014,0.019,-1.552,-0.081,-0.4,84.99,102.7,40.527073,-3.423132,622.9,4,5,319.2,5.977
85.73,1,-0.005,0.004,-0.001,-0.011,-0.002,0.017,-1.553,-0.08,-0.405,84.99,102.7,40.527073,-3.423132,622.9,4,5,319.2,5.977
85.83,1,-0.092,-0.003,0.033,-0.052,0.0,0.019,-1.553,-0.083,-0.409,84.99,102.7,40.527073,-3.423132,622.9,4,5,319.2,5.977
85.93,1,-0.061,-0.016,0.004,-0.073,-0.006,0.014,-1.553,-0.085,-0.413,84.99,102.7,40.527073,-3.423132,622.9,4,5,319.2,5.977
86.03,1,-0.013,-0.022,-0.009,-0.017,-0.013,0.007,-1.551,-0.087,-0.418,84.99,102.7,40.527073,-3.423132,622.9,4,5,319.2,5.977
86.13,1,0.006,0.032,-0.029,-0.023,-0.0,-0.015,-1.555,-0.089,-0.423,84.99,102.7,40.527073,-3.423132,622.9,4,5,319.2,5.977
86.23,1,-0.045,0.009,-0.06,-0.011,0.013,-0.034,-1.552,-0.086,-0.426,84.99,102.7,40.527073,-3.423132,622.9,4,5,319.2,5.977
86.34,1,-0.054,0.002,-0.05,-0.043,0.009,-0.051,-1.551,-0.084,-0.43,84.99,102.7,40.527073,-3.423132,622.9,4,5,319.2,5.977
86.43,1,-0.096,-0.029,-0.047,-0.092,-0.01,-0.049,-1.55,-0.084,-0.434,86.01,104.1,40.52729,-3.423329,622.7,4,5,323.8,7.031
86.53,1,-0.038,0.022,-0.037,-0.051,-0.006,-0.04,-1.549,-0.086,-0.438,86.01,104.1,40.52729,-3.423329,622.7,4,5,323.8,7.031
86.63,1,0.039,-0.018,-0.032,-0.005,-0.004,-0.033,-1.546,-0.088,-0.443,86.01,104.1,40.52729,-3.423329,622.7,4,5,323.8,7.031
86.74,1,-0.037,-0.001,-0.055,-0.031,-0.003,-0.046,-1.545,-0.091,-0.447,86.01,104.1,40.52729,-3.423329,622.7,4,5,323.8,7.031
86.83,1,0.071,0.029,-0.061,0.037,0.008,-0.054,-1.545,-0.093,-0.451,86.01,104.1,40.52729,-3.423329,622.7,4,5,323.8,7.031
86.94,1,-0.088,-0.008,-0.072,-0.018,0.013,-0.065,-1.546,-0.091,-0.455,86.01,104.1,40.52729,-3.423329,622.7,4,5,323.8,7.031
87.04,1,-0.069,0.001,-0.065,-0.048,-0.003,-0.064,-1.546,-0.087,-0.459,86.01,104.1,40.52729,-3.423329,622.7,4,5,323.8,7.031
87.13,1,0.002,-0.004,-0.038,-0.041,0.007,-0.057,-1.545,-0.087,-0.462,86.01,104.1,40.52729,-3.423329,622.7,4,5,323.8,7.031
87.23,1,-0.046,-0.016,-0.05,-0.049,-0.006,-0.052,-1.545,-0.088,-0.466,86.01,104.1,40.52729,-3.423329,622.7,4,5,323.8,7.031
87.33,1,0.045,-0.03,-0.058,0.008,-0.021,-0.046,-1.543,-0.089,-0.469,86.01,104.1,40.52729,-3.423329,622.7,4,5,323.8,7.031
87.43,1,-0.021,-0.021,-0.069,0.004,-0.02,-0.063,-1.54,-0.086,-0.472,87.01,105.0,40.527515,-3.423527,622.6,4,5,326.2,7.031
87.54,1,-0.053,-0.038,-0.047,-0.027,-0.03,-0.058,-1.539,-0.086,-0.474,87.01,105.0,40.527515,-3.423527,622.6,4,5,326.2,7.031
87.63,1,0.003,-0.023,-0.045,-0.014,-0.033,-0.046,-1.538,-0.085,-0.477,87.01,105.0,40.527515,-3.423527,622.6,4,5,326.2,7.031
87.73,1,-0.005,-0.01,-0.036,-0.017,-0.02,-0.044,-1.534,-0.087,-0.479,87.01,105.0,40.527515,-3.423527,622.6,4,5,326.2,7.031
87.83,1,-0.015,-0.035,-0.036,-0.006,-0.023,-0.039,-1.528,-0.086,-0.482,87.01,105.0,40.527515,-3.423527,622.6,4,5,326.2,7.031
87.93,1,0.091,-0.045,-0.052,0.027,-0.03,-0.045,-1.525,-0.086,-0.485,87.01,105.0,40.527515,-3.423527,622.6,4,5,326.2,7.031
88.03,1,-0.102,-0.006,-0.064,-0.024,-0.025,-0.054,-1.524,-0.087,-0.487,87.01,105.0,40.527515,-3.423527,622.6,4,5,326.2,7.031
88.13,1,0.069,-0.062,0.002,0.022,-0.041,-0.034,-1.524,-0.087,-0.489,87.01,105.0,40.527515,-3.423527,622.6,4,5,326.2,7.031
88.24,1,-0.058,-0.031,-0.022,-0.01,-0.037,-0.028,-1.525,-0.087,-0.491,87.01,105.0,40.527515,-3.423527,622.6,4,5,326.2,7.031
88.33,1,-0.022,-0.042,0.035,-0.018,-0.046,0.003,-1.534,-0.082,-0.493,87.01,105.0,40.527515,-3.423527,622.6,4,5,326.2,7.031
88.43,1,-0.024,-0.091,0.037,-0.029,-0.06,0.023,-1.539,-0.08,-0.494,88.0,103.0,40.527737,-3.423685,622.1,4,5,329.4,5.625
88.53,1,-0.079,-0.042,0.011,-0.043,-0.059,0.023,-1.54,-0.077,-0.496,88.0,103.0,40.527737,-3.423685,622.1,4,5,329.4,5.625
88.64,1,0.011,-0.036,0.039,-0.03,-0.043,0.028,-1.545,-0.076,-0.497,88.0,103.0,40.527737,-3.423685,622.1,4,5,329.4,5.625
88.74,1,-0.041,-0.063,0.033,-0.028,-0.05,0.035,-1.549,-0.074,-0.498,88.0,103.0,40.527737,-3.423685,622.1,4,5,329.4,5.625
88.84,1,0.063,-0.081,0.033,0.005,-0.068,0.032,-1.551,-0.074,-0.499,88.0,103.0,40.527737,-3.423685,622.1,4,5,329.4,5.625
88.94,1,-0.02,-0.076,0.029,0.035,-0.076,0.033,-1.551,-0.071,-0.498,88.0,103.0,40.527737,-3.423685,622.1,4,5,329.4,5.625
89.03,1,-0.131,-0.086,0.026,-0.069,-0.075,0.027,-1.552,-0.068,-0.496,88.0,103.0,40.527737,-3.423685,622.1,4,5,329.4,5.625
89.14,1,-0.005,-0.13,0.04,-0.061,-0.1,0.03,-1.554,-0.06,-0.494,88.0,103.0,40.527737,-3.423685,622.1,4,5,329.4,5.625
89.24,1,0.033,-0.109,0.024,0.001,-0.115,0.033,-1.558,-0.052,-0.493,88.0,103.0,40.527737,-3.423685,622.1,4,5,329.4,5.625
89.34,1,-0.081,-0.105,0.015,-0.037,-0.11,0.024,-1.558,-0.052,-0.491,88.0,103.0,40.527737,-3.423685,622.1,4,5,329.4,5.625
89.45,1,0.076,-0.107,0.032,0.002,-0.105,0.027,-1.56,-0.049,-0.489,88.98,102.5,40.527969,-3.423844,621.5,4,5,331.5,5.273
89.54,1,-0.04,-0.11,0.005,-0.001,-0.109,0.017,-1.558,-0.041,-0.487,88.98,102.5,40.527969,-3.423844,621.5,4,5,331.5,5.273
89.64,1,-0.021,-0.078,0.028,-0.019,-0.098,0.02,-1.561,-0.035,-0.485,88.98,102.5,40.527969,-3.423844,621.5,4,5,331.5,5.273
89.74,1,-0.02,-0.063,0.028,-0.019,-0.073,0.026,-1.567,-0.033,-0.484,88.98,102.5,40.527969,-3.423844,621.5,4,5,331.5,5.273
89.84,1,-0.039,-0.053,0.009,-0.029,-0.071,0.017,-1.568,-0.03,-0.483,88.98,102.5,40.527969,-3.423844,621.5,4,5,331.5,5.273
89.95,1,-0.002,-0.019,0.024,-0.01,-0.039,0.02,-1.569,-0.027,-0.482,88.98,102.5,40.527969,-3.423844,621.5,4,5,331.5,5.273
90.04,1,0.026,-0.041,0.024,-0.002,-0.039,0.019,-1.571,-0.027,-0.481,88.98,102.5,40.527969,-3.423844,621.5,4,5,331.5,5.273
90.15,1,-0.003,-0.057,0.009,0.009,-0.045,0.022,-1.572,-0.026,-0.48,88.98,102.5,40.527969,-3.423844,621.5,4,5,331.5,5.273
90.24,1,-0.065,0.005,0.009,-0.022,-0.028,0.012,-1.574,-0.028,-0.48,88.98,102.5,40.527969,-3.423844,621.5,4,5,331.5,5.273
90.34,1,-0.046,0.015,-0.007,-0.034,-0.006,0.001,-1.575,-0.031,-0.48,88.98,102.5,40.527969,-3.423844,621.5,4,5,331.5,5.273
90.44,1,-0.094,-0.004,0.005,-0.073,-0.001,0.002,-1.579,-0.033,-0.481,90.0,104.2,40.528214,-3.423996,621.2,4,5,332.6,3.164
90.55,1,-0.019,-0.011,0.003,-0.059,-0.003,0.002,-1.58,-0.033,-0.481,90.0,104.2,40.528214,-3.423996,621.2,4,5,332.6,3.164
90.65,1,0.004,0.013,-0.004,-0.016,0.004,0.004,-1.579,-0.035,-0.481,90.0,104.2,40.528214,-3.423996,621.2,4,5,332.6,3.164
90.74,1,0.004,-0.03,0.007,-0.01,-0.008,0.002,-1.578,-0.035,-0.48,90.0,104.2,40.528214,-3.423996,621.2,4,5,332.6,3.164
90.84,1,0.012,-0.031,0.012,-0.002,-0.025,0.003,-1.575,-0.034,-0.479,90.0,104.2,40.528214,-3.423996,621.2,4,5,332.6,3.164
90.94,1,-0.04,-0.018,-0.023,-0.002,-0.02,-0.002,-1.576,-0.036,-0.478,90.0,104.2,40.528214,-3.423996,621.2,4,5,332.6,3.164
91.14,1,-0.011,-0.025,0.006,-0.02,-0.025,-0.01,-1.575,-0.037,-0.476,90.0,104.2,40.528214,-3.423996,621.2,4,5,332.6,3.164
91.24,1,-0.022,-0.012,0.016,-0.031,-0.023,-0.004,-1.574,-0.035,-0.475,90.0,104.2,40.528214,-3.423996,621.2,4,5,332.6,3.164
91.35,1,-0.032,-0.036,-0.004,-0.019,-0.022,0.009,-1.575,-0.031,-0.473,90.0,104.2,40.528214,-3.423996,621.2,4,5,332.6,3.164
91.44,1,-0.006,-0.04,-0.008,-0.001,-0.038,0.003,-1.574,-0.029,-0.471,90.0,104.2,40.528214,-3.423996,621.2,4,5,332.6,3.164
91.54,1,-0.035,-0.039,-0.007,-0.04,-0.029,-0.011,-1.576,-0.03,-0.469,91.0,106.5,40.528458,-3.424153,620.7,4,5,332.9,1.406
91.64,1,-0.031,-0.038,-0.019,-0.032,-0.038,-0.018,-1.577,-0.03,-0.468,91.0,106.5,40.528458,-3.424153,620.7,4,5,332.9,1.406
91.74,1,-0.022,-0.035,-0.014,-0.014,-0.041,-0.01,-1.578,-0.032,-0.466,91.0,106.5,40.528458,-3.424153,620.7,4,5,332.9,1.406
91.85,1,0.04,-0.053,0.016,0.0,-0.043,0.0,-1.578,-0.03,-0.464,91.0,106.5,40.528458,-3.424153,620.7,4,5,332.9,1.406
91.95,1,0.005,-0.051,-0.009,0.002,-0.049,0.002,-1.577,-0.029,-0.461,91.0,106.5,40.528458,-3.424153,620.7,4,5,332.9,1.406
92.05,1,-0.003,-0.057,-0.003,-0.003,-0.042,-0.011,-1.579,-0.027,-0.458,91.0,106.5,40.528458,-3.424153,620.7,4,5,332.9,1.406
92.15,1,-0.012,-0.091,0.003,0.009,-0.074,0.001,-1.575,-0.022,-0.455,91.0,106.5,40.528458,-3.424153,620.7,4,5,332.9,1.406
92.24,1,-0.013,-0.031,0.013,-0.005,-0.064,0.005,-1.573,-0.018,-0.452,91.0,106.5,40.528458,-3.424153,620.7,4,5,332.9,1.406
92.34,1,-0.017,-0.034,-0.006,-0.033,-0.037,0.005,-1.573,-0.017,-0.448,91.0,106.5,40.528458,-3.424153,620.7,4,5,332.9,1.406
92.44,1,0.006,-0.068,0.017,0.016,-0.059,0.006,-1.574,-0.017,-0.445,91.0,106.5,40.528458,-3.424153,620.7,4,5,332.9,1.406
92.55,1,-0.148,-0.073,-0.004,-0.06,-0.057,0.008,-1.575,-0.016,-0.442,92.08,107.7,40.528706,-3.424314,620.9,4,5,333.6,1.055
92.64,1,-0.041,-0.04,0.036,-0.087,-0.059,0.011,-1.578,-0.015,-0.44,92.08,107.7,40.528706,-3.424314,620.9,4,5,333.6,1.055
92.75,1,-0.001,-0.019,0.017,-0.032,-0.036,0.023,-1.576,-0.014,-0.436,92.08,107.7,40.528706,-3.424314,620.9,4,5,333.6,1.055
92.84,1,0.02,-0.049,-0.003,-0.004,-0.039,0.013,-1.572,-0.01,-0.433,92.08,107.7,40.528706,-3.424314,620.9,4,5,333.6,1.055
92.94,1,0.035,-0.042,0.001,0.019,-0.043,0.005,-1.57,-0.008,-0.429,92.08,107.7,40.528706,-3.424314,620.9,4,5,333.6,1.055
93.05,1,-0.007,-0.055,0.007,0.012,-0.045,0.005,-1.572,-0.004,-0.426,92.08,107.7,40.528706,-3.424314,620.9,4,5,333.6,1.055
93.14,1,-0.02,-0.053,-0.007,-0.008,-0.051,0.0,-1.577,-0.003,-0.423,92.08,107.7,40.528706,-3.424314,620.9,4,5,333.6,1.055
93.25,1,-0.015,-0.014,-0.001,-0.015,-0.036,-0.006,-1.577,-0.006,-0.42,92.08,107.7,40.528706,-3.424314,620.9,4,5,333.6,1.055
93.35,1,0.003,-0.022,-0.03,-0.002,-0.027,-0.007,-1.576,-0.003,-0.417,92.08,107.7,40.528706,-3.424314,620.9,4,5,333.6,1.055
93.44,1,0.067,-0.025,-0.045,0.03,-0.026,-0.029,-1.573,-0.001,-0.414,92.08,107.7,40.528706,-3.424314,620.9,4,5,333.6,1.055
93.55,1,-0.042,-0.017,-0.076,0.002,-0.022,-0.054,-1.569,0.002,-0.41,93.02,109.5,40.528946,-3.424472,620.8,4,5,333.3,0.352
93.64,1,-0.034,-0.06,-0.069,-0.028,-0.035,-0.064,-1.563,0.0,-0.406,93.02,109.5,40.528946,-3.424472,620.8,4,5,333.3,0.352
93.75,1,-0.029,-0.037,-0.087,-0.021,-0.037,-0.074,-1.557,0.002,-0.402,93.02,109.5,40.528946,-3.424472,620.8,4,5,333.3,0.352
93.85,1,-0.123,-0.072,-0.103,-0.053,-0.048,-0.084,-1.554,0.001,-0.398,93.02,109.5,40.528946,-3.424472,620.8,4,5,333.3,0.352
93.95,1,-0.142,-0.041,-0.088,-0.12,-0.07,-0.099,-1.555,0.002,-0.394,93.02,109.5,40.528946,-3.424472,620.8,4,5,333.3,0.352
94.05,1,0.058,0.06,-0.025,-0.059,0.004,-0.07,-1.557,-0.004,-0.39,93.02,109.5,40.528946,-3.424472,620.8,4,5,333.3,0.352
94.15,1,0.16,-0.038,-0.057,0.055,-0.004,-0.041,-1.552,-0.003,-0.387,93.02,109.5,40.528946,-3.424472,620.8,4,5,333.3,0.352
94.25,1,0.08,-0.034,-0.12,0.101,-0.024,-0.083,-1.54,-0.004,-0.383,93.02,109.5,40.528946,-3.424472,620.8,4,5,333.3,0.352
94.35,1,-0.053,0.003,-0.075,0.038,-0.013,-0.086,-1.529,-0.007,-0.38,93.02,109.5,40.528946,-3.424472,620.8,4,5,333.3,0.352
94.45,1,-0.11,-0.014,-0.059,-0.051,-0.008,-0.074,-1.525,-0.009,-0.376,93.02,109.5,40.528946,-3.424472,620.8,4,5,333.3,0.352
94.55,1,0.012,-0.027,-0.023,-0.046,-0.017,-0.055,-1.523,-0.003,-0.372,94.0,113.6,40.52919,-3.424638,620.8,4,5,332.9,0.703
94.65,1,0.039,-0.05,-0.037,0.007,-0.039,-0.04,-1.519,-0.0,-0.367,94.0,113.6,40.52919,-3.424638,620.8,4,5,332.9,0.703
94.75,1,0.107,-0.034,-0.042,0.05,-0.036,-0.041,-1.516,0.002,-0.363,94.0,113.6,40.52919,-3.424638,620.8,4,5,332.9,0.703
94.85,1,0.024,-0.042,-0.041,0.067,-0.035,-0.036,-1.513,0.006,-0.358,94.0,113.6,40.52919,-3.424638,620.8,4,5,332.9,0.703
94.97,1,0.066,-0.011,-0.031,0.062,-0.032,-0.031,-1.51,0.008,-0.353,94.0,113.6,40.52919,-3.424638,620.8,4,5,332.9,0.703
95.05,1,-0.135,-0.038,-0.05,-0.023,-0.023,-0.048,-1.506,0.016,-0.349,94.0,113.6,40.52919,-3.424638,620.8,4,5,332.9,0.703
95.16,1,-0.343,0.02,-0.098,-0.178,-0.031,-0.065,-1.512,0.017,-0.344,94.0,113.6,40.52919,-3.424638,620.8,4,5,332.9,0.703
95.25,1,-0.178,-0.004,0.021,-0.232,0.011,-0.053,-1.522,0.018,-0.34,94.0,113.6,40.52919,-3.424638,620.8,4,5,332.9,0.703
95.35,1,0.163,-0.012,0.033,-0.063,-0.004,0.016,-1.521,0.019,-0.336,94.0,113.6,40.52919,-3.424638,620.8,4,5,332.9,0.703
95.45,1,0.213,0.029,-0.027,0.117,0.004,0.006,-1.512,0.018,-0.332,94.0,113.6,40.52919,-3.424638,620.8,4,5,332.9,0.703
95.55,1,0.143,0.025,-0.044,0.156,0.02,-0.032,-1.505,0.015,-0.329,95.0,109.3,40.529434,-3.42481,620.3,4,5,331.5,1.758
95.65,1,0.047,0.019,-0.039,0.111,0.02,-0.029,-1.499,0.012,-0.327,95.0,109.3,40.529434,-3.42481,620.3,4,5,331.5,1.758
95.75,1,-0.089,0.039,-0.041,0.008,0.028,-0.041,-1.496,0.007,-0.324,95.0,109.3,40.529434,-3.42481,620.3,4,5,331.5,1.758
95.86,1,-0.114,0.049,-0.019,-0.071,0.047,-0.033,-1.497,0.006,-0.321,95.0,109.3,40.529434,-3.42481,620.3,4,5,331.5,1.758
95.95,1,-0.048,-0.035,0.003,-0.071,0.008,-0.012,-1.502,0.01,-0.317,95.0,109.3,40.529434,-3.42481,620.3,4,5,331.5,1.758
96.05,1,-0.001,-0.012,-0.037,-0.033,-0.011,-0.025,-1.503,0.016,-0.313,95.0,109.3,40.529434,-3.42481,620.3,4,5,331.5,1.758
96.16,1,-0.05,-0.005,-0.054,-0.035,-0.007,-0.037,-1.503,0.017,-0.309,95.0,109.3,40.529434,-3.42481,620.3,4,5,331.5,1.758
96.25,1,-0.003,0.012,-0.034,-0.018,0.001,-0.043,-1.505,0.019,-0.306,95.0,109.3,40.529434,-3.42481,620.3,4,5,331.5,1.758
96.35,1,-0.127,-0.01,-0.055,-0.06,0.004,-0.043,-1.507,0.024,-0.301,95.0,109.3,40.529434,-3.42481,620.3,4,5,331.5,1.758
96.45,1,-0.095,-0.045,-0.029,-0.097,-0.023,-0.041,-1.509,0.028,-0.296,95.0,109.3,40.529434,-3.42481,620.3,4,5,331.5,1.758
96.55,1,-0.033,-0.006,-0.032,-0.071,-0.027,-0.032,-1.509,0.029,-0.292,95.99,108.0,40.529678,-3.424991,619.4,4,5,330.5,2.461
96.65,1,0.012,-0.014,-0.011,-0.035,-0.011,-0.024,-1.507,0.028,-0.288,95.99,108.0,40.529678,-3.424991,619.4,4,5,330.5,2.461
96.75,1,0.029,-0.012,-0.03,0.01,-0.012,-0.024,-1.503,0.027,-0.284,95.99,108.0,40.529678,-3.424991,619.4,4,5,330.5,2.461
96.87,1,0.053,0.026,-0.012,0.026,0.002,-0.024,-1.499,0.025,-0.28,95.99,108.0,40.529678,-3.424991,619.4,4,5,330.5,2.461
96.95,1,0.032,-0.011,-0.047,0.034,0.006,-0.022,-1.496,0.027,-0.276,95.99,108.0,40.529678,-3.424991,619.4,4,5,330.5,2.461
97.06,1,-0.031,-0.012,-0.003,0.017,-0.008,-0.026,-1.499,0.035,-0.27,95.99,108.0,40.529678,-3.424991,619.4,4,5,330.5,2.461
97.15,1,-0.025,-0.072,0.023,-0.02,-0.036,0.001,-1.5,0.037,-0.264,95.99,108.0,40.529678,-3.424991,619.4,4,5,330.5,2.461
97.25,1,-0.024,-0.03,-0.035,-0.017,-0.046,-0.009,-1.496,0.038,-0.26,95.99,108.0,40.529678,-3.424991,619.4,4,5,330.5,2.461
97.35,1,0.048,0.009,-0.031,0.014,-0.018,-0.025,-1.493,0.038,-0.256,95.99,108.0,40.529678,-3.424991,619.4,4,5,330.5,2.461
97.45,1,-0.097,-0.013,-0.014,-0.038,-0.005,-0.026,-1.491,0.04,-0.252,95.99,108.0,40.529678,-3.424991,619.4,4,5,330.5,2.461
97.56,1,-0.172,-0.042,-0.039,-0.071,-0.028,-0.016,-1.494,0.039,-0.247,97.01,105.7,40.529922,-3.425171,618.9,4,5,329.1,2.461
97.66,1,-0.001,-0.018,0.043,-0.078,-0.031,-0.016,-1.497,0.038,-0.243,97.01,105.7,40.529922,-3.425171,618.9,4,5,329.1,2.461
97.76,1,-0.093,-0.022,0.069,-0.068,-0.017,0.034,-1.504,0.036,-0.238,97.01,105.7,40.529922,-3.425171,618.9,4,5,329.1,2.461
97.87,1,0.009,0.024,0.123,-0.075,-0.003,0.08,-1.506,0.033,-0.234,97.01,105.7,40.529922,-3.425171,618.9,4,5,329.1,2.461
97.95,1,0.05,0.023,0.065,0.02,0.019,0.087,-1.505,0.033,-0.23,97.01,105.7,40.529922,-3.425171,618.9,4,5,329.1,2.461
98.05,1,-0.005,0.003,0.103,0.008,0.007,0.091,-1.511,0.031,-0.226,97.01,105.7,40.529922,-3.425171,618.9,4,5,329.1,2.461
98.15,1,0.078,0.024,0.068,0.041,0.01,0.087,-1.515,0.022,-0.223,97.01,105.7,40.529922,-3.425171,618.9,4,5,329.1,2.461
98.27,1,0.034,0.011,0.076,0.044,0.019,0.074,-1.519,0.017,-0.218,97.01,105.7,40.529922,-3.425171,618.9,4,5,329.1,2.461
98.36,1,-0.099,-0.022,0.058,-0.021,0.004,0.064,-1.52,0.017,-0.214,97.01,105.7,40.529922,-3.425171,618.9,4,5,329.1,2.461
98.46,1,-0.001,-0.011,0.07,-0.028,-0.018,0.069,-1.525,0.021,-0.209,97.01,105.7,40.529922,-3.425171,618.9,4,5,329.1,2.461
98.56,1,-0.058,0.009,0.065,-0.032,0.006,0.067,-1.528,0.021,-0.205,97.98,104.9,40.530144,-3.425357,617.9,4,5,327.7,2.812
98.66,1,-0.116,-0.044,0.024,-0.067,-0.02,0.049,-1.53,0.027,-0.2,97.98,104.9,40.530144,-3.425357,617.9,4,5,327.7,2.812
98.77,1,-0.048,-0.04,0.06,-0.073,-0.03,0.048,-1.536,0.031,-0.194,97.98,104.9,40.530144,-3.425357,617.9,4,5,327.7,2.812
98.86,1,-0.01,-0.06,0.081,-0.056,-0.043,0.063,-1.541,0.035,-0.187,97.98,104.9,40.530144,-3.425357,617.9,4,5,327.7,2.812
98.97,1,0.101,-0.049,0.066,0.03,-0.052,0.072,-1.54,0.037,-0.181,97.98,104.9,40.530144,-3.425357,617.9,4,5,327.7,2.812
99.07,1,0.038,-0.036,0.033,0.056,-0.049,0.053,-1.539,0.04,-0.175,97.98,104.9,40.530144,-3.425357,617.9,4,5,327.7,2.812
99.16,1,0.083,-0.023,0.057,0.049,-0.033,0.048,-1.541,0.039,-0.169,97.98,104.9,40.530144,-3.425357,617.9,4,5,327.7,2.812
99.26,1,-0.008,-0.018,0.031,0.043,-0.024,0.044,-1.545,0.039,-0.162,97.98,104.9,40.530144,-3.425357,617.9,4,5,327.7,2.812
99.36,1,-0.006,-0.064,0.027,0.002,-0.039,0.035,-1.547,0.043,-0.156,97.98,104.9,40.530144,-3.425357,617.9,4,5,327.7,2.812
99.47,1,-0.13,-0.051,0.001,-0.05,-0.053,0.019,-1.552,0.045,-0.149,97.98,104.9,40.530144,-3.425357,617.9,4,5,327.7,2.812
99.56,1,-0.073,-0.038,0.029,-0.082,-0.039,0.007,-1.556,0.043,-0.144,98.99,107.7,40.530369,-3.425547,617.8,4,5,326.6,2.461
99.66,1,-0.005,-0.015,0.027,-0.047,-0.033,0.037,-1.56,0.042,-0.138,98.99,107.7,40.530369,-3.425547,617.8,4,5,326.6,2.461
99.76,1,0.04,-0.022,0.003,-0.003,-0.027,0.013,-1.557,0.043,-0.132,98.99,107.7,40.530369,-3.425547,617.8,4,5,326.6,2.461
99.86,1,0.048,-0.013,0.023,0.035,-0.024,0.016,-1.557,0.048,-0.127,98.99,107.7,40.530369,-3.425547,617.8,4,5,326.6,2.461
99.96,1,-0.003,-0.005,0.004,0.032,-0.012,0.016,-1.557,0.053,-0.121,98.99,107.7,40.530369,-3.425547,617.8,4,5,326.6,2.461
100.06,1,-0.033,-0.012,-0.002,-0.011,-0.006,0.008,-1.56,0.059,-0.115,98.99,107.7,40.530369,-3.425547,617.8,4,5,326.6,2.461
100.16,1,-0.085,0.004,0.023,-0.05,-0.004,0.005,-1.565,0.062,-0.11,98.99,107.7,40.530369,-3.425547,617.8,4,5,326.6,2.461
100.26,1,-0.012,-0.002,-0.004,-0.05,-0.003,0.004,-1.567,0.063,-0.105,98.99,107.7,40.530369,-3.425547,617.8,4,5,326.6,2.461
100.36,1,0.055,0.001,0.059,0.029,-0.005,0.034,-1.569,0.06,-0.1,98.99,107.7,40.530369,-3.425547,617.8,4,5,326.6,2.461
100.46,1,-0.151,0.062,-0.003,-0.047,0.033,0.015,-1.568,0.058,-0.095,98.99,107.7,40.530369,-3.425547,617.8,4,5,326.6,2.461
100.56,1,0.128,0.012,0.044,0.01,0.025,0.027,-1.567,0.058,-0.091,99.98,107.7,40.53059,-3.425748,617.2,4,5,324.1,3.516
100.66,1,0.012,0.031,-0.031,0.015,0.031,0.006,-1.564,0.058,-0.087,99.98,107.7,40.53059,-3.425748,617.2,4,5,324.1,3.516
100.76,1,-0.067,0.042,-0.02,-0.017,0.031,-0.013,-1.567,0.057,-0.082,99.98,107.7,40.53059,-3.425748,617.2,4,5,324.1,3.516
100.87,1,-0.071,-0.006,0.025,-0.034,0.02,0.005,-1.572,0.053,-0.077,99.98,107.7,40.53059,-3.425748,617.2,4,5,324.1,3.516
100.97,1,-0.032,0.008,0.012,-0.066,0.009,0.005,-1.571,0.052,-0.072,99.98,107.7,40.53059,-3.425748,617.2,4,5,324.1,3.516
101.06,1,0.081,-0.006,0.041,0.004,-0.001,0.025,-1.569,0.051,-0.067,99.98,107.7,40.53059,-3.425748,617.2,4,5,324.1,3.516
101.17,1,0.008,0.03,0.012,0.023,0.009,0.02,-1.572,0.052,-0.063,99.98,107.7,40.53059,-3.425748,617.2,4,5,324.1,3.516
101.26,1,-0.012,0.01,-0.041,0.003,0.018,-0.008,-1.573,0.053,-0.059,99.98,107.7,40.53059,-3.425748,617.2,4,5,324.1,3.516
101.36,1,-0.026,0.017,0.018,0.002,0.021,0.003,-1.571,0.05,-0.055,99.98,107.7,40.53059,-3.425748,617.2,4,5,324.1,3.516
101.46,1,-0.002,0.018,-0.006,-0.009,0.015,-0.002,-1.574,0.044,-0.05,99.98,107.7,40.53059,-3.425748,617.2,4,5,324.1,3.516
101.56,1,-0.051,0.036,0.012,-0.032,0.022,-0.0,-1.573,0.041,-0.046,100.99,109.3,40.530807,-3.425956,616.8,4,5,321.7,4.922
101.66,1,0.013,0.022,0.027,-0.023,0.028,0.013,-1.573,0.04,-0.042,100.99,109.3,40.530807,-3.425956,616.8,4,5,321.7,4.922
101.76,1,-0.079,0.004,-0.014,-0.035,0.014,0.006,-1.573,0.037,-0.038,100.99,109.3,40.530807,-3.425956,616.8,4,5,321.7,4.922
101.86,1,-0.012,-0.031,0.002,-0.021,0.0,0.007,-1.572,0.038,-0.034,100.99,109.3,40.530807,-3.425956,616.8,4,5,321.7,4.922
101.96,1,-0.065,-0.031,-0.027,-0.036,-0.018,-0.012,-1.573,0.04,-0.029,100.99,109.3,40.530807,-3.425956,616.8,4,5,321.7,4.922
102.07,1,-0.037,-0.0,-0.042,-0.048,-0.017,-0.025,-1.574,0.036,-0.025,100.99,109.3,40.530807,-3.425956,616.8,4,5,321.7,4.922
102.17,1,-0.056,0.001,-0.028,-0.046,-0.005,-0.027,-1.575,0.034,-0.02,100.99,109.3,40.530807,-3.425956,616.8,4,5,321.7,4.922
102.26,1,-0.036,-0.015,-0.049,-0.049,-0.013,-0.041,-1.571,0.031,-0.017,100.99,109.3,40.530807,-3.425956,616.8,4,5,321.7,4.922
102.37,1,-0.065,-0.003,-0.089,-0.07,-0.007,-0.066,-1.566,0.029,-0.013,100.99,109.3,40.530807,-3.425956,616.8,4,5,321.7,4.922
102.47,1,-0.005,-0.008,-0.051,-0.023,-0.006,-0.063,-1.561,0.032,-0.009,100.99,109.3,40.530807,-3.425956,616.8,4,5,321.7,4.922
102.57,1,-0.043,-0.036,-0.07,-0.034,-0.022,-0.06,-1.556,0.033,-0.004,101.98,110.8,40.53101,-3.426181,616.6,4,5,319.9,4.219
102.67,1,-0.056,-0.032,-0.073,-0.041,-0.025,-0.067,-1.552,0.039,0.0,101.98,110.8,40.53101,-3.426181,616.6,4,5,319.9,4.219
102.78,1,-0.078,0.019,-0.105,-0.054,-0.013,-0.088,-1.546,0.044,0.004,101.98,110.8,40.53101,-3.426181,616.6,4,5,319.9,4.219
102.87,1,-0.073,-0.015,-0.086,-0.079,-0.006,-0.091,-1.543,0.043,0.008,101.98,110.8,40.53101,-3.426181,616.6,4,5,319.9,4.219
102.97,1,-0.109,0.025,-0.081,-0.078,0.003,-0.081,-1.543,0.038,0.012,101.98,110.8,40.53101,-3.426181,616.6,4,5,319.9,4.219
103.07,1,-0.051,-0.0,-0.032,-0.072,0.011,-0.055,-1.544,0.04,0.015,101.98,110.8,40.53101,-3.426181,616.6,4,5,319.9,4.219
103.17,1,0.055,-0.006,-0.036,-0.028,0.004,-0.054,-1.543,0.043,0.019,101.98,110.8,40.53101,-3.426181,616.6,4,5,319.9,4.219
103.27,1,-0.034,0.0,-0.083,0.0,0.0,-0.058,-1.536,0.044,0.024,101.98,110.8,40.53101,-3.426181,616.6,4,5,319.9,4.219
103.37,1,-0.047,0.015,-0.048,-0.029,0.007,-0.059,-1.528,0.044,0.027,101.98,110.8,40.53101,-3.426181,616.6,4,5,319.9,4.219
103.47,1,-0.021,-0.004,-0.055,-0.026,0.001,-0.054,-1.524,0.045,0.031,101.98,110.8,40.53101,-3.426181,616.6,4,5,319.9,4.219
103.57,1,-0.019,-0.011,-0.03,-0.035,-0.004,-0.049,-1.523,0.044,0.034,102.99,111.7,40.531216,-3.426424,616.2,4,5,318.2,3.516
103.67,1,-0.014,-0.003,-0.041,-0.014,-0.01,-0.039,-1.521,0.04,0.038,102.99,111.7,40.531216,-3.426424,616.2,4,5,318.2,3.516
103.77,1,0.017,-0.009,-0.036,-0.011,-0.004,-0.037,-1.518,0.041,0.041,102.99,111.7,40.531216,-3.426424,616.2,4,5,318.2,3.516
103.87,1,-0.075,0.009,-0.065,-0.018,0.002,-0.051,-1.518,0.041,0.045,102.99,111.7,40.531216,-3.426424,616.2,4,5,318.2,3.516
103.99,1,-0.144,0.008,-0.1,-0.086,0.0,-0.071,-1.519,0.041,0.049,102.99,111.7,40.531216,-3.426424,616.2,4,5,318.2,3.516
104.08,1,-0.177,0.081,-0.071,-0.143,0.036,-0.089,-1.526,0.042,0.052,102.99,111.7,40.531216,-3.426424,616.2,4,5,318.2,3.516
104.17,1,-0.094,-0.005,0.033,-0.151,0.036,-0.025,-1.534,0.048,0.056,102.99,111.7,40.531216,-3.426424,616.2,4,5,318.2,3.516
104.27,1,0.172,-0.045,-0.034,0.017,-0.013,-0.013,-1.532,0.049,0.06,102.99,111.7,40.531216,-3.426424,616.2,4,5,318.2,3.516
104.37,1,0.068,0.013,-0.068,0.08,-0.008,-0.045,-1.525,0.047,0.064,102.99,111.7,40.531216,-3.426424,616.2,4,5,318.2,3.516
104.47,1,0.009,0.035,-0.05,0.034,0.016,-0.054,-1.521,0.045,0.066,102.99,111.7,40.531216,-3.426424,616.2,4,5,318.2,3.516
104.57,1,-0.066,0.024,-0.047,-0.004,0.02,-0.042,-1.518,0.044,0.069,103.98,111.2,40.531414,-3.426673,615.5,4,5,317.1,2.812
104.67,1,-0.082,0.035,-0.033,-0.045,0.027,-0.044,-1.516,0.041,0.071,103.98,111.2,40.531414,-3.426673,615.5,4,5,317.1,2.812
104.77,1,-0.01,0.029,-0.026,-0.05,0.036,-0.034,-1.517,0.037,0.074,103.98,111.2,40.531414,-3.426673,615.5,4,5,317.1,2.812
104.87,1,-0.04,0.024,-0.017,-0.031,0.027,-0.021,-1.512,0.033,0.077,103.98,111.2,40.531414,-3.426673,615.5,4,5,317.1,2.812
104.97,1,-0.015,0.026,-0.029,-0.023,0.019,-0.028,-1.509,0.032,0.08,103.98,111.2,40.531414,-3.426673,615.5,4,5,317.1,2.812
105.08,1,-0.009,0.032,-0.039,-0.02,0.033,-0.035,-1.509,0.031,0.082,103.98,111.2,40.531414,-3.426673,615.5,4,5,317.1,2.812
105.17,1,-0.077,-0.003,0.008,-0.029,0.023,-0.018,-1.511,0.034,0.085,103.98,111.2,40.531414,-3.426673,615.5,4,5,317.1,2.812
105.27,1,-0.047,0.021,-0.015,-0.058,0.012,-0.008,-1.513,0.033,0.088,103.98,111.2,40.531414,-3.426673,615.5,4,5,317.1,2.812
105.37,1,-0.06,-0.018,-0.007,-0.053,-0.002,-0.012,-1.514,0.033,0.092,103.98,111.2,40.531414,-3.426673,615.5,4,5,317.1,2.812
105.47,1,-0.034,-0.019,-0.018,-0.055,-0.01,-0.012,-1.518,0.033,0.096,103.98,111.2,40.531414,-3.426673,615.5,4,5,317.1,2.812
105.57,1,-0.012,0.019,-0.03,-0.021,-0.001,-0.017,-1.518,0.033,0.099,104.98,107.2,40.531605,-3.426919,615.0,4,5,313.9,4.219
105.67,1,-0.038,0.022,-0.017,-0.031,0.009,-0.024,-1.518,0.032,0.102,104.98,107.2,40.531605,-3.426919,615.0,4,5,313.9,4.219
105.77,1,-0.01,-0.014,0.011,-0.031,0.011,-0.01,-1.52,0.033,0.105,104.98,107.2,40.531605,-3.426919,615.0,4,5,313.9,4.219
105.87,1,-0.003,-0.01,-0.039,-0.006,-0.01,-0.009,-1.518,0.036,0.108,104.98,107.2,40.531605,-3.426919,615.0,4,5,313.9,4.219
105.97,1,-0.099,0.048,-0.031,-0.056,0.02,-0.032,-1.517,0.034,0.111,104.98,107.2,40.531605,-3.426919,615.0,4,5,313.9,4.219
106.07,1,-0.121,0.002,0.005,-0.084,0.016,-0.017,-1.519,0.034,0.114,104.98,107.2,40.531605,-3.426919,615.0,4,5,313.9,4.219
106.17,1,-0.125,0.012,0.041,-0.11,0.009,0.015,-1.524,0.034,0.117,104.98,107.2,40.531605,-3.426919,615.0,4,5,313.9,4.219
106.27,1,-0.017,0.004,0.069,-0.078,0.009,0.041,-1.533,0.031,0.12,104.98,107.2,40.531605,-3.426919,615.0,4,5,313.9,4.219
106.37,1,-0.039,0.039,0.013,-0.045,0.019,0.036,-1.537,0.03,0.122,104.98,107.2,40.531605,-3.426919,615.0,4,5,313.9,4.219
106.47,1,0.005,-0.007,0.033,-0.015,0.012,0.029,-1.54,0.031,0.125,104.98,107.2,40.531605,-3.426919,615.0,4,5,313.9,4.219
106.58,1,-0.052,0.015,0.031,-0.044,0.013,0.03,-1.543,0.028,0.128,105.98,105.6,40.531792,-3.427171,614.9,4,5,312.5,4.57
106.68,1,-0.006,0.004,0.042,-0.016,0.007,0.038,-1.547,0.029,0.131,105.98,105.6,40.531792,-3.427171,614.9,4,5,312.5,4.57
106.78,1,-0.051,0.003,0.03,-0.039,0.004,0.033,-1.552,0.033,0.135,105.98,105.6,40.531792,-3.427171,614.9,4,5,312.5,4.57
106.88,1,-0.03,-0.012,0.044,-0.024,-0.007,0.041,-1.557,0.035,0.138,105.98,105.6,40.531792,-3.427171,614.9,4,5,312.5,4.57
106.98,1,-0.018,-0.023,0.016,-0.029,-0.01,0.033,-1.56,0.034,0.141,105.98,105.6,40.531792,-3.427171,614.9,4,5,312.5,4.57
107.08,1,-0.05,0.02,0.029,-0.036,0.002,0.024,-1.562,0.033,0.143,105.98,105.6,40.531792,-3.427171,614.9,4,5,312.5,4.57
107.18,1,-0.015,0.025,0.04,-0.021,0.01,0.035,-1.568,0.035,0.146,105.98,105.6,40.531792,-3.427171,614.9,4,5,312.5,4.57
107.28,1,-0.047,-0.012,0.042,-0.052,0.01,0.034,-1.571,0.035,0.148,105.98,105.6,40.531792,-3.427171,614.9,4,5,312.5,4.57
107.38,1,-0.084,0.049,0.018,-0.041,0.015,0.033,-1.572,0.032,0.151,105.98,105.6,40.531792,-3.427171,614.9,4,5,312.5,4.57
107.48,1,-0.02,-0.009,0.032,-0.053,0.013,0.024,-1.574,0.034,0.153,105.98,105.6,40.531792,-3.427171,614.9,4,5,312.5,4.57
107.58,1,-0.005,0.04,0.033,-0.027,0.023,0.037,-1.58,0.032,0.155,107.04,103.7,40.531963,-3.427423,615.1,4,5,310.4,3.516
107.69,1,-0.031,0.02,-0.006,-0.023,0.02,0.013,-1.581,0.033,0.158,107.04,103.7,40.531963,-3.427423,615.1,4,5,310.4,3.516
107.78,1,0.066,-0.022,0.024,0.008,0.01,0.012,-1.583,0.036,0.161,107.04,103.7,40.531963,-3.427423,615.1,4,5,310.4,3.516
107.88,1,-0.106,-0.03,0.01,-0.01,-0.017,0.016,-1.583,0.037,0.165,107.04,103.7,40.531963,-3.427423,615.1,4,5,310.4,3.516
107.98,1,0.054,-0.022,0.014,-0.012,-0.024,0.015,-1.585,0.036,0.168,107.04,103.7,40.531963,-3.427423,615.1,4,5,310.4,3.516
108.08,1,-0.058,-0.02,-0.021,-0.02,-0.021,-0.0,-1.586,0.034,0.17,107.04,103.7,40.531963,-3.427423,615.1,4,5,310.4,3.516
108.18,1,-0.087,0.011,-0.027,-0.068,-0.008,-0.019,-1.587,0.034,0.172,107.04,103.7,40.531963,-3.427423,615.1,4,5,310.4,3.516
108.29,1,-0.025,0.016,0.022,-0.055,0.009,-0.003,-1.589,0.033,0.175,107.04,103.7,40.531963,-3.427423,615.1,4,5,310.4,3.516
108.38,1,-0.024,0.029,0.012,-0.022,0.02,0.012,-1.592,0.034,0.177,107.04,103.7,40.531963,-3.427423,615.1,4,5,310.4,3.516
108.48,1,-0.037,-0.003,-0.015,-0.027,0.002,-0.0,-1.592,0.034,0.179,107.04,103.7,40.531963,-3.427423,615.1,4,5,310.4,3.516
108.58,1,0.002,0.007,0.007,-0.023,0.013,-0.003,-1.592,0.033,0.181,108.01,104.9,40.53212,-3.42768,615.5,4,5,309.4,3.164
108.68,1,-0.053,0.026,0.002,-0.03,0.016,0.004,-1.591,0.032,0.183,108.01,104.9,40.53212,-3.42768,615.5,4,5,309.4,3.164
108.79,1,0.0,0.001,-0.01,-0.009,0.007,-0.002,-1.592,0.027,0.186,108.01,104.9,40.53212,-3.42768,615.5,4,5,309.4,3.164
108.88,1,-0.04,0.006,0.004,-0.029,0.009,-0.007,-1.591,0.029,0.189,108.01,104.9,40.53212,-3.42768,615.5,4,5,309.4,3.164
108.98,1,-0.002,-0.014,0.004,-0.019,-0.002,0.006,-1.592,0.028,0.192,108.01,104.9,40.53212,-3.42768,615.5,4,5,309.4,3.164
109.08,1,-0.04,-0.02,0.0,-0.024,-0.01,0.003,-1.593,0.029,0.195,108.01,104.9,40.53212,-3.42768,615.5,4,5,309.4,3.164
109.18,1,-0.029,0.028,-0.009,-0.033,0.002,-0.004,-1.594,0.027,0.197,108.01,104.9,40.53212,-3.42768,615.5,4,5,309.4,3.164
109.28,1,-0.032,0.015,-0.011,-0.023,0.01,-0.01,-1.596,0.024,0.199,108.01,104.9,40.53212,-3.42768,615.5,4,5,309.4,3.164
109.38,1,-0.079,-0.01,-0.009,-0.052,0.011,-0.005,-1.594,0.023,0.2,108.01,104.9,40.53212,-3.42768,615.5,4,5,309.4,3.164
109.49,1,-0.035,0.027,-0.028,-0.048,0.011,-0.018,-1.592,0.024,0.202,108.01,104.9,40.53212,-3.42768,615.5,4,5,309.4,3.164
109.58,1,-0.094,0.045,-0.023,-0.071,0.021,-0.021,-1.592,0.021,0.204,108.98,104.6,40.532284,-3.427953,616.0,4,5,307.3,3.164
109.68,1,-0.061,0.002,0.024,-0.076,0.026,-0.004,-1.593,0.02,0.206,108.98,104.6,40.532284,-3.427953,616.0,4,5,307.3,3.164
109.79,1,-0.01,-0.009,0.004,-0.032,0.001,0.009,-1.591,0.022,0.209,108.98,104.6,40.532284,-3.427953,616.0,4,5,307.3,3.164
109.89,1,-0.06,0.019,-0.027,-0.047,0.006,-0.012,-1.592,0.019,0.211,108.98,104.6,40.532284,-3.427953,616.0,4,5,307.3,3.164
109.98,1,-0.019,-0.038,0.015,-0.051,-0.012,-0.004,-1.594,0.02,0.213,108.98,104.6,40.532284,-3.427953,616.0,4,5,307.3,3.164
110.08,1,0.016,-0.026,-0.005,-0.001,-0.022,0.002,-1.594,0.02,0.216,108.98,104.6,40.532284,-3.427953,616.0,4,5,307.3,3.164
110.18,1,-0.054,0.003,0.007,-0.025,-0.002,0.003,-1.591,0.018,0.218,108.98,104.6,40.532284,-3.427953,616.0,4,5,307.3,3.164
110.28,1,-0.012,-0.027,-0.007,-0.021,-0.017,0.001,-1.592,0.019,0.221,108.98,104.6,40.532284,-3.427953,616.0,4,5,307.3,3.164
110.38,1,-0.06,-0.026,-0.005,-0.041,-0.019,-0.006,-1.597,0.017,0.223,108.98,104.6,40.532284,-3.427953,616.0,4,5,307.3,3.164
110.48,1,-0.077,-0.015,-0.013,-0.053,-0.024,-0.006,-1.598,0.015,0.226,108.98,104.6,40.532284,-3.427953,616.0,4,5,307.3,3.164
110.58,1,-0.032,0.006,-0.0,-0.043,-0.006,-0.006,-1.599,0.015,0.229,110.0,104.9,40.532452,-3.428228,616.8,4,5,305.9,3.516
110.69,1,-0.028,-0.021,-0.016,-0.048,-0.009,-0.011,-1.597,0.016,0.231,110.0,104.9,40.532452,-3.428228,616.8,4,5,305.9,3.516
110.78,1,-0.017,-0.008,-0.028,-0.024,-0.019,-0.015,-1.595,0.018,0.233,110.0,104.9,40.532452,-3.428228,616.8,4,5,305.9,3.516
110.89,1,-0.032,-0.009,-0.027,-0.028,-0.008,-0.023,-1.59,0.021,0.235,110.0,104.9,40.532452,-3.428228,616.8,4,5,305.9,3.516
110.99,1,-0.003,0.001,-0.008,-0.024,-0.007,-0.016,-1.586,0.023,0.237,110.0,104.9,40.532452,-3.428228,616.8,4,5,305.9,3.516
111.09,1,0.037,-0.018,-0.036,0.017,-0.011,-0.027,-1.583,0.025,0.239,110.0,104.9,40.532452,-3.428228,616.8,4,5,305.9,3.516
111.19,1,-0.043,0.009,-0.085,-0.018,0.003,-0.05,-1.578,0.025,0.242,110.0,104.9,40.532452,-3.428228,616.8,4,5,305.9,3.516
111.29,1,-0.032,-0.02,-0.038,-0.018,-0.005,-0.051,-1.577,0.029,0.245,110.0,104.9,40.532452,-3.428228,616.8,4,5,305.9,3.516
111.39,1,-0.033,-0.023,-0.042,-0.033,-0.017,-0.051,-1.576,0.032,0.248,110.0,104.9,40.532452,-3.428228,616.8,4,5,305.9,3.516
111.49,1,0.032,-0.004,-0.073,-0.006,-0.016,-0.052,-1.569,0.032,0.251,110.0,104.9,40.532452,-3.428228,616.8,4,5,305.9,3.516
111.59,1,-0.014,-0.004,-0.06,0.005,-0.009,-0.06,-1.564,0.032,0.253,111.03,104.1,40.532597,-3.42851,617.9,4,5,303.4,3.867
111.69,1,-0.016,0.01,-0.054,-0.011,0.003,-0.059,-1.559,0.035,0.255,111.03,104.1,40.532597,-3.42851,617.9,4,5,303.4,3.867
111.79,1,0.016,0.031,-0.048,0.009,0.008,-0.054,-1.552,0.036,0.257,111.03,104.1,40.532597,-3.42851,617.9,4,5,303.4,3.867
111.89,1,-0.027,-0.007,-0.058,-0.023,0.016,-0.053,-1.549,0.037,0.26,111.03,104.1,40.532597,-3.42851,617.9,4,5,303.4,3.867
111.99,1,-0.01,0.023,0.006,-0.005,0.007,-0.033,-1.544,0.035,0.261,111.03,104.1,40.532597,-3.42851,617.9,4,5,303.4,3.867
112.09,1,-0.017,0.051,0.003,-0.02,0.033,-0.02,-1.546,0.037,0.264,111.03,104.1,40.532597,-3.42851,617.9,4,5,303.4,3.867
112.2,1,-0.028,0.022,0.034,-0.019,0.028,0.019,-1.547,0.036,0.265,111.03,104.1,40.532597,-3.42851,617.9,4,5,303.4,3.867
112.29,1,0.053,0.005,0.032,0.001,0.022,0.024,-1.547,0.036,0.267,111.03,104.1,40.532597,-3.42851,617.9,4,5,303.4,3.867
112.39,1,-0.015,0.044,0.028,0.026,0.021,0.032,-1.551,0.033,0.268,111.03,104.1,40.532597,-3.42851,617.9,4,5,303.4,3.867
112.49,1,0.023,-0.005,0.036,-0.001,0.019,0.036,-1.551,0.031,0.27,111.03,104.1,40.532597,-3.42851,617.9,4,5,303.4,3.867
112.59,1,-0.039,0.038,0.067,-0.006,0.025,0.041,-1.554,0.031,0.271,111.99,102.9,40.53273,-3.428795,619.3,4,5,301.3,4.57
112.69,1,-0.046,-0.014,0.038,-0.039,0.018,0.048,-1.558,0.034,0.274,111.99,102.9,40.53273,-3.428795,619.3,4,5,301.3,4.57
112.8,1,-0.035,-0.017,0.012,-0.031,-0.015,0.033,-1.563,0.035,0.276,111.99,102.9,40.53273,-3.428795,619.3,4,5,301.3,4.57
112.9,1,-0.005,-0.034,0.053,-0.028,-0.023,0.035,-1.567,0.039,0.28,111.99,102.9,40.53273,-3.428795,619.3,4,5,301.3,4.57
112.99,1,0.037,-0.018,0.044,0.01,-0.022,0.042,-1.567,0.042,0.283,111.99,102.9,40.53273,-3.428795,619.3,4,5,301.3,4.57
113.09,1,-0.011,0.002,0.003,0.006,-0.01,0.027,-1.569,0.043,0.285,111.99,102.9,40.53273,-3.428795,619.3,4,5,301.3,4.57
113.19,1,-0.012,0.008,0.023,-0.009,-0.001,0.023,-1.572,0.041,0.287,111.99,102.9,40.53273,-3.428795,619.3,4,5,301.3,4.57
113.3,1,-0.027,0.028,0.013,-0.016,0.015,0.018,-1.574,0.04,0.289,111.99,102.9,40.53273,-3.428795,619.3,4,5,301.3,4.57
113.39,1,0.006,0.035,0.013,-0.014,0.024,0.01,-1.576,0.037,0.291,111.99,102.9,40.53273,-3.428795,619.3,4,5,301.3,4.57
113.49,1,-0.061,0.044,0.05,-0.016,0.033,0.032,-1.577,0.035,0.291,111.99,102.9,40.53273,-3.428795,619.3,4,5,301.3,4.57
113.59,1,-0.04,0.042,0.029,-0.046,0.042,0.032,-1.579,0.033,0.292,112.98,104.0,40.532852,-3.429085,620.2,4,5,298.1,5.273
113.69,1,-0.024,0.023,0.03,-0.032,0.034,0.033,-1.583,0.034,0.293,112.98,104.0,40.532852,-3.429085,620.2,4,5,298.1,5.273
113.79,1,-0.019,0.02,0.027,-0.029,0.028,0.03,-1.585,0.036,0.295,112.98,104.0,40.532852,-3.429085,620.2,4,5,298.1,5.273
113.89,1,-0.049,0.017,0.023,-0.025,0.025,0.023,-1.587,0.035,0.297,112.98,104.0,40.532852,-3.429085,620.2,4,5,298.1,5.273
114.0,1,0.005,0.018,-0.009,-0.021,0.012,0.011,-1.586,0.033,0.298,112.98,104.0,40.532852,-3.429085,620.2,4,5,298.1,5.273
114.1,1,-0.053,0.015,-0.01,-0.025,0.019,-0.001,-1.583,0.032,0.3,112.98,104.0,40.532852,-3.429085,620.2,4,5,298.1,5.273
114.19,1,-0.034,-0.003,0.003,-0.033,0.004,0.001,-1.579,0.031,0.301,112.98,104.0,40.532852,-3.429085,620.2,4,5,298.1,5.273
114.29,1,-0.037,-0.003,0.019,-0.038,0.002,0.008,-1.579,0.03,0.303,112.98,104.0,40.532852,-3.429085,620.2,4,5,298.1,5.273
114.39,1,-0.031,-0.002,-0.027,-0.036,-0.001,-0.0,-1.576,0.029,0.305,112.98,104.0,40.532852,-3.429085,620.2,4,5,298.1,5.273
114.5,1,0.012,0.012,-0.002,-0.018,0.01,-0.016,-1.574,0.029,0.306,112.98,104.0,40.532852,-3.429085,620.2,4,5,298.1,5.273
114.59,1,0.008,0.024,-0.054,-0.001,0.008,-0.024,-1.574,0.031,0.308,113.99,100.8,40.532967,-3.429373,621.4,4,5,297.8,3.516
114.7,1,-0.028,0.007,-0.046,-0.011,0.014,-0.038,-1.572,0.032,0.31,113.99,100.8,40.532967,-3.429373,621.4,4,5,297.8,3.516
114.8,1,0.002,0.019,-0.015,-0.008,0.013,-0.032,-1.57,0.033,0.311,113.99,100.8,40.532967,-3.429373,621.4,4,5,297.8,3.516
114.89,1,0.02,0.038,-0.041,0.005,0.027,-0.032,-1.568,0.033,0.312,113.99,100.8,40.532967,-3.429373,621.4,4,5,297.8,3.516
114.99,1,-0.051,0.003,-0.045,-0.012,0.019,-0.037,-1.563,0.031,0.313,113.99,100.8,40.532967,-3.429373,621.4,4,5,297.8,3.516
115.09,1,0.035,0.033,-0.022,-0.004,0.025,-0.035,-1.559,0.029,0.313,113.99,100.8,40.532967,-3.429373,621.4,4,5,297.8,3.516
115.19,1,-0.032,0.051,-0.018,-0.011,0.033,-0.025,-1.559,0.025,0.313,113.99,100.8,40.532967,-3.429373,621.4,4,5,297.8,3.516
115.31,1,-0.004,0.044,0.027,-0.012,0.043,-0.004,-1.563,0.02,0.314,113.99,100.8,40.532967,-3.429373,621.4,4,5,297.8,3.516
115.4,1,-0.074,0.036,0.035,-0.034,0.041,0.02,-1.566,0.019,0.314,113.99,100.8,40.532967,-3.429373,621.4,4,5,297.8,3.516
115.49,1,0.019,0.025,0.044,-0.024,0.029,0.033,-1.568,0.019,0.314,113.99,100.8,40.532967,-3.429373,621.4,4,5,297.8,3.516
115.6,1,0.004,0.038,0.032,0.01,0.036,0.034,-1.57,0.018,0.314,114.98,100.3,40.533077,-3.429663,622.5,4,5,296.0,2.109
115.7,1,0.004,0.01,0.024,-0.002,0.024,0.027,-1.571,0.015,0.314,114.98,100.3,40.533077,-3.429663,622.5,4,5,296.0,2.109
115.8,1,-0.036,0.049,0.01,-0.012,0.034,0.026,-1.573,0.013,0.315,114.98,100.3,40.533077,-3.429663,622.5,4,5,296.0,2.109
115.9,1,-0.018,0.013,0.039,-0.029,0.026,0.022,-1.576,0.01,0.315,114.98,100.3,40.533077,-3.429663,622.5,4,5,296.0,2.109
116.01,1,-0.02,0.023,0.012,-0.009,0.026,0.023,-1.575,0.008,0.316,114.98,100.3,40.533077,-3.429663,622.5,4,5,296.0,2.109
116.1,1,0.014,0.011,0.019,-0.013,0.018,0.022,-1.574,0.007,0.316,114.98,100.3,40.533077,-3.429663,622.5,4,5,296.0,2.109
116.2,1,0.008,0.042,0.029,0.008,0.023,0.024,-1.576,0.007,0.316,114.98,100.3,40.533077,-3.429663,622.5,4,5,296.0,2.109
116.3,1,-0.027,-0.002,-0.001,-0.002,0.02,0.014,-1.577,0.004,0.317,114.98,100.3,40.533077,-3.429663,622.5,4,5,296.0,2.109
116.4,1,-0.003,0.014,0.012,-0.014,0.012,0.011,-1.58,0.004,0.318,114.98,100.3,40.533077,-3.429663,622.5,4,5,296.0,2.109
116.5,1,-0.017,0.004,0.022,0.001,0.007,0.016,-1.581,0.006,0.319,114.98,100.3,40.533077,-3.429663,622.5,4,5,296.0,2.109
116.6,1,-0.017,-0.015,0.012,-0.022,-0.001,0.012,-1.581,0.009,0.321,115.98,98.7,40.53318,-3.429963,623.6,4,5,294.3,3.516
116.7,1,-0.016,-0.032,0.016,-0.011,-0.021,0.015,-1.583,0.012,0.322,115.98,98.7,40.53318,-3.429963,623.6,4,5,294.3,3.516
116.8,1,-0.011,-0.019,0.005,-0.01,-0.018,0.012,-1.586,0.014,0.324,115.98,98.7,40.53318,-3.429963,623.6,4,5,294.3,3.516
116.9,1,-0.043,-0.009,-0.005,-0.04,-0.014,0.005,-1.586,0.014,0.325,115.98,98.7,40.53318,-3.429963,623.6,4,5,294.3,3.516
117.0,1,0.036,-0.003,0.011,-0.001,-0.013,0.006,-1.587,0.015,0.327,115.98,98.7,40.53318,-3.429963,623.6,4,5,294.3,3.516
117.1,1,-0.041,-0.021,0.007,-0.009,-0.007,0.003,-1.588,0.018,0.329,115.98,98.7,40.53318,-3.429963,623.6,4,5,294.3,3.516
117.2,1,-0.044,-0.03,0.013,-0.031,-0.027,0.011,-1.591,0.024,0.33,115.98,98.7,40.53318,-3.429963,623.6,4,5,294.3,3.516
117.3,1,-0.076,-0.025,0.005,-0.057,-0.023,0.004,-1.591,0.027,0.332,115.98,98.7,40.53318,-3.429963,623.6,4,5,294.3,3.516
117.4,1,0.036,-0.016,0.008,-0.029,-0.022,0.01,-1.593,0.026,0.334,115.98,98.7,40.53318,-3.429963,623.6,4,5,294.3,3.516
117.5,1,-0.026,0.024,-0.007,-0.004,-0.002,-0.001,-1.592,0.025,0.335,115.98,98.7,40.53318,-3.429963,623.6,4,5,294.3,3.516
117.6,1,-0.031,0.011,0.011,-0.03,0.014,0.007,-1.594,0.022,0.336,117.07,98.6,40.533283,-3.430249,625.3,4,5,293.2,2.812
117.71,1,0.043,-0.027,0.012,0.005,-0.004,0.007,-1.596,0.019,0.337,117.07,98.6,40.533283,-3.430249,625.3,4,5,293.2,2.812
117.81,1,-0.067,0.012,-0.014,-0.013,-0.004,0.004,-1.595,0.019,0.338,117.07,98.6,40.533283,-3.430249,625.3,4,5,293.2,2.812
117.91,1,0.068,-0.012,0.015,0.003,-0.003,-0.0,-1.594,0.019,0.339,117.07,98.6,40.533283,-3.430249,625.3,4,5,293.2,2.812
118.0,1,-0.011,0.023,0.007,0.03,0.001,0.01,-1.593,0.019,0.339,117.07,98.6,40.533283,-3.430249,625.3,4,5,293.2,2.812
118.1,1,-0.068,0.04,0.001,-0.034,0.027,0.007,-1.592,0.018,0.34,117.07,98.6,40.533283,-3.430249,625.3,4,5,293.2,2.812
118.2,1,0.11,0.004,0.033,0.025,0.014,0.016,-1.591,0.017,0.34,117.07,98.6,40.533283,-3.430249,625.3,4,5,293.2,2.812
118.3,1,-0.066,0.023,0.002,-0.012,0.023,0.01,-1.591,0.018,0.341,117.07,98.6,40.533283,-3.430249,625.3,4,5,293.2,2.812
118.41,1,0.028,-0.033,0.012,-0.015,-0.001,0.008,-1.591,0.02,0.344,117.07,98.6,40.533283,-3.430249,625.3,4,5,293.2,2.812
118.5,1,-0.058,-0.024,-0.012,0.004,-0.02,0.005,-1.59,0.022,0.346,117.07,98.6,40.533283,-3.430249,625.3,4,5,293.2,2.812
118.6,1,0.019,-0.026,0.018,-0.034,-0.025,0.001,-1.589,0.026,0.347,117.98,98.2,40.533371,-3.430536,626.4,4,5,291.1,3.164
118.7,1,0.033,0.024,0.004,0.045,-0.007,0.015,-1.59,0.026,0.348,117.98,98.2,40.533371,-3.430536,626.4,4,5,291.1,3.164
118.8,1,-0.106,0.003,-0.003,-0.043,0.009,-0.003,-1.59,0.027,0.349,117.98,98.2,40.533371,-3.430536,626.4,4,5,291.1,3.164
118.91,1,-0.033,0.022,0.01,-0.04,0.014,0.006,-1.594,0.024,0.35,117.98,98.2,40.533371,-3.430536,626.4,4,5,291.1,3.164
119.0,1,-0.07,-0.003,0.026,-0.053,0.005,0.017,-1.597,0.022,0.35,117.98,98.2,40.533371,-3.430536,626.4,4,5,291.1,3.164
119.11,1,0.083,0.033,0.009,-0.011,0.016,0.018,-1.597,0.02,0.35,117.98,98.2,40.533371,-3.430536,626.4,4,5,291.1,3.164
119.2,1,0.022,0.021,-0.013,0.054,0.025,0.003,-1.597,0.018,0.35,117.98,98.2,40.533371,-3.430536,626.4,4,5,291.1,3.164
119.3,1,-0.006,-0.051,-0.013,-0.006,-0.009,-0.012,-1.597,0.017,0.352,117.98,98.2,40.533371,-3.430536,626.4,4,5,291.1,3.164
119.41,1,0.086,-0.025,-0.004,0.038,-0.026,-0.006,-1.596,0.023,0.355,117.98,98.2,40.533371,-3.430536,626.4,4,5,291.1,3.164
119.5,1,-0.111,-0.049,0.005,-0.011,-0.035,-0.001,-1.595,0.026,0.358,117.98,98.2,40.533371,-3.430536,626.4,4,5,291.1,3.164
119.61,1,-0.051,-0.056,0.001,-0.052,-0.045,0.001,-1.595,0.031,0.36,119.06,98.5,40.533451,-3.430835,627.6,4,5,289.3,3.867
119.72,1,-0.068,-0.019,0.01,-0.063,-0.043,0.001,-1.597,0.033,0.362,119.06,98.5,40.533451,-3.430835,627.6,4,5,289.3,3.867
119.85,1,0.043,0.003,0.018,-0.015,-0.014,0.015,-1.597,0.034,0.363,119.06,98.5,40.533451,-3.430835,627.6,4,5,289.3,3.867
119.91,1,0.081,0.011,0.003,0.028,-0.007,0.007,-1.594,0.036,0.364,119.06,98.5,40.533451,-3.430835,627.6,4,5,289.3,3.867
120.01,1,-0.135,0.016,-0.022,-0.027,0.011,-0.004,-1.593,0.037,0.365,119.06,98.5,40.533451,-3.430835,627.6,4,5,289.3,3.867
120.11,1,-0.035,0.018,-0.018,-0.051,0.017,-0.017,-1.595,0.038,0.366,119.06,98.5,40.533451,-3.430835,627.6,4,5,289.3,3.867
120.21,1,-0.006,0.028,0.022,-0.034,0.023,0.0,-1.596,0.039,0.366,119.06,98.5,40.533451,-3.430835,627.6,4,5,289.3,3.867
120.31,1,-0.084,0.034,-0.013,-0.03,0.022,0.004,-1.595,0.04,0.367,119.06,98.5,40.533451,-3.430835,627.6,4,5,289.3,3.867
120.41,1,-0.053,0.026,0.016,-0.072,0.032,0.002,-1.596,0.041,0.368,119.06,98.5,40.533451,-3.430835,627.6,4,5,289.3,3.867
120.51,1,0.037,0.028,0.004,-0.003,0.028,0.007,-1.596,0.039,0.37,119.06,98.5,40.533451,-3.430835,627.6,4,5,289.3,3.867
120.61,1,-0.023,0.016,0.007,-0.007,0.027,0.002,-1.593,0.037,0.371,120.0,98.3,40.533524,-3.431136,628.4,4,5,287.6,3.516
120.71,1,0.081,-0.0,0.009,0.027,0.013,0.011,-1.592,0.039,0.372,120.0,98.3,40.533524,-3.431136,628.4,4,5,287.6,3.516
120.81,1,-0.052,-0.013,-0.003,0.02,-0.005,0.002,-1.592,0.039,0.374,120.0,98.3,40.533524,-3.431136,628.4,4,5,287.6,3.516
120.91,1,-0.039,-0.007,-0.015,-0.05,-0.01,-0.007,-1.594,0.036,0.374,120.0,98.3,40.533524,-3.431136,628.4,4,5,287.6,3.516
121.11,1,-0.053,0.039,-0.017,-0.035,0.037,0.0,-1.595,0.029,0.374,120.0,98.3,40.533524,-3.431136,628.4,4,5,287.6,3.516
121.21,1,0.062,0.027,0.013,0.002,0.035,-0.009,-1.594,0.028,0.374,120.0,98.3,40.533524,-3.431136,628.4,4,5,287.6,3.516
121.31,1,-0.104,0.014,0.013,-0.026,0.02,0.013,-1.596,0.028,0.375,120.0,98.3,40.533524,-3.431136,628.4,4,5,287.6,3.516
121.41,1,0.028,0.027,-0.007,-0.018,0.025,0.001,-1.596,0.026,0.375,120.0,98.3,40.533524,-3.431136,628.4,4,5,287.6,3.516
121.51,1,-0.077,0.031,0.011,-0.031,0.032,0.004,-1.595,0.029,0.376,120.0,98.3,40.533524,-3.431136,628.4,4,5,287.6,3.516
121.62,1,-0.011,0.037,0.001,-0.038,0.03,0.004,-1.597,0.032,0.376,120.0,98.3,40.533524,-3.431136,628.4,4,5,287.6,3.516
121.72,1,0.021,0.021,0.03,0.001,0.027,0.012,-1.598,0.034,0.376,121.01,98.2,40.533588,-3.431442,630.8,4,5,285.5,3.867
121.81,1,0.028,-0.004,-0.008,-0.005,0.019,0.007,-1.597,0.03,0.377,121.01,98.2,40.533588,-3.431442,630.8,4,5,285.5,3.867
121.91,1,-0.01,-0.015,0.0,0.022,-0.003,0.006,-1.596,0.026,0.379,121.01,98.2,40.533588,-3.431442,630.8,4,5,285.5,3.867
122.01,1,-0.069,-0.021,-0.007,-0.043,-0.016,-0.007,-1.596,0.024,0.381,121.01,98.2,40.533588,-3.431442,630.8,4,5,285.5,3.867
122.11,1,0.027,-0.01,0.002,0.001,-0.012,0.004,-1.595,0.022,0.382,121.01,98.2,40.533588,-3.431442,630.8,4,5,285.5,3.867
122.22,1,-0.022,0.004,-0.003,-0.017,-0.005,-0.008,-1.597,0.023,0.383,121.01,98.2,40.533588,-3.431442,630.8,4,5,285.5,3.867
122.31,1,0.02,-0.029,-0.008,-0.002,-0.015,-0.001,-1.597,0.023,0.384,121.01,98.2,40.533588,-3.431442,630.8,4,5,285.5,3.867
122.41,1,0.003,0.035,0.007,0.01,-0.004,-0.003,-1.598,0.019,0.384,121.01,98.2,40.533588,-3.431442,630.8,4,5,285.5,3.867
122.51,1,-0.009,-0.025,-0.007,-0.004,-0.0,0.005,-1.597,0.021,0.385,121.01,98.2,40.533588,-3.431442,630.8,4,5,285.5,3.867
122.62,1,-0.0,0.024,-0.01,-0.001,0.006,-0.007,-1.594,0.023,0.385,121.01,98.2,40.533588,-3.431442,630.8,4,5,285.5,3.867
122.72,1,-0.073,-0.006,0.016,-0.031,0.007,0.003,-1.596,0.02,0.387,122.0,98.0,40.533646,-3.431757,631.8,4,5,283.7,3.867
122.81,1,0.049,-0.01,-0.006,-0.018,-0.005,0.002,-1.596,0.02,0.387,122.0,98.0,40.533646,-3.431757,631.8,4,5,283.7,3.867
122.92,1,0.029,0.019,0.009,0.032,0.003,0.002,-1.591,0.023,0.388,122.0,98.0,40.533646,-3.431757,631.8,4,5,283.7,3.867
123.01,1,-0.023,0.027,-0.003,-0.009,0.016,-0.001,-1.59,0.024,0.389,122.0,98.0,40.533646,-3.431757,631.8,4,5,283.7,3.867
123.11,1,-0.05,-0.0,-0.008,-0.03,0.013,-0.002,-1.593,0.024,0.39,122.0,98.0,40.533646,-3.431757,631.8,4,5,283.7,3.867
123.21,1,-0.053,0.021,0.028,-0.031,0.011,0.011,-1.593,0.023,0.39,122.0,98.0,40.533646,-3.431757,631.8,4,5,283.7,3.867
123.32,1,0.02,0.03,-0.008,-0.02,0.028,0.002,-1.592,0.021,0.39,122.0,98.0,40.533646,-3.431757,631.8,4,5,283.7,3.867
123.41,1,0.022,0.032,0.02,0.014,0.024,0.011,-1.592,0.02,0.39,122.0,98.0,40.533646,-3.431757,631.8,4,5,283.7,3.867
123.52,1,-0.047,0.048,-0.006,-0.014,0.039,0.006,-1.592,0.015,0.389,122.0,98.0,40.533646,-3.431757,631.8,4,5,283.7,3.867
123.62,1,-0.026,-0.015,-0.006,-0.026,0.02,0.001,-1.594,0.015,0.39,122.0,98.0,40.533646,-3.431757,631.8,4,5,283.7,3.867
123.71,1,-0.064,-0.046,0.006,-0.033,-0.014,0.0,-1.596,0.017,0.391,123.0,97.8,40.533699,-3.432069,633.0,4,5,282.7,2.812
123.81,1,-0.019,-0.012,-0.009,-0.046,-0.027,-0.005,-1.595,0.016,0.391,123.0,97.8,40.533699,-3.432069,633.0,4,5,282.7,2.812
123.92,1,0.009,0.027,0.042,-0.008,-0.0,0.022,-1.598,0.011,0.391,123.0,97.8,40.533699,-3.432069,633.0,4,5,282.7,2.812
124.02,1,-0.009,0.056,-0.034,-0.004,0.031,0.0,-1.597,0.007,0.391,123.0,97.8,40.533699,-3.432069,633.0,4,5,282.7,2.812
124.13,1,0.073,0.013,-0.001,0.021,0.029,-0.012,-1.597,0.006,0.391,123.0,97.8,40.533699,-3.432069,633.0,4,5,282.7,2.812
124.22,1,-0.006,0.006,0.02,0.019,0.017,0.007,-1.6,0.007,0.391,123.0,97.8,40.533699,-3.432069,633.0,4,5,282.7,2.812
124.32,1,-0.119,0.034,-0.015,-0.049,0.022,-0.003,-1.598,0.007,0.392,123.0,97.8,40.533699,-3.432069,633.0,4,5,282.7,2.812
124.42,1,0.104,-0.027,0.018,-0.004,0.007,0.003,-1.597,0.009,0.393,123.0,97.8,40.533699,-3.432069,633.0,4,5,282.7,2.812
124.52,1,-0.051,-0.015,-0.027,0.021,-0.012,-0.0,-1.595,0.009,0.393,123.0,97.8,40.533699,-3.432069,633.0,4,5,282.7,2.812
124.62,1,-0.088,-0.006,-0.004,-0.068,-0.009,-0.014,-1.596,0.008,0.393,123.0,97.8,40.533699,-3.432069,633.0,4,5,282.7,2.812
124.72,1,0.068,-0.023,0.011,-0.007,-0.018,0.003,-1.6,0.006,0.394,124.06,98.3,40.533749,-3.432377,634.0,4,5,280.5,3.164
124.82,1,-0.154,-0.005,-0.003,-0.041,-0.005,-0.004,-1.6,0.006,0.396,124.06,98.3,40.533749,-3.432377,634.0,4,5,280.5,3.164
124.92,1,0.047,-0.021,-0.018,-0.036,-0.012,-0.007,-1.6,0.01,0.397,124.06,98.3,40.533749,-3.432377,634.0,4,5,280.5,3.164
125.02,1,0.034,-0.001,-0.033,0.022,-0.015,-0.018,-1.601,0.009,0.398,124.06,98.3,40.533749,-3.432377,634.0,4,5,280.5,3.164
125.12,1,-0.124,-0.051,-0.022,-0.036,-0.028,-0.025,-1.599,0.011,0.399,124.06,98.3,40.533749,-3.432377,634.0,4,5,280.5,3.164
125.22,1,0.056,0.005,-0.006,-0.017,-0.021,-0.016,-1.601,0.01,0.4,124.06,98.3,40.533749,-3.432377,634.0,4,5,280.5,3.164
125.32,1,-0.061,-0.033,0.015,-0.013,-0.02,0.0,-1.602,0.011,0.401,124.06,98.3,40.533749,-3.432377,634.0,4,5,280.5,3.164
125.42,1,0.08,-0.024,-0.0,0.004,-0.029,0.004,-1.601,0.011,0.401,124.06,98.3,40.533749,-3.432377,634.0,4,5,280.5,3.164
125.52,1,-0.05,0.012,-0.035,0.027,-0.007,-0.011,-1.602,0.009,0.402,124.06,98.3,40.533749,-3.432377,634.0,4,5,280.5,3.164
125.62,1,-0.043,-0.002,-0.02,-0.066,0.001,-0.027,-1.604,0.009,0.402,124.06,98.3,40.533749,-3.432377,634.0,4,5,280.5,3.164
125.72,1,-0.065,0.017,0.025,-0.033,0.007,-0.001,-1.606,0.009,0.403,125.01,97.3,40.533783,-3.432682,635.4,4,5,278.8,3.867
125.83,1,-0.083,-0.008,-0.027,-0.081,0.002,-0.003,-1.605,0.01,0.404,125.01,97.3,40.533783,-3.432682,635.4,4,5,278.8,3.867
125.92,1,0.123,-0.012,0.015,0.009,-0.006,-0.003,-1.604,0.013,0.405,125.01,97.3,40.533783,-3.432682,635.4,4,5,278.8,3.867
126.02,1,0.031,-0.019,-0.037,0.052,-0.01,-0.011,-1.602,0.017,0.407,125.01,97.3,40.533783,-3.432682,635.4,4,5,278.8,3.867
126.12,1,0.023,-0.06,0.023,0.004,-0.035,-0.007,-1.6,0.019,0.409,125.01,97.3,40.533783,-3.432682,635.4,4,5,278.8,3.867
126.22,1,0.039,-0.005,-0.015,0.069,-0.031,0.002,-1.599,0.02,0.411,125.01,97.3,40.533783,-3.432682,635.4,4,5,278.8,3.867
126.32,1,-0.101,-0.038,-0.03,-0.029,-0.022,-0.018,-1.596,0.024,0.412,125.01,97.3,40.533783,-3.432682,635.4,4,5,278.8,3.867
126.42,1,-0.026,-0.053,-0.013,-0.032,-0.046,-0.012,-1.598,0.027,0.414,125.01,97.3,40.533783,-3.432682,635.4,4,5,278.8,3.867
126.52,1,-0.068,0.001,0.044,-0.054,-0.023,-0.001,-1.598,0.024,0.414,125.01,97.3,40.533783,-3.432682,635.4,4,5,278.8,3.867
126.62,1,0.064,0.007,-0.008,-0.02,-0.007,0.017,-1.597,0.02,0.413,125.01,97.3,40.533783,-3.432682,635.4,4,5,278.8,3.867
126.73,1,-0.026,0.034,0.002,0.022,0.017,0.002,-1.596,0.018,0.413,125.99,98.0,40.533806,-3.433,636.6,4,5,276.7,3.867
126.83,1,-0.093,0.045,-0.021,-0.037,0.029,-0.009,-1.596,0.018,0.413,125.99,98.0,40.533806,-3.433,636.6,4,5,276.7,3.867
126.92,1,0.038,-0.007,0.027,-0.03,0.02,0.005,-1.598,0.021,0.413,125.99,98.0,40.533806,-3.433,636.6,4,5,276.7,3.867
127.02,1,0.076,-0.018,0.017,0.035,-0.002,0.018,-1.597,0.025,0.414,125.99,98.0,40.533806,-3.433,636.6,4,5,276.7,3.867
127.12,1,-0.012,0.023,-0.017,0.025,-0.0,-0.005,-1.594,0.026,0.415,125.99,98.0,40.533806,-3.433,636.6,4,5,276.7,3.867
127.22,1,-0.068,0.021,-0.011,-0.032,0.019,-0.007,-1.594,0.026,0.414,125.99,98.0,40.533806,-3.433,636.6,4,5,276.7,3.867
127.32,1,0.109,0.023,0.04,0.023,0.017,0.008,-1.593,0.026,0.412,125.99,98.0,40.533806,-3.433,636.6,4,5,276.7,3.867
127.42,1,-0.16,0.077,-0.013,-0.031,0.042,0.011,-1.595,0.021,0.41,125.99,98.0,40.533806,-3.433,636.6,4,5,276.7,3.867
127.52,1,-0.024,0.028,-0.008,-0.071,0.048,-0.003,-1.599,0.019,0.409,125.99,98.0,40.533806,-3.433,636.6,4,5,276.7,3.867
127.62,1,0.018,0.02,0.023,-0.005,0.032,0.006,-1.601,0.019,0.409,125.99,98.0,40.533806,-3.433,636.6,4,5,276.7,3.867
127.73,1,-0.039,0.023,-0.008,-0.026,0.024,0.007,-1.601,0.019,0.41,126.99,98.3,40.533836,-3.433317,638.0,4,5,276.0,2.812
127.82,1,0.002,-0.026,0.005,-0.018,0.009,-0.003,-1.604,0.024,0.41,126.99,98.3,40.533836,-3.433317,638.0,4,5,276.0,2.812
127.93,1,-0.033,0.023,-0.001,-0.019,0.003,0.003,-1.606,0.028,0.409,126.99,98.3,40.533836,-3.433317,638.0,4,5,276.0,2.812
128.02,1,0.026,0.012,-0.016,-0.014,0.013,-0.009,-1.605,0.03,0.408,126.99,98.3,40.533836,-3.433317,638.0,4,5,276.0,2.812
128.12,1,-0.03,0.04,-0.007,0.009,0.021,-0.004,-1.604,0.031,0.407,126.99,98.3,40.533836,-3.433317,638.0,4,5,276.0,2.812
128.23,1,-0.012,0.036,-0.012,-0.02,0.032,-0.007,-1.607,0.032,0.406,126.99,98.3,40.533836,-3.433317,638.0,4,5,276.0,2.812
128.32,1,-0.042,0.029,0.019,-0.01,0.032,-0.004,-1.609,0.029,0.405,126.99,98.3,40.533836,-3.433317,638.0,4,5,276.0,2.812
128.43,1,-0.097,0.047,0.018,-0.065,0.04,0.017,-1.609,0.027,0.405,126.99,98.3,40.533836,-3.433317,638.0,4,5,276.0,2.812
128.53,1,0.035,0.045,-0.018,-0.018,0.042,-0.003,-1.61,0.03,0.404,126.99,98.3,40.533836,-3.433317,638.0,4,5,276.0,2.812
128.63,1,-0.078,-0.002,-0.003,-0.04,0.022,-0.006,-1.609,0.031,0.404,126.99,98.3,40.533836,-3.433317,638.0,4,5,276.0,2.812
128.73,1,-0.014,0.034,-0.02,-0.054,0.022,-0.011,-1.609,0.03,0.403,127.99,97.4,40.533855,-3.433635,639.3,6,5,274.2,2.461
128.83,1,-0.086,0.014,0.005,-0.051,0.025,-0.008,-1.61,0.028,0.402,127.99,97.4,40.533855,-3.433635,639.3,6,5,274.2,2.461
128.93,1,-0.077,0.035,-0.008,-0.065,0.023,-0.001,-1.611,0.027,0.401,127.99,97.4,40.533855,-3.433635,639.3,6,5,274.2,2.461
129.03,1,0.06,0.037,-0.022,-0.016,0.033,-0.018,-1.607,0.025,0.399,127.99,97.4,40.533855,-3.433635,639.3,6,5,274.2,2.461
129.14,1,-0.049,0.056,0.031,-0.012,0.042,0.009,-1.608,0.024,0.397,127.99,97.4,40.533855,-3.433635,639.3,6,5,274.2,2.461
129.23,1,0.018,0.07,-0.019,-0.019,0.057,0.0,-1.609,0.024,0.395,127.99,97.4,40.533855,-3.433635,639.3,6,5,274.2,2.461
129.33,1,0.043,0.031,-0.045,0.03,0.049,-0.018,-1.606,0.024,0.393,127.99,97.4,40.533855,-3.433635,639.3,6,5,274.2,2.461
129.43,1,-0.146,0.082,-0.027,-0.041,0.056,-0.036,-1.604,0.023,0.392,127.99,97.4,40.533855,-3.433635,639.3,6,5,274.2,2.461
129.53,1,0.061,-0.006,0.057,-0.028,0.037,0.006,-1.608,0.023,0.39,127.99,97.4,40.533855,-3.433635,639.3,6,5,274.2,2.461
129.63,1,-0.009,0.014,-0.002,-0.016,0.018,0.019,-1.607,0.021,0.389,127.99,97.4,40.533855,-3.433635,639.3,6,5,274.2,2.461
129.73,1,0.064,0.036,-0.021,0.035,0.028,-0.008,-1.599,0.017,0.387,128.99,97.7,40.533875,-3.43396,640.6,6,5,272.8,3.164
129.84,1,0.003,0.018,-0.001,0.034,0.024,-0.004,-1.599,0.018,0.385,128.99,97.7,40.533875,-3.43396,640.6,6,5,272.8,3.164
129.94,1,-0.028,0.005,0.009,-0.008,0.016,0.002,-1.597,0.021,0.384,128.99,97.7,40.533875,-3.43396,640.6,6,5,272.8,3.164
130.03,1,-0.044,0.023,-0.007,-0.011,0.017,0.002,-1.595,0.024,0.383,128.99,97.7,40.533875,-3.43396,640.6,6,5,272.8,3.164
130.13,1,-0.123,-0.033,0.004,-0.074,-0.004,-0.005,-1.593,0.026,0.383,128.99,97.7,40.533875,-3.43396,640.6,6,5,272.8,3.164
130.24,1,-0.005,-0.035,0.009,-0.068,-0.027,0.007,-1.593,0.029,0.382,128.99,97.7,40.533875,-3.43396,640.6,6,5,272.8,3.164
130.33,1,0.044,0.036,-0.014,0.015,-0.002,-0.004,-1.594,0.027,0.381,128.99,97.7,40.533875,-3.43396,640.6,6,5,272.8,3.164
130.43,1,-0.064,0.035,0.012,-0.007,0.024,0.004,-1.594,0.025,0.379,128.99,97.7,40.533875,-3.43396,640.6,6,5,272.8,3.164
130.54,1,0.005,0.026,0.014,-0.032,0.024,0.005,-1.595,0.026,0.378,128.99,97.7,40.533875,-3.43396,640.6,6,5,272.8,3.164
130.63,1,0.075,0.01,0.011,0.014,0.025,0.015,-1.595,0.027,0.377,128.99,97.7,40.533875,-3.43396,640.6,6,5,272.8,3.164
130.73,1,-0.01,0.001,0.001,0.032,0.01,0.001,-1.594,0.027,0.377,130.0,97.3,40.53389,-3.434283,642.0,6,5,272.1,2.109
130.83,1,-0.017,0.01,-0.001,-0.018,0.003,0.006,-1.592,0.031,0.375,130.0,97.3,40.53389,-3.434283,642.0,6,5,272.1,2.109
130.93,1,0.056,0.025,0.006,0.016,0.013,-0.0,-1.589,0.029,0.374,130.0,97.3,40.53389,-3.434283,642.0,6,5,272.1,2.109
131.03,1,-0.152,-0.003,-0.012,-0.029,0.017,-0.002,-1.589,0.029,0.373,130.0,97.3,40.53389,-3.434283,642.0,6,5,272.1,2.109
131.23,1,-0.042,0.018,0.038,-0.003,0.008,0.018,-1.595,0.03,0.371,130.0,97.3,40.53389,-3.434283,642.0,6,5,272.1,2.109
131.33,1,-0.027,0.029,0.001,-0.051,0.024,0.009,-1.594,0.031,0.37,130.0,97.3,40.53389,-3.434283,642.0,6,5,272.1,2.109
131.43,1,0.176,0.001,-0.011,0.082,0.008,0.008,-1.593,0.031,0.369,130.0,97.3,40.53389,-3.434283,642.0,6,5,272.1,2.109
131.54,1,-0.125,0.024,-0.0,-0.001,0.016,-0.006,-1.592,0.032,0.368,130.0,97.3,40.53389,-3.434283,642.0,6,5,272.1,2.109
131.63,1,0.15,0.035,0.038,0.017,0.031,0.015,-1.593,0.032,0.366,130.0,97.3,40.53389,-3.434283,642.0,6,5,272.1,2.109
131.74,1,-0.002,0.03,-0.019,0.073,0.028,0.01,-1.59,0.03,0.365,130.0,97.3,40.53389,-3.434283,642.0,6,5,272.1,2.109
131.83,1,0.007,0.008,-0.014,0.015,0.018,-0.01,-1.589,0.03,0.363,131.02,97.3,40.533886,-3.434599,643.4,4,5,271.1,1.758
131.93,1,-0.048,0.014,0.021,-0.003,0.015,-0.002,-1.591,0.029,0.361,131.02,97.3,40.533886,-3.434599,643.4,4,5,271.1,1.758
132.03,1,-0.165,0.032,0.015,-0.099,0.02,0.012,-1.591,0.029,0.36,131.02,97.3,40.533886,-3.434599,643.4,4,5,271.1,1.758
132.13,1,0.094,-0.001,0.013,-0.03,0.011,0.017,-1.589,0.027,0.358,131.02,97.3,40.533886,-3.434599,643.4,4,5,271.1,1.758
132.23,1,-0.023,0.037,-0.004,0.02,0.023,0.004,-1.589,0.023,0.356,131.02,97.3,40.533886,-3.434599,643.4,4,5,271.1,1.758
132.33,1,-0.026,-0.005,0.012,-0.03,0.015,0.007,-1.592,0.021,0.354,131.02,97.3,40.533886,-3.434599,643.4,4,5,271.1,1.758
132.43,1,0.022,0.024,0.037,0.008,0.011,0.019,-1.591,0.023,0.353,131.02,97.3,40.533886,-3.434599,643.4,4,5,271.1,1.758
132.54,1,-0.042,0.015,0.003,-0.023,0.021,0.018,-1.59,0.025,0.351,131.02,97.3,40.533886,-3.434599,643.4,4,5,271.1,1.758
132.64,1,0.064,0.002,0.012,0.015,0.01,0.009,-1.59,0.027,0.349,131.02,97.3,40.533886,-3.434599,643.4,4,5,271.1,1.758
132.73,1,-0.027,0.018,0.007,0.011,0.011,0.011,-1.59,0.028,0.348,131.02,97.3,40.533886,-3.434599,643.4,4,5,271.1,1.758
132.83,1,-0.034,-0.002,0.009,-0.04,0.01,0.008,-1.589,0.03,0.346,131.99,97.3,40.53389,-3.434916,644.4,4,5,270.7,1.406
132.94,1,-0.012,0.023,0.008,-0.004,0.011,0.01,-1.587,0.029,0.345,131.99,97.3,40.53389,-3.434916,644.4,4,5,270.7,1.406
133.04,1,-0.054,0.008,0.005,-0.041,0.015,0.007,-1.585,0.028,0.343,131.99,97.3,40.53389,-3.434916,644.4,4,5,270.7,1.406
133.14,1,0.118,0.009,0.042,0.015,0.007,0.018,-1.585,0.027,0.341,131.99,97.3,40.53389,-3.434916,644.4,4,5,270.7,1.406
133.24,1,-0.062,0.029,0.026,0.031,0.017,0.028,-1.586,0.027,0.339,131.99,97.3,40.53389,-3.434916,644.4,4,5,270.7,1.406
133.34,1,-0.017,0.038,0.01,-0.02,0.026,0.024,-1.584,0.028,0.337,131.99,97.3,40.53389,-3.434916,644.4,4,5,270.7,1.406
133.44,1,0.09,-0.014,0.031,0.059,0.014,0.019,-1.584,0.03,0.337,131.99,97.3,40.53389,-3.434916,644.4,4,5,270.7,1.406
133.54,1,0.004,-0.022,0.021,0.016,-0.007,0.027,-1.586,0.031,0.336,131.99,97.3,40.53389,-3.434916,644.4,4,5,270.7,1.406
133.64,1,0.131,-0.02,0.024,0.051,-0.015,0.02,-1.586,0.031,0.335,131.99,97.3,40.53389,-3.434916,644.4,4,5,270.7,1.406
133.74,1,-0.042,0.034,0.004,0.014,0.003,0.012,-1.588,0.031,0.332,131.99,97.3,40.53389,-3.434916,644.4,4,5,270.7,1.406
133.84,1,-0.007,0.02,0.01,0.033,0.02,0.017,-1.587,0.031,0.33,132.99,97.5,40.533901,-3.435247,645.9,4,5,270.0,1.055
133.94,1,-0.102,0.029,-0.007,-0.056,0.019,0.003,-1.586,0.03,0.327,132.99,97.5,40.533901,-3.435247,645.9,4,5,270.0,1.055
134.04,1,0.136,0.037,0.006,0.004,0.029,-0.002,-1.588,0.03,0.325,132.99,97.5,40.533901,-3.435247,645.9,4,5,270.0,1.055
134.14,1,0.087,0.037,0.026,0.087,0.038,0.015,-1.588,0.031,0.323,132.99,97.5,40.533901,-3.435247,645.9,4,5,270.0,1.055
134.24,1,-0.137,-0.006,-0.019,-0.018,0.02,0.001,-1.586,0.032,0.321,132.99,97.5,40.533901,-3.435247,645.9,4,5,270.0,1.055
134.34,1,0.097,-0.008,0.023,0.009,-0.001,0.007,-1.587,0.031,0.319,132.99,97.5,40.533901,-3.435247,645.9,4,5,270.0,1.055
134.44,1,-0.066,0.04,0.007,0.009,0.016,0.013,-1.587,0.03,0.317,132.99,97.5,40.533901,-3.435247,645.9,4,5,270.0,1.055
134.54,1,-0.052,-0.006,0.001,-0.052,0.01,0.006,-1.586,0.025,0.314,132.99,97.5,40.533901,-3.435247,645.9,4,5,270.0,1.055
134.65,1,0.022,0.027,0.023,-0.005,0.019,0.009,-1.587,0.023,0.312,132.99,97.5,40.533901,-3.435247,645.9,4,5,270.0,1.055
134.74,1,-0.101,0.015,-0.0,-0.039,0.016,0.011,-1.585,0.022,0.31,132.99,97.5,40.533901,-3.435247,645.9,4,5,270.0,1.055
134.84,1,0.063,0.001,0.033,-0.019,0.01,0.014,-1.584,0.02,0.307,133.99,97.7,40.533886,-3.435552,646.8,6,5,270.0,0.703
134.94,1,-0.088,0.008,0.022,-0.031,0.003,0.025,-1.583,0.021,0.305,133.99,97.7,40.533886,-3.435552,646.8,6,5,270.0,0.703
135.05,1,-0.043,-0.007,0.008,-0.048,0.004,0.014,-1.58,0.019,0.302,133.99,97.7,40.533886,-3.435552,646.8,6,5,270.0,0.703
135.14,1,0.006,-0.004,0.011,-0.02,-0.003,0.011,-1.58,0.017,0.3,133.99,97.7,40.533886,-3.435552,646.8,6,5,270.0,0.703
135.24,1,-0.032,0.02,0.041,-0.018,0.007,0.027,-1.582,0.015,0.297,133.99,97.7,40.533886,-3.435552,646.8,6,5,270.0,0.703
135.35,1,-0.059,0.022,0.01,-0.044,0.016,0.021,-1.585,0.014,0.294,133.99,97.7,40.533886,-3.435552,646.8,6,5,270.0,0.703
135.44,1,0.039,0.031,0.036,-0.001,0.018,0.026,-1.587,0.015,0.292,133.99,97.7,40.533886,-3.435552,646.8,6,5,270.0,0.703
135.55,1,-0.049,0.018,-0.025,-0.011,0.03,0.006,-1.587,0.017,0.288,133.99,97.7,40.533886,-3.435552,646.8,6,5,270.0,0.703
135.65,1,-0.039,-0.006,0.014,-0.035,0.01,0.004,-1.589,0.01,0.285,133.99,97.7,40.533886,-3.435552,646.8,6,5,270.0,0.703
135.74,1,-0.033,0.012,0.011,-0.05,0.007,0.007,-1.591,0.005,0.282,133.99,97.7,40.533886,-3.435552,646.8,6,5,270.0,0.703
135.84,1,-0.017,-0.007,0.011,-0.021,0.004,0.011,-1.59,0.002,0.279,134.98,96.8,40.533886,-3.435871,648.3,6,5,269.6,0.352
135.94,1,0.064,0.043,0.013,0.015,0.019,0.01,-1.59,0.002,0.277,134.98,96.8,40.533886,-3.435871,648.3,6,5,269.6,0.352
136.04,1,-0.022,0.011,-0.026,0.018,0.02,-0.001,-1.592,0.002,0.274,134.98,96.8,40.533886,-3.435871,648.3,6,5,269.6,0.352
136.14,1,-0.013,-0.038,0.007,-0.015,-0.01,-0.006,-1.592,0.006,0.272,134.98,96.8,40.533886,-3.435871,648.3,6,5,269.6,0.352
136.25,1,-0.039,-0.026,0.018,-0.012,-0.022,0.008,-1.593,0.008,0.271,134.98,96.8,40.533886,-3.435871,648.3,6,5,269.6,0.352
136.34,1,-0.038,-0.035,0.007,-0.048,-0.027,0.015,-1.594,0.007,0.27,134.98,96.8,40.533886,-3.435871,648.3,6,5,269.6,0.352
136.44,1,0.04,-0.003,0.017,0.004,-0.021,0.012,-1.595,0.008,0.267,134.98,96.8,40.533886,-3.435871,648.3,6,5,269.6,0.352
136.54,1,-0.032,-0.023,-0.018,-0.017,-0.015,-0.001,-1.593,0.011,0.266,134.98,96.8,40.533886,-3.435871,648.3,6,5,269.6,0.352
136.65,1,0.05,-0.026,0.001,0.009,-0.023,-0.002,-1.592,0.01,0.264,134.98,96.8,40.533886,-3.435871,648.3,6,5,269.6,0.352
136.75,1,-0.05,-0.015,0.017,0.005,-0.018,0.004,-1.594,0.007,0.263,134.98,96.8,40.533886,-3.435871,648.3,6,5,269.6,0.352
136.85,1,-0.033,-0.042,-0.011,-0.034,-0.03,0.003,-1.597,0.01,0.261,135.99,97.2,40.533882,-3.436174,649.6,6,5,270.0,0.352
136.94,1,-0.02,-0.018,0.015,-0.016,-0.029,0.004,-1.596,0.008,0.259,135.99,97.2,40.533882,-3.436174,649.6,6,5,270.0,0.352
137.04,1,-0.028,-0.008,0.008,-0.026,-0.021,0.006,-1.595,0.012,0.257,135.99,97.2,40.533882,-3.436174,649.6,6,5,270.0,0.352
137.14,1,-0.038,-0.006,0.013,-0.041,-0.011,0.005,-1.596,0.011,0.256,135.99,97.2,40.533882,-3.436174,649.6,6,5,270.0,0.352
137.25,1,-0.002,-0.0,-0.027,-0.016,-0.008,0.001,-1.596,0.009,0.254,135.99,97.2,40.533882,-3.436174,649.6,6,5,270.0,0.352
137.35,1,0.058,-0.025,0.02,0.027,-0.009,0.0,-1.595,0.006,0.253,135.99,97.2,40.533882,-3.436174,649.6,6,5,270.0,0.352
137.45,1,0.05,-0.019,0.003,0.032,-0.014,0.007,-1.594,0.005,0.251,135.99,97.2,40.533882,-3.436174,649.6,6,5,270.0,0.352
137.55,1,0.012,-0.01,-0.008,0.028,-0.015,-0.001,-1.593,0.006,0.25,135.99,97.2,40.533882,-3.436174,649.6,6,5,270.0,0.352
137.65,1,-0.045,-0.052,0.003,0.011,-0.024,-0.0,-1.596,0.005,0.248,135.99,97.2,40.533882,-3.436174,649.6,6,5,270.0,0.352
137.75,1,-0.141,0.001,0.019,-0.081,-0.026,0.006,-1.597,0.005,0.247,135.99,97.2,40.533882,-3.436174,649.6,6,5,270.0,0.352
137.85,1,0.096,-0.008,0.014,-0.036,-0.009,0.015,-1.601,0.003,0.245,137.0,97.1,40.533875,-3.436505,650.9,6,5,270.0,0.352
137.95,1,0.037,0.001,-0.008,0.048,-0.007,0.007,-1.599,-0.003,0.243,137.0,97.1,40.533875,-3.436505,650.9,6,5,270.0,0.352
138.06,1,0.026,-0.026,0.003,0.025,-0.007,-0.001,-1.597,-0.006,0.242,137.0,97.1,40.533875,-3.436505,650.9,6,5,270.0,0.352
138.15,1,0.031,-0.04,0.006,0.037,-0.033,0.006,-1.597,-0.006,0.241,137.0,97.1,40.533875,-3.436505,650.9,6,5,270.0,0.352
138.25,1,-0.027,-0.008,0.002,0.006,-0.018,-0.001,-1.598,-0.007,0.239,137.0,97.1,40.533875,-3.436505,650.9,6,5,270.0,0.352
138.35,1,0.005,-0.042,0.005,-0.013,-0.03,0.007,-1.598,-0.008,0.237,137.0,97.1,40.533875,-3.436505,650.9,6,5,270.0,0.352
138.47,1,-0.025,-0.033,-0.018,-0.005,-0.029,-0.004,-1.597,-0.005,0.236,137.0,97.1,40.533875,-3.436505,650.9,6,5,270.0,0.352
138.55,1,-0.155,-0.016,0.011,-0.066,-0.029,-0.006,-1.598,-0.005,0.234,137.0,97.1,40.533875,-3.436505,650.9,6,5,270.0,0.352
138.66,1,0.094,-0.027,0.025,-0.032,-0.026,0.016,-1.598,-0.004,0.232,137.0,97.1,40.533875,-3.436505,650.9,6,5,270.0,0.352
138.76,1,-0.015,-0.039,0.021,0.024,-0.023,0.016,-1.598,-0.004,0.231,137.0,97.1,40.533875,-3.436505,650.9,6,5,270.0,0.352
138.85,1,0.012,-0.048,-0.011,-0.02,-0.043,0.009,-1.598,-0.002,0.23,138.0,95.4,40.533882,-3.436825,652.2,6,5,270.4,0.352
138.96,1,0.031,-0.056,0.019,0.018,-0.045,0.009,-1.6,-0.003,0.228,138.0,95.4,40.533882,-3.436825,652.2,6,5,270.4,0.352
139.05,1,-0.032,-0.037,0.005,-0.01,-0.046,0.009,-1.601,-0.001,0.227,138.0,95.4,40.533882,-3.436825,652.2,6,5,270.4,0.352
139.16,1,0.003,-0.029,-0.004,-0.009,-0.039,0.003,-1.604,0.002,0.227,138.0,95.4,40.533882,-3.436825,652.2,6,5,270.4,0.352
139.25,1,-0.023,-0.024,-0.012,0.008,-0.028,-0.004,-1.604,0.001,0.226,138.0,95.4,40.533882,-3.436825,652.2,6,5,270.4,0.352
139.35,1,-0.084,-0.048,-0.005,-0.051,-0.037,-0.007,-1.604,0.002,0.226,138.0,95.4,40.533882,-3.436825,652.2,6,5,270.4,0.352
139.45,1,0.057,-0.049,0.012,-0.011,-0.049,0.004,-1.605,0.003,0.225,138.0,95.4,40.533882,-3.436825,652.2,6,5,270.4,0.352
139.55,1,-0.054,-0.013,-0.014,-0.006,-0.03,-0.005,-1.607,0.002,0.224,138.0,95.4,40.533882,-3.436825,652.2,6,5,270.4,0.352
139.65,1,-0.111,-0.026,0.003,-0.061,-0.028,-0.002,-1.607,0.001,0.222,138.0,95.4,40.533882,-3.436825,652.2,6,5,270.4,0.352
139.76,1,0.111,-0.031,0.014,-0.004,-0.025,0.009,-1.609,-0.001,0.221,138.0,95.4,40.533882,-3.436825,652.2,6,5,270.4,0.352
139.85,1,-0.038,0.001,-0.007,0.028,-0.018,0.0,-1.609,-0.001,0.22,138.99,97.1,40.533878,-3.437145,653.1,6,5,270.4,0.352
139.95,1,0.018,-0.04,-0.003,-0.021,-0.022,-0.007,-1.608,-0.001,0.219,138.99,97.1,40.533878,-3.437145,653.1,6,5,270.4,0.352
140.05,1,0.095,-0.049,0.02,0.043,-0.038,0.009,-1.608,-0.001,0.218,138.99,97.1,40.533878,-3.437145,653.1,6,5,270.4,0.352
140.15,1,-0.074,-0.02,-0.039,-0.003,-0.036,-0.008,-1.607,-0.002,0.217,138.99,97.1,40.533878,-3.437145,653.1,6,5,270.4,0.352
140.25,1,0.078,-0.029,0.008,0.014,-0.025,-0.01,-1.608,-0.003,0.215,138.99,97.1,40.533878,-3.437145,653.1,6,5,270.4,0.352
140.36,1,-0.154,-0.032,-0.021,-0.02,-0.029,-0.011,-1.608,-0.004,0.214,138.99,97.1,40.533878,-3.437145,653.1,6,5,270.4,0.352
140.45,1,-0.009,-0.034,-0.001,-0.069,-0.033,-0.008,-1.607,-0.003,0.213,138.99,97.1,40.533878,-3.437145,653.1,6,5,270.4,0.352
140.55,1,0.05,-0.036,0.013,0.022,-0.032,0.005,-1.607,-0.003,0.212,138.99,97.1,40.533878,-3.437145,653.1,6,5,270.4,0.352
140.66,1,-0.043,-0.017,-0.01,-0.002,-0.03,-0.001,-1.607,-0.002,0.211,138.99,97.1,40.533878,-3.437145,653.1,6,5,270.4,0.352
140.75,1,-0.016,-0.019,0.012,-0.024,-0.021,0.004,-1.605,0.003,0.21,138.99,97.1,40.533878,-3.437145,653.1,6,5,270.4,0.352
140.85,1,0.082,-0.015,-0.013,0.017,-0.019,-0.005,-1.604,0.007,0.209,140.0,97.0,40.533875,-3.437456,654.4,6,5,269.6,0.703
140.95,1,0.065,-0.02,-0.009,0.041,-0.014,-0.006,-1.607,0.006,0.208,140.0,97.0,40.533875,-3.437456,654.4,6,5,269.6,0.703
141.16,1,-0.053,-0.019,-0.03,-0.029,-0.023,-0.012,-1.607,0.007,0.206,140.0,97.0,40.533875,-3.437456,654.4,6,5,269.6,0.703
141.25,1,0.113,-0.008,-0.007,0.047,-0.014,-0.014,-1.608,0.006,0.205,140.0,97.0,40.533875,-3.437456,654.4,6,5,269.6,0.703
141.35,1,-0.093,-0.023,-0.006,0.004,-0.016,-0.011,-1.607,0.008,0.204,140.0,97.0,40.533875,-3.437456,654.4,6,5,269.6,0.703
141.45,1,-0.021,-0.032,-0.017,-0.047,-0.028,-0.01,-1.607,0.008,0.203,140.0,97.0,40.533875,-3.437456,654.4,6,5,269.6,0.703
141.55,1,0.042,-0.001,0.004,0.014,-0.017,-0.01,-1.606,0.006,0.202,140.0,97.0,40.533875,-3.437456,654.4,6,5,269.6,0.703
141.66,1,-0.058,-0.003,-0.02,-0.015,-0.003,-0.011,-1.605,0.008,0.201,140.0,97.0,40.533875,-3.437456,654.4,6,5,269.6,0.703
141.76,1,0.056,-0.044,0.03,-0.011,-0.022,0.004,-1.604,0.006,0.2,140.0,97.0,40.533875,-3.437456,654.4,6,5,269.6,0.703
141.87,1,-0.016,-0.024,0.013,0.016,-0.028,0.012,-1.603,0.006,0.199,140.0,97.0,40.533875,-3.437456,654.4,6,5,269.6,0.703
141.96,1,-0.066,-0.002,-0.028,-0.037,-0.018,-0.0,-1.599,0.006,0.198,141.0,96.7,40.533878,-3.437778,655.7,6,5,270.0,0.352
142.06,1,0.005,-0.028,0.001,-0.013,-0.019,-0.01,-1.6,0.004,0.197,141.0,96.7,40.533878,-3.437778,655.7,6,5,270.0,0.352
142.16,1,-0.033,0.001,0.015,-0.023,-0.009,0.007,-1.6,0.007,0.196,141.0,96.7,40.533878,-3.437778,655.7,6,5,270.0,0.352
142.26,1,0.013,-0.001,-0.008,-0.023,-0.004,0.002,-1.597,0.01,0.196,141.0,96.7,40.533878,-3.437778,655.7,6,5,270.0,0.352
142.36,1,-0.005,-0.015,-0.014,0.01,-0.009,-0.01,-1.594,0.013,0.195,141.0,96.7,40.533878,-3.437778,655.7,6,5,270.0,0.352
142.47,1,-0.018,-0.032,0.033,-0.003,-0.017,0.01,-1.594,0.012,0.194,141.0,96.7,40.533878,-3.437778,655.7,6,5,270.0,0.352
142.57,1,0.008,-0.027,0.003,-0.008,-0.029,0.017,-1.594,0.009,0.193,141.0,96.7,40.533878,-3.437778,655.7,6,5,270.0,0.352
142.66,1,0.034,0.024,-0.001,0.023,-0.005,0.002,-1.595,0.006,0.192,141.0,96.7,40.533878,-3.437778,655.7,6,5,270.0,0.352
142.76,1,-0.009,-0.015,-0.011,-0.005,0.0,-0.004,-1.593,0.006,0.191,141.0,96.7,40.533878,-3.437778,655.7,6,5,270.0,0.352
142.86,1,0.011,-0.027,0.023,0.009,-0.018,0.004,-1.594,0.004,0.19,141.0,96.7,40.533878,-3.437778,655.7,6,5,270.0,0.352
142.96,1,-0.031,-0.005,-0.006,-0.003,-0.014,0.006,-1.595,0.005,0.189,142.0,96.6,40.533875,-3.438094,657.2,6,5,269.6,0.352
