Timestamp_Accel,SystemActivated,accelerometerXAxis,accelerometerYAxis,accelerometerZAxis,AccelX_KF,AccelY_KF,AccelZ_KF,gyroscopeXAxis,gyroscopeYAxis,gyroscopeZAxis,Timestamp_GPS,Speed,latitude,longitude,Altitude,VerticalAccuracy,HorizontalAccuracy,Course,Difcourse
7.74,1,-0.039,0.025,-0.016,-0.004,0.033,-0.024,-1.615,0.006,0.202,7.72,71.6,40.584427,-3.555458,605.9,3,5,88.2,0.352
7.84,1,-0.012,0.048,-0.016,-0.023,0.028,-0.015,-1.615,0.003,0.201,7.72,71.6,40.584427,-3.555458,605.9,3,5,88.2,0.352
7.94,1,0.016,0.036,-0.011,-0.005,0.04,-0.013,-1.612,0.003,0.2,7.72,71.6,40.584427,-3.555458,605.9,3,5,88.2,0.352
8.04,1,0.047,0.029,0.011,0.031,0.037,-0.004,-1.611,0.005,0.199,7.72,71.6,40.584427,-3.555458,605.9,3,5,88.2,0.352
8.14,1,0.027,0.044,-0.004,0.036,0.043,0.0,-1.61,0.001,0.198,7.72,71.6,40.584427,-3.555458,605.9,3,5,88.2,0.352
8.24,1,0.039,0.051,-0.0,0.033,0.046,-0.001,-1.611,-0.004,0.196,7.72,71.6,40.584427,-3.555458,605.9,3,5,88.2,0.352
8.35,1,-0.088,0.042,-0.013,-0.016,0.041,-0.003,-1.613,-0.005,0.195,7.72,71.6,40.584427,-3.555458,605.9,3,5,88.2,0.352
8.44,1,-0.066,0.035,-0.01,-0.051,0.037,-0.014,-1.614,-0.004,0.193,7.72,71.6,40.584427,-3.555458,605.9,3,5,88.2,0.352
8.54,1,-0.008,0.032,0.016,-0.044,0.038,0.001,-1.616,-0.004,0.191,7.72,71.6,40.584427,-3.555458,605.9,3,5,88.2,0.352
8.64,1,0.095,0.06,0.009,0.014,0.044,0.007,-1.613,-0.003,0.189,7.72,71.6,40.584427,-3.555458,605.9,3,5,88.2,0.352
8.74,1,0.076,-0.01,0.001,0.071,0.025,0.007,-1.611,-0.001,0.186,8.75,73.0,40.584427,-3.555207,606.2,3,5,88.6,0.352
8.84,1,0.002,0.042,-0.024,0.043,0.029,-0.007,-1.607,-0.007,0.182,8.75,73.0,40.584427,-3.555207,606.2,3,5,88.6,0.352
8.94,1,-0.08,0.096,-0.018,-0.017,0.055,-0.018,-1.606,-0.012,0.179,8.75,73.0,40.584427,-3.555207,606.2,3,5,88.6,0.352
9.05,1,-0.086,0.14,0.004,-0.064,0.108,-0.005,-1.606,-0.015,0.174,8.75,73.0,40.584427,-3.555207,606.2,3,5,88.6,0.352
9.16,1,-0.013,0.092,0.001,-0.048,0.107,-0.005,-1.605,-0.017,0.17,8.75,73.0,40.584427,-3.555207,606.2,3,5,88.6,0.352
9.26,1,0.042,0.065,-0.012,0.001,0.082,-0.003,-1.604,-0.013,0.166,8.75,73.0,40.584427,-3.555207,606.2,3,5,88.6,0.352
9.34,1,0.063,0.061,-0.003,0.037,0.064,-0.006,-1.604,-0.01,0.161,8.75,73.0,40.584427,-3.555207,606.2,3,5,88.6,0.352
9.44,1,-0.014,0.019,0.011,0.019,0.047,0.004,-1.605,-0.01,0.157,8.75,73.0,40.584427,-3.555207,606.2,3,5,88.6,0.352
9.55,1,-0.033,0.05,0.027,-0.014,0.04,0.009,-1.606,-0.014,0.152,8.75,73.0,40.584427,-3.555207,606.2,3,5,88.6,0.352
9.64,1,0.011,0.028,-0.022,-0.0,0.04,0.005,-1.609,-0.019,0.148,8.75,73.0,40.584427,-3.555207,606.2,3,5,88.6,0.352
9.75,1,-0.02,0.047,0.004,-0.007,0.049,-0.002,-1.61,-0.021,0.144,9.8,73.3,40.584427,-3.554963,606.7,3,5,90.4,2.109
9.85,1,-0.005,0.023,0.004,-0.014,0.032,0.005,-1.609,-0.019,0.14,9.8,73.3,40.584427,-3.554963,606.7,3,5,90.4,2.109
9.95,1,0.037,0.01,0.015,0.008,0.017,0.002,-1.61,-0.023,0.136,9.8,73.3,40.584427,-3.554963,606.7,3,5,90.4,2.109
10.06,1,0.009,-0.059,-0.007,0.02,-0.007,0.006,-1.612,-0.024,0.133,9.8,73.3,40.584427,-3.554963,606.7,3,5,90.4,2.109
10.15,1,0.075,0.069,-0.015,0.032,-0.006,-0.012,-1.612,-0.025,0.131,9.8,73.3,40.584427,-3.554963,606.7,3,5,90.4,2.109
10.25,1,0.004,-0.057,0.007,0.034,-0.005,0.0,-1.611,-0.028,0.128,9.8,73.3,40.584427,-3.554963,606.7,3,5,90.4,2.109
10.35,1,-0.103,0.018,-0.066,-0.018,0.005,-0.026,-1.611,-0.031,0.126,9.8,73.3,40.584427,-3.554963,606.7,3,5,90.4,2.109
10.45,1,-0.13,0.026,-0.017,-0.086,0.015,-0.034,-1.617,-0.031,0.125,9.8,73.3,40.584427,-3.554963,606.7,3,5,90.4,2.109
10.55,1,-0.107,0.104,0.006,-0.11,0.049,-0.01,-1.621,-0.029,0.123,9.8,73.3,40.584427,-3.554963,606.7,3,5,90.4,2.109
10.66,1,0.051,-0.024,0.03,-0.046,0.028,0.007,-1.622,-0.024,0.12,9.8,73.3,40.584427,-3.554963,606.7,3,5,90.4,2.109
10.76,1,0.078,-0.039,-0.001,0.023,-0.004,0.012,-1.62,-0.02,0.117,10.76,73.3,40.584427,-3.554963,606.7,3,5,90.4,2.109
10.85,1,0.127,0.024,0.02,0.084,0.002,0.011,-1.619,-0.018,0.114,10.76,73.3,40.584427,-3.554963,606.7,3,5,90.4,2.109
10.96,1,0.051,0.059,-0.058,0.083,0.031,-0.01,-1.616,-0.019,0.111,10.76,73.3,40.584427,-3.554963,606.7,3,5,90.4,2.109
11.05,1,-0.086,-0.02,-0.033,0.016,0.013,-0.039,-1.617,-0.018,0.107,10.76,73.3,40.584427,-3.554963,606.7,3,5,90.4,2.109
11.15,1,-0.054,0.043,-0.007,-0.052,0.013,-0.017,-1.616,-0.016,0.104,10.76,73.3,40.584427,-3.554963,606.7,3,5,90.4,2.109
11.25,1,0.003,0.04,-0.016,-0.02,0.033,-0.011,-1.613,-0.017,0.101,10.76,73.3,40.584427,-3.554963,606.7,3,5,90.4,2.109
11.36,1,-0.032,0.005,-0.013,-0.021,0.023,-0.019,-1.606,-0.026,0.097,10.76,73.3,40.584427,-3.554963,606.7,3,5,90.4,2.109
11.45,1,-0.018,0.054,0.024,-0.028,0.033,-0.005,-1.604,-0.031,0.093,10.76,73.3,40.584427,-3.554963,606.7,3,5,90.4,2.109
11.55,1,0.052,0.055,0.024,0.015,0.047,0.015,-1.605,-0.032,0.089,10.76,73.3,40.584427,-3.554963,606.7,3,5,90.4,2.109
11.66,1,-0.067,-0.006,0.007,-0.019,0.031,0.016,-1.605,-0.033,0.085,10.76,73.3,40.584427,-3.554963,606.7,3,5,90.4,2.109
11.75,1,0.032,0.024,0.028,-0.008,0.018,0.018,-1.605,-0.033,0.082,11.76,75.9,40.584415,-3.554468,607.3,3,5,93.5,3.164
11.85,1,-0.029,0.005,0.001,-0.001,0.011,0.012,-1.604,-0.036,0.079,11.76,75.9,40.584415,-3.554468,607.3,3,5,93.5,3.164
11.96,1,-0.0,-0.012,-0.0,-0.011,-0.0,0.007,-1.604,-0.037,0.075,11.76,75.9,40.584415,-3.554468,607.3,3,5,93.5,3.164
12.05,1,-0.003,-0.002,-0.002,0.004,0.001,0.003,-1.602,-0.036,0.072,11.76,75.9,40.584415,-3.554468,607.3,3,5,93.5,3.164
12.16,1,-0.037,0.011,0.017,-0.032,-0.003,0.002,-1.602,-0.035,0.068,11.76,75.9,40.584415,-3.554468,607.3,3,5,93.5,3.164
12.25,1,0.01,0.034,-0.001,0.0,0.02,0.009,-1.606,-0.035,0.065,11.76,75.9,40.584415,-3.554468,607.3,3,5,93.5,3.164
12.35,1,-0.0,0.01,-0.009,-0.007,0.018,-0.004,-1.608,-0.035,0.062,11.76,75.9,40.584415,-3.554468,607.3,3,5,93.5,3.164
12.46,1,-0.032,0.019,0.007,-0.006,0.018,0.003,-1.609,-0.035,0.059,11.76,75.9,40.584415,-3.554468,607.3,3,5,93.5,3.164
12.55,1,0.07,0.033,0.0,0.012,0.02,0.003,-1.61,-0.039,0.056,11.76,75.9,40.584415,-3.554468,607.3,3,5,93.5,3.164
12.65,1,0.052,0.014,0.021,0.025,0.017,0.004,-1.61,-0.042,0.053,11.76,75.9,40.584415,-3.554468,607.3,3,5,93.5,3.164
12.75,1,-0.058,-0.031,-0.002,0.019,0.01,0.017,-1.61,-0.04,0.05,12.73,76.3,40.584412,-3.554202,607.9,3,5,96.3,3.867
12.86,1,-0.035,-0.014,-0.001,-0.031,-0.017,-0.002,-1.609,-0.048,0.047,12.73,76.3,40.584412,-3.554202,607.9,3,5,96.3,3.867
12.96,1,0.086,-0.002,0.003,0.022,-0.007,0.004,-1.609,-0.049,0.044,12.73,76.3,40.584412,-3.554202,607.9,3,5,96.3,3.867
13.06,1,-0.053,-0.017,-0.0,-0.003,-0.007,-0.002,-1.608,-0.047,0.041,12.73,76.3,40.584412,-3.554202,607.9,3,5,96.3,3.867
13.17,1,-0.046,-0.034,-0.002,-0.028,-0.025,-0.001,-1.608,-0.048,0.038,12.73,76.3,40.584412,-3.554202,607.9,3,5,96.3,3.867
13.26,1,-0.056,-0.029,-0.019,-0.037,-0.018,-0.01,-1.608,-0.048,0.035,12.73,76.3,40.584412,-3.554202,607.9,3,5,96.3,3.867
13.37,1,-0.003,0.049,-0.005,-0.034,0.005,-0.008,-1.609,-0.048,0.032,12.73,76.3,40.584412,-3.554202,607.9,3,5,96.3,3.867
13.47,1,0.038,-0.034,0.02,0.007,-0.003,0.007,-1.607,-0.045,0.029,12.73,76.3,40.584412,-3.554202,607.9,3,5,96.3,3.867
13.56,1,-0.027,-0.008,-0.015,-0.001,-0.013,-0.002,-1.607,-0.041,0.027,12.73,76.3,40.584412,-3.554202,607.9,3,5,96.3,3.867
13.66,1,-0.122,-0.044,0.016,-0.056,-0.034,0.006,-1.608,-0.038,0.025,12.73,76.3,40.584412,-3.554202,607.9,3,5,96.3,3.867
13.76,1,0.004,-0.047,0.037,-0.037,-0.041,0.019,-1.611,-0.038,0.023,13.78,78.2,40.584385,-3.553946,608.2,3,5,97.7,4.219
13.86,1,-0.011,0.008,-0.007,-0.035,-0.036,0.018,-1.611,-0.038,0.022,13.78,78.2,40.584385,-3.553946,608.2,3,5,97.7,4.219
13.96,1,-0.008,-0.014,0.015,-0.014,-0.007,0.008,-1.61,-0.039,0.02,13.78,78.2,40.584385,-3.553946,608.2,3,5,97.7,4.219
14.06,1,-0.051,-0.137,-0.036,-0.029,-0.07,-0.011,-1.609,-0.039,0.018,13.78,78.2,40.584385,-3.553946,608.2,3,5,97.7,4.219
14.16,1,0.146,0.037,-0.012,0.052,-0.021,-0.016,-1.61,-0.041,0.017,13.78,78.2,40.584385,-3.553946,608.2,3,5,97.7,4.219
14.26,1,0.038,-0.032,0.014,0.052,-0.019,-0.007,-1.612,-0.041,0.016,13.78,78.2,40.584385,-3.553946,608.2,3,5,97.7,4.219
14.37,1,-0.082,-0.053,-0.015,-0.006,-0.03,-0.0,-1.611,-0.041,0.015,13.78,78.2,40.584385,-3.553946,608.2,3,5,97.7,4.219
14.46,1,0.064,-0.073,0.014,0.002,-0.063,-0.002,-1.614,-0.034,0.014,13.78,78.2,40.584385,-3.553946,608.2,3,5,97.7,4.219
14.57,1,-0.003,-0.078,-0.011,0.025,-0.069,0.0,-1.62,-0.026,0.013,13.78,78.2,40.584385,-3.553946,608.2,3,5,97.7,4.219
14.66,1,-0.038,-0.055,-0.016,-0.012,-0.065,-0.015,-1.621,-0.025,0.012,13.78,78.2,40.584385,-3.553946,608.2,3,5,97.7,4.219
14.76,1,-0.059,-0.075,-0.033,-0.028,-0.06,-0.016,-1.62,-0.023,0.012,14.73,78.4,40.584366,-3.553706,608.5,3,5,98.1,1.758
14.86,1,-0.097,-0.068,-0.005,-0.062,-0.074,-0.021,-1.623,-0.024,0.012,14.73,78.4,40.584366,-3.553706,608.5,3,5,98.1,1.758
14.97,1,-0.046,-0.058,0.011,-0.081,-0.068,0.008,-1.624,-0.028,0.012,14.73,78.4,40.584366,-3.553706,608.5,3,5,98.1,1.758
15.06,1,-0.012,-0.085,-0.03,-0.02,-0.051,-0.012,-1.623,-0.03,0.011,14.73,78.4,40.584366,-3.553706,608.5,3,5,98.1,1.758
15.16,1,0.01,-0.038,-0.02,-0.028,-0.072,-0.018,-1.623,-0.03,0.012,14.73,78.4,40.584366,-3.553706,608.5,3,5,98.1,1.758
15.26,1,0.051,-0.068,0.009,0.029,-0.054,-0.009,-1.624,-0.029,0.014,14.73,78.4,40.584366,-3.553706,608.5,3,5,98.1,1.758
15.36,1,-0.003,-0.069,-0.025,0.013,-0.076,-0.01,-1.62,-0.019,0.016,14.73,78.4,40.584366,-3.553706,608.5,3,5,98.1,1.758
15.46,1,-0.012,-0.065,0.001,-0.003,-0.067,-0.013,-1.619,-0.006,0.017,14.73,78.4,40.584366,-3.553706,608.5,3,5,98.1,1.758
15.56,1,0.008,-0.056,-0.005,0.003,-0.063,-0.003,-1.622,0.002,0.019,14.73,78.4,40.584366,-3.553706,608.5,3,5,98.1,1.758
15.67,1,0.011,-0.013,-0.018,0.005,-0.04,-0.014,-1.617,0.009,0.019,14.73,78.4,40.584366,-3.553706,608.5,3,5,98.1,1.758
15.78,1,-0.018,-0.013,0.009,-0.004,-0.024,-0.003,-1.617,0.014,0.019,15.77,80.1,40.584343,-3.553456,608.7,3,5,98.1,1.758
15.86,1,-0.007,0.017,-0.03,-0.008,-0.002,-0.012,-1.616,0.019,0.019,15.77,80.1,40.584343,-3.553456,608.7,3,5,98.1,1.758
15.96,1,-0.026,0.007,-0.019,-0.012,-0.004,-0.02,-1.613,0.016,0.019,15.77,80.1,40.584343,-3.553456,608.7,3,5,98.1,1.758
16.07,1,-0.032,-0.006,0.008,-0.024,0.008,-0.01,-1.611,0.011,0.019,15.77,80.1,40.584343,-3.553456,608.7,3,5,98.1,1.758
16.17,1,0.001,-0.008,-0.001,-0.013,-0.002,0.001,-1.612,0.014,0.019,15.77,80.1,40.584343,-3.553456,608.7,3,5,98.1,1.758
16.27,1,-0.046,-0.023,-0.005,-0.027,-0.01,-0.008,-1.611,0.013,0.018,15.77,80.1,40.584343,-3.553456,608.7,3,5,98.1,1.758
16.37,1,0.02,-0.007,-0.001,-0.011,-0.014,0.001,-1.611,0.013,0.019,15.77,80.1,40.584343,-3.553456,608.7,3,5,98.1,1.758
16.47,1,-0.005,-0.015,-0.011,-0.006,-0.016,0.001,-1.61,0.012,0.018,15.77,80.1,40.584343,-3.553456,608.7,3,5,98.1,1.758
16.57,1,0.097,0.008,0.014,0.03,0.004,-0.002,-1.611,0.011,0.018,15.77,80.1,40.584343,-3.553456,608.7,3,5,98.1,1.758
16.67,1,-0.034,-0.006,-0.005,0.025,0.0,-0.001,-1.61,0.01,0.017,15.77,80.1,40.584343,-3.553456,608.7,3,5,98.1,1.758
16.77,1,0.035,-0.025,0.005,0.012,-0.018,-0.003,-1.609,0.008,0.016,16.78,80.9,40.584316,-3.553197,609.1,4,5,98.1,0.0
16.99,1,-0.084,0.001,-0.014,-0.038,-0.007,-0.019,-1.609,0.006,0.014,16.78,80.9,40.584316,-3.553197,609.1,4,5,98.1,0.0
17.08,1,-0.084,0.018,0.004,-0.07,0.003,-0.005,-1.61,0.007,0.013,16.78,80.9,40.584316,-3.553197,609.1,4,5,98.1,0.0
17.17,1,-0.093,0.012,-0.018,-0.091,0.0,-0.01,-1.611,0.014,0.012,16.78,80.9,40.584316,-3.553197,609.1,4,5,98.1,0.0
17.27,1,0.03,-0.012,0.016,-0.04,-0.008,0.004,-1.61,0.015,0.012,16.78,80.9,40.584316,-3.553197,609.1,4,5,98.1,0.0
17.37,1,-0.003,-0.034,0.009,-0.02,-0.006,-0.002,-1.61,0.014,0.011,16.78,80.9,40.584316,-3.553197,609.1,4,5,98.1,0.0
17.47,1,0.016,0.008,-0.001,0.024,-0.001,0.01,-1.61,0.012,0.01,16.78,80.9,40.584316,-3.553197,609.1,4,5,98.1,0.0
17.57,1,0.073,0.014,0.008,0.042,0.007,0.004,-1.61,0.009,0.01,16.78,80.9,40.584316,-3.553197,609.1,4,5,98.1,0.0
17.67,1,-0.03,-0.002,-0.002,0.011,0.001,0.004,-1.608,0.005,0.01,16.78,80.9,40.584316,-3.553197,609.1,4,5,98.1,0.0
17.77,1,0.016,0.025,-0.013,0.002,0.009,-0.006,-1.606,0.005,0.009,16.78,80.9,40.584316,-3.553197,609.1,4,5,98.1,0.0
17.87,1,0.016,0.045,-0.047,0.02,0.03,-0.019,-1.6,-0.001,0.007,17.72,82.5,40.584286,-3.552928,609.8,4,5,98.8,0.703
17.98,1,0.002,0.041,-0.041,-0.0,0.032,-0.037,-1.593,-0.009,0.005,17.72,82.5,40.584286,-3.552928,609.8,4,5,98.8,0.703
18.07,1,-0.082,0.01,-0.063,-0.027,0.027,-0.053,-1.591,-0.016,0.002,17.72,82.5,40.584286,-3.552928,609.8,4,5,98.8,0.703
18.18,1,-0.055,0.044,-0.043,-0.056,0.035,-0.049,-1.592,-0.018,-0.002,17.72,82.5,40.584286,-3.552928,609.8,4,5,98.8,0.703
18.28,1,-0.037,0.099,-0.045,-0.04,0.056,-0.049,-1.593,-0.02,-0.006,17.72,82.5,40.584286,-3.552928,609.8,4,5,98.8,0.703
18.38,1,-0.011,0.073,-0.043,-0.033,0.081,-0.041,-1.593,-0.019,-0.009,17.72,82.5,40.584286,-3.552928,609.8,4,5,98.8,0.703
18.47,1,0.014,-0.002,-0.042,-0.01,0.048,-0.043,-1.594,-0.019,-0.013,17.72,82.5,40.584286,-3.552928,609.8,4,5,98.8,0.703
18.58,1,0.074,0.086,-0.048,0.035,0.047,-0.046,-1.594,-0.019,-0.016,17.72,82.5,40.584286,-3.552928,609.8,4,5,98.8,0.703
18.67,1,0.038,0.079,-0.047,0.048,0.071,-0.045,-1.593,-0.019,-0.02,17.72,82.5,40.584286,-3.552928,609.8,4,5,98.8,0.703
18.77,1,0.024,0.019,-0.026,0.03,0.048,-0.041,-1.587,-0.025,-0.024,17.72,82.5,40.584286,-3.552928,609.8,4,5,98.8,0.703
18.87,1,0.016,0.044,0.004,0.026,0.039,-0.016,-1.584,-0.031,-0.027,18.73,81.7,40.584263,-3.552682,610.0,4,5,100.2,0.703
18.97,1,0.003,0.022,-0.044,0.014,0.038,-0.02,-1.582,-0.032,-0.03,18.73,81.7,40.584263,-3.552682,610.0,4,5,100.2,0.703
19.08,1,-0.042,0.019,-0.029,-0.006,0.035,-0.031,-1.584,-0.031,-0.033,18.73,81.7,40.584263,-3.552682,610.0,4,5,100.2,0.703
19.19,1,-0.115,-0.019,-0.003,-0.073,-0.001,-0.02,-1.586,-0.03,-0.035,18.73,81.7,40.584263,-3.552682,610.0,4,5,100.2,0.703
19.28,1,-0.067,-0.019,0.005,-0.072,-0.01,-0.005,-1.588,-0.032,-0.037,18.73,81.7,40.584263,-3.552682,610.0,4,5,100.2,0.703
19.39,1,-0.105,0.002,-0.029,-0.088,-0.004,-0.016,-1.589,-0.03,-0.039,18.73,81.7,40.584263,-3.552682,610.0,4,5,100.2,0.703
19.49,1,0.076,0.021,0.003,-0.016,0.002,-0.005,-1.59,-0.027,-0.041,18.73,81.7,40.584263,-3.552682,610.0,4,5,100.2,0.703
19.58,1,-0.088,-0.049,-0.006,-0.035,-0.021,-0.01,-1.592,-0.027,-0.042,18.73,81.7,40.584263,-3.552682,610.0,4,5,100.2,0.703
19.68,1,0.006,0.016,0.002,-0.027,-0.006,0.002,-1.593,-0.032,-0.045,18.73,81.7,40.584263,-3.552682,610.0,4,5,100.2,0.703
19.78,1,0.022,-0.005,-0.004,0.001,-0.0,-0.006,-1.591,-0.04,-0.047,18.73,81.7,40.584263,-3.552682,610.0,4,5,100.2,0.703
19.88,1,-0.009,-0.007,0.006,0.003,-0.002,-0.001,-1.589,-0.039,-0.05,19.72,81.4,40.584217,-3.552416,610.2,4,5,102.3,2.109
19.98,1,0.047,0.023,0.014,0.013,0.002,0.006,-1.591,-0.039,-0.053,19.72,81.4,40.584217,-3.552416,610.2,4,5,102.3,2.109
20.08,1,0.019,0.029,-0.009,0.032,0.027,0.006,-1.591,-0.041,-0.056,19.72,81.4,40.584217,-3.552416,610.2,4,5,102.3,2.109
20.18,1,-0.018,0.015,-0.021,0.003,0.014,-0.011,-1.591,-0.044,-0.059,19.72,81.4,40.584217,-3.552416,610.2,4,5,102.3,2.109
20.28,1,-0.007,-0.011,-0.024,0.005,0.005,-0.014,-1.589,-0.045,-0.062,19.72,81.4,40.584217,-3.552416,610.2,4,5,102.3,2.109
20.39,1,-0.06,0.011,-0.003,-0.028,0.003,-0.013,-1.588,-0.044,-0.065,19.72,81.4,40.584217,-3.552416,610.2,4,5,102.3,2.109
20.48,1,-0.008,0.01,-0.009,-0.046,-0.005,-0.01,-1.589,-0.043,-0.068,19.72,81.4,40.584217,-3.552416,610.2,4,5,102.3,2.109
20.59,1,-0.004,0.009,0.016,-0.001,0.033,-0.003,-1.59,-0.042,-0.071,19.72,81.4,40.584217,-3.552416,610.2,4,5,102.3,2.109
20.69,1,0.038,0.02,-0.017,-0.0,0.0,0.002,-1.589,-0.041,-0.073,19.72,81.4,40.584217,-3.552416,610.2,4,5,102.3,2.109
20.78,1,0.04,-0.001,-0.004,0.038,0.013,-0.009,-1.589,-0.039,-0.075,19.72,81.4,40.584217,-3.552416,610.2,4,5,102.3,2.109
20.88,1,-0.011,-0.024,-0.016,0.011,-0.007,-0.012,-1.586,-0.037,-0.077,20.73,82.2,40.584167,-3.552156,610.0,4,5,103.4,3.164
20.98,1,-0.041,-0.039,-0.01,-0.027,-0.03,-0.011,-1.585,-0.039,-0.079,20.73,82.2,40.584167,-3.552156,610.0,4,5,103.4,3.164
21.08,1,-0.029,0.019,0.019,-0.016,-0.009,-0.005,-1.586,-0.036,-0.08,20.73,82.2,40.584167,-3.552156,610.0,4,5,103.4,3.164
21.18,1,-0.02,-0.038,-0.033,-0.02,-0.007,-0.004,-1.585,-0.041,-0.082,20.73,82.2,40.584167,-3.552156,610.0,4,5,103.4,3.164
21.28,1,-0.067,-0.027,0.002,-0.048,-0.024,-0.007,-1.585,-0.043,-0.084,20.73,82.2,40.584167,-3.552156,610.0,4,5,103.4,3.164
21.38,1,0.032,0.002,0.007,-0.017,-0.014,-0.001,-1.585,-0.041,-0.086,20.73,82.2,40.584167,-3.552156,610.0,4,5,103.4,3.164
21.48,1,0.007,-0.013,0.0,0.008,-0.01,0.002,-1.586,-0.04,-0.088,20.73,82.2,40.584167,-3.552156,610.0,4,5,103.4,3.164
21.59,1,0.01,-0.011,0.009,0.01,-0.012,0.003,-1.583,-0.039,-0.09,20.73,82.2,40.584167,-3.552156,610.0,4,5,103.4,3.164
21.68,1,-0.006,-0.018,-0.01,0.009,-0.014,0.001,-1.582,-0.036,-0.092,20.73,82.2,40.584167,-3.552156,610.0,4,5,103.4,3.164
21.79,1,-0.051,-0.027,-0.002,-0.027,-0.025,-0.004,-1.583,-0.036,-0.094,20.73,82.2,40.584167,-3.552156,610.0,4,5,103.4,3.164
21.89,1,-0.009,0.0,-0.013,-0.027,-0.017,-0.008,-1.579,-0.038,-0.096,21.72,82.6,40.584106,-3.551908,610.2,4,5,105.1,2.812
21.98,1,-0.006,0.014,-0.004,-0.004,0.008,-0.005,-1.578,-0.041,-0.099,21.72,82.6,40.584106,-3.551908,610.2,4,5,105.1,2.812
22.08,1,-0.049,0.021,-0.008,-0.032,0.006,-0.006,-1.578,-0.041,-0.102,21.72,82.6,40.584106,-3.551908,610.2,4,5,105.1,2.812
22.19,1,-0.007,0.029,0.029,-0.034,0.023,0.009,-1.582,-0.046,-0.106,21.72,82.6,40.584106,-3.551908,610.2,4,5,105.1,2.812
22.29,1,0.01,0.013,0.008,-0.005,0.017,0.009,-1.584,-0.047,-0.109,21.72,82.6,40.584106,-3.551908,610.2,4,5,105.1,2.812
22.39,1,-0.048,-0.02,-0.005,-0.009,0.003,0.006,-1.583,-0.049,-0.113,21.72,82.6,40.584106,-3.551908,610.2,4,5,105.1,2.812
22.49,1,-0.003,0.015,-0.004,-0.028,0.004,0.001,-1.583,-0.049,-0.116,21.72,82.6,40.584106,-3.551908,610.2,4,5,105.1,2.812
22.59,1,0.038,0.015,-0.024,0.016,0.015,-0.012,-1.583,-0.047,-0.118,21.72,82.6,40.584106,-3.551908,610.2,4,5,105.1,2.812
22.69,1,-0.051,-0.071,-0.003,-0.022,-0.021,-0.014,-1.581,-0.045,-0.12,21.72,82.6,40.584106,-3.551908,610.2,4,5,105.1,2.812
22.79,1,0.009,-0.034,0.001,-0.005,-0.042,-0.005,-1.581,-0.043,-0.121,21.72,82.6,40.584106,-3.551908,610.2,4,5,105.1,2.812
22.89,1,0.024,-0.027,0.005,0.013,-0.032,-0.002,-1.58,-0.039,-0.122,22.72,82.8,40.584053,-3.551652,610.4,4,5,106.9,3.516
23.0,1,-0.001,-0.018,0.006,0.011,-0.025,0.008,-1.581,-0.036,-0.123,22.72,82.8,40.584053,-3.551652,610.4,4,5,106.9,3.516
23.1,1,-0.029,-0.021,0.005,-0.006,-0.027,0.003,-1.582,-0.037,-0.125,22.72,82.8,40.584053,-3.551652,610.4,4,5,106.9,3.516
23.19,1,-0.021,-0.011,-0.003,-0.019,-0.013,0.002,-1.581,-0.037,-0.126,22.72,82.8,40.584053,-3.551652,610.4,4,5,106.9,3.516
23.29,1,-0.056,-0.013,0.015,-0.033,-0.016,0.005,-1.582,-0.035,-0.128,22.72,82.8,40.584053,-3.551652,610.4,4,5,106.9,3.516
23.39,1,0.004,-0.007,0.01,-0.023,-0.008,0.012,-1.582,-0.034,-0.13,22.72,82.8,40.584053,-3.551652,610.4,4,5,106.9,3.516
23.49,1,-0.005,0.033,0.024,-0.014,0.003,0.014,-1.583,-0.035,-0.132,22.72,82.8,40.584053,-3.551652,610.4,4,5,106.9,3.516
23.59,1,0.002,0.025,-0.014,-0.006,0.019,0.008,-1.584,-0.036,-0.134,22.72,82.8,40.584053,-3.551652,610.4,4,5,106.9,3.516
23.69,1,-0.019,-0.002,-0.029,-0.007,0.014,-0.012,-1.584,-0.037,-0.136,22.72,82.8,40.584053,-3.551652,610.4,4,5,106.9,3.516
23.79,1,-0.001,-0.016,-0.001,-0.007,0.001,-0.015,-1.585,-0.036,-0.139,22.72,82.8,40.584053,-3.551652,610.4,4,5,106.9,3.516
23.89,1,0.031,0.025,0.007,0.011,0.005,-0.0,-1.586,-0.038,-0.142,23.78,82.7,40.583996,-3.551404,610.2,6,5,108.3,3.164
24.0,1,0.012,0.022,-0.014,0.012,0.016,-0.005,-1.582,-0.039,-0.145,23.78,82.7,40.583996,-3.551404,610.2,6,5,108.3,3.164
24.09,1,-0.031,0.02,-0.012,-0.002,0.025,-0.012,-1.58,-0.041,-0.148,23.78,82.7,40.583996,-3.551404,610.2,6,5,108.3,3.164
24.2,1,-0.06,0.028,0.024,-0.035,0.022,0.003,-1.583,-0.042,-0.15,23.78,82.7,40.583996,-3.551404,610.2,6,5,108.3,3.164
24.29,1,-0.022,0.006,-0.003,-0.034,0.016,0.007,-1.582,-0.042,-0.153,23.78,82.7,40.583996,-3.551404,610.2,6,5,108.3,3.164
24.39,1,-0.004,-0.039,0.017,-0.022,-0.007,0.009,-1.582,-0.042,-0.154,23.78,82.7,40.583996,-3.551404,610.2,6,5,108.3,3.164
24.5,1,0.018,-0.011,0.042,-0.001,-0.017,0.026,-1.585,-0.04,-0.155,23.78,82.7,40.583996,-3.551404,610.2,6,5,108.3,3.164
24.59,1,-0.001,-0.008,-0.009,0.011,-0.022,0.011,-1.587,-0.04,-0.156,23.78,82.7,40.583996,-3.551404,610.2,6,5,108.3,3.164
24.69,1,-0.001,-0.047,-0.007,-0.001,-0.02,0.002,-1.588,-0.037,-0.156,23.78,82.7,40.583996,-3.551404,610.2,6,5,108.3,3.164
24.79,1,-0.005,-0.026,0.014,-0.005,-0.03,0.005,-1.588,-0.034,-0.157,23.78,82.7,40.583996,-3.551404,610.2,6,5,108.3,3.164
24.89,1,-0.019,-0.052,0.01,-0.01,-0.036,0.009,-1.589,-0.032,-0.157,24.72,82.8,40.583931,-3.551151,610.6,6,5,109.7,2.812
24.99,1,0.021,-0.03,-0.001,-0.003,-0.034,0.006,-1.588,-0.03,-0.158,24.72,82.8,40.583931,-3.551151,610.6,6,5,109.7,2.812
25.09,1,0.032,0.012,-0.022,0.019,-0.016,-0.011,-1.587,-0.029,-0.158,24.72,82.8,40.583931,-3.551151,610.6,6,5,109.7,2.812
25.2,1,-0.011,-0.034,0.011,0.011,-0.017,-0.001,-1.588,-0.026,-0.159,24.72,82.8,40.583931,-3.551151,610.6,6,5,109.7,2.812
25.3,1,-0.024,0.017,0.026,-0.012,-0.012,0.012,-1.591,-0.025,-0.16,24.72,82.8,40.583931,-3.551151,610.6,6,5,109.7,2.812
25.4,1,-0.063,-0.014,-0.005,-0.033,-0.001,0.008,-1.593,-0.026,-0.162,24.72,82.8,40.583931,-3.551151,610.6,6,5,109.7,2.812
25.51,1,-0.018,0.014,-0.003,-0.036,-0.005,-0.001,-1.592,-0.026,-0.163,24.72,82.8,40.583931,-3.551151,610.6,6,5,109.7,2.812
25.6,1,0.023,0.018,0.005,-0.006,0.013,0.001,-1.591,-0.026,-0.164,24.72,82.8,40.583931,-3.551151,610.6,6,5,109.7,2.812
25.7,1,0.002,0.027,-0.001,0.005,0.018,0.003,-1.59,-0.025,-0.165,24.72,82.8,40.583931,-3.551151,610.6,6,5,109.7,2.812
25.8,1,-0.035,0.003,-0.009,-0.015,0.018,-0.004,-1.591,-0.025,-0.167,24.72,82.8,40.583931,-3.551151,610.6,6,5,109.7,2.812
25.9,1,0.0,0.023,0.013,-0.011,0.014,0.001,-1.594,-0.026,-0.168,25.73,83.8,40.583847,-3.550904,610.9,6,5,111.1,2.812
26.0,1,-0.004,0.021,-0.014,-0.008,0.022,0.002,-1.594,-0.029,-0.17,25.73,83.8,40.583847,-3.550904,610.9,6,5,111.1,2.812
26.1,1,0.021,0.01,-0.019,0.008,0.017,-0.014,-1.594,-0.028,-0.171,25.73,83.8,40.583847,-3.550904,610.9,6,5,111.1,2.812
26.2,1,-0.032,-0.007,-0.014,-0.002,0.003,-0.015,-1.594,-0.03,-0.173,25.73,83.8,40.583847,-3.550904,610.9,6,5,111.1,2.812
26.3,1,-0.005,0.012,0.001,-0.013,0.008,-0.008,-1.594,-0.032,-0.174,25.73,83.8,40.583847,-3.550904,610.9,6,5,111.1,2.812
26.41,1,-0.004,0.015,-0.03,-0.007,0.013,-0.014,-1.594,-0.033,-0.176,25.73,83.8,40.583847,-3.550904,610.9,6,5,111.1,2.812
26.5,1,-0.036,-0.016,0.009,-0.014,0.006,-0.008,-1.596,-0.033,-0.177,25.73,83.8,40.583847,-3.550904,610.9,6,5,111.1,2.812
26.61,1,-0.022,-0.033,0.003,-0.029,-0.024,0.002,-1.598,-0.031,-0.177,25.73,83.8,40.583847,-3.550904,610.9,6,5,111.1,2.812
26.71,1,-0.013,-0.048,-0.014,-0.021,-0.029,-0.004,-1.598,-0.027,-0.177,25.73,83.8,40.583847,-3.550904,610.9,6,5,111.1,2.812
26.8,1,-0.004,-0.052,0.004,-0.01,-0.049,-0.005,-1.6,-0.025,-0.176,25.73,83.8,40.583847,-3.550904,610.9,6,5,111.1,2.812
26.9,1,-0.001,-0.038,-0.02,-0.006,-0.043,-0.009,-1.599,-0.022,-0.175,26.79,84.1,40.583775,-3.550654,611.3,6,5,112.1,2.461
27.0,1,-0.004,-0.019,-0.007,-0.004,-0.036,-0.008,-1.598,-0.021,-0.175,26.79,84.1,40.583775,-3.550654,611.3,6,5,112.1,2.461
27.1,1,-0.028,0.026,-0.013,-0.015,-0.009,-0.013,-1.596,-0.023,-0.177,26.79,84.1,40.583775,-3.550654,611.3,6,5,112.1,2.461
27.2,1,-0.023,0.032,0.008,-0.02,0.019,-0.004,-1.595,-0.027,-0.179,26.79,84.1,40.583775,-3.550654,611.3,6,5,112.1,2.461
27.3,1,0.022,0.043,-0.004,-0.003,0.034,0.002,-1.595,-0.032,-0.182,26.79,84.1,40.583775,-3.550654,611.3,6,5,112.1,2.461
27.4,1,-0.025,0.038,-0.013,-0.003,0.036,-0.006,-1.594,-0.036,-0.185,26.79,84.1,40.583775,-3.550654,611.3,6,5,112.1,2.461
27.5,1,-0.009,0.056,-0.008,-0.008,0.044,-0.011,-1.592,-0.039,-0.187,26.79,84.1,40.583775,-3.550654,611.3,6,5,112.1,2.461
27.61,1,-0.037,0.017,0.0,-0.021,0.034,-0.003,-1.592,-0.039,-0.189,26.79,84.1,40.583775,-3.550654,611.3,6,5,112.1,2.461
27.71,1,0.009,0.011,-0.005,-0.015,0.024,-0.005,-1.592,-0.039,-0.191,26.79,84.1,40.583775,-3.550654,611.3,6,5,112.1,2.461
27.8,1,-0.032,0.013,-0.012,-0.02,0.018,-0.007,-1.59,-0.038,-0.193,26.79,84.1,40.583775,-3.550654,611.3,6,5,112.1,2.461
27.91,1,-0.008,0.014,0.006,-0.018,0.011,-0.003,-1.591,-0.038,-0.195,27.72,84.5,40.583694,-3.550398,611.8,6,5,113.6,2.461
28.0,1,0.002,0.018,-0.005,0.0,0.009,-0.001,-1.591,-0.039,-0.196,27.72,84.5,40.583694,-3.550398,611.8,6,5,113.6,2.461
28.1,1,-0.047,-0.015,-0.009,-0.019,0.007,-0.006,-1.59,-0.039,-0.198,27.72,84.5,40.583694,-3.550398,611.8,6,5,113.6,2.461
28.2,1,0.011,0.009,0.02,-0.016,0.001,0.003,-1.59,-0.04,-0.2,27.72,84.5,40.583694,-3.550398,611.8,6,5,113.6,2.461
28.3,1,-0.003,0.019,-0.002,-0.004,0.011,0.004,-1.589,-0.041,-0.202,27.72,84.5,40.583694,-3.550398,611.8,6,5,113.6,2.461
28.41,1,-0.003,0.015,-0.001,-0.005,0.016,-0.0,-1.588,-0.041,-0.203,27.72,84.5,40.583694,-3.550398,611.8,6,5,113.6,2.461
28.51,1,0.002,0.009,0.01,-0.001,0.01,0.005,-1.589,-0.041,-0.205,27.72,84.5,40.583694,-3.550398,611.8,6,5,113.6,2.461
28.61,1,-0.003,-0.009,-0.016,-0.001,0.008,-0.001,-1.589,-0.042,-0.207,27.72,84.5,40.583694,-3.550398,611.8,6,5,113.6,2.461
28.71,1,-0.001,0.028,-0.011,-0.006,0.016,-0.016,-1.589,-0.039,-0.208,27.72,84.5,40.583694,-3.550398,611.8,6,5,113.6,2.461
28.81,1,-0.027,0.023,-0.005,-0.007,0.02,-0.005,-1.59,-0.038,-0.209,27.72,84.5,40.583694,-3.550398,611.8,6,5,113.6,2.461
28.91,1,-0.031,0.001,0.007,-0.026,0.004,-0.005,-1.591,-0.038,-0.211,28.73,84.5,40.583694,-3.550398,611.8,6,5,113.6,2.461
29.01,1,-0.004,-0.025,0.013,-0.016,-0.008,0.013,-1.591,-0.039,-0.212,28.73,84.5,40.583694,-3.550398,611.8,6,5,113.6,2.461
29.11,1,-0.003,-0.01,0.003,-0.008,-0.012,0.008,-1.591,-0.039,-0.212,28.73,84.5,40.583694,-3.550398,611.8,6,5,113.6,2.461
29.21,1,-0.004,-0.02,0.002,-0.006,-0.014,0.004,-1.59,-0.039,-0.213,28.73,84.5,40.583694,-3.550398,611.8,6,5,113.6,2.461
29.31,1,0.002,0.004,-0.001,-0.001,-0.007,0.0,-1.589,-0.038,-0.214,28.73,84.5,40.583694,-3.550398,611.8,6,5,113.6,2.461
29.41,1,-0.001,-0.001,0.016,-0.0,-0.006,0.005,-1.589,-0.04,-0.215,28.73,84.5,40.583694,-3.550398,611.8,6,5,113.6,2.461
29.51,1,-0.029,0.001,-0.006,-0.013,-0.004,0.007,-1.591,-0.039,-0.216,28.73,84.5,40.583694,-3.550398,611.8,6,5,113.6,2.461
29.61,1,-0.008,-0.031,-0.0,-0.015,-0.007,-0.0,-1.591,-0.039,-0.217,28.73,84.5,40.583694,-3.550398,611.8,6,5,113.6,2.461
29.71,1,0.009,-0.025,-0.006,-0.004,-0.019,-0.004,-1.589,-0.037,-0.218,28.73,84.5,40.583694,-3.550398,611.8,6,5,113.6,2.461
29.81,1,-0.012,0.007,0.007,-0.004,-0.012,-0.0,-1.589,-0.036,-0.218,28.73,84.5,40.583694,-3.550398,611.8,6,5,113.6,2.461
29.91,1,-0.003,-0.002,0.008,-0.009,-0.007,0.006,-1.59,-0.037,-0.219,29.73,85.4,40.583508,-3.549894,612.4,6,5,116.7,3.164
30.02,1,-0.028,-0.02,-0.003,-0.012,-0.011,0.004,-1.591,-0.039,-0.22,29.73,85.4,40.583508,-3.549894,612.4,6,5,116.7,3.164
30.11,1,-0.046,-0.007,-0.027,-0.03,-0.009,-0.01,-1.59,-0.04,-0.221,29.73,85.4,40.583508,-3.549894,612.4,6,5,116.7,3.164
30.22,1,-0.007,0.004,0.016,-0.027,-0.001,-0.007,-1.593,-0.045,-0.222,29.73,85.4,40.583508,-3.549894,612.4,6,5,116.7,3.164
30.31,1,-0.006,-0.017,0.01,-0.009,-0.007,0.007,-1.592,-0.045,-0.223,29.73,85.4,40.583508,-3.549894,612.4,6,5,116.7,3.164
30.41,1,0.002,0.003,-0.013,-0.008,-0.007,0.001,-1.59,-0.043,-0.223,29.73,85.4,40.583508,-3.549894,612.4,6,5,116.7,3.164
30.51,1,0.03,0.006,-0.01,0.01,0.002,-0.01,-1.589,-0.043,-0.224,29.73,85.4,40.583508,-3.549894,612.4,6,5,116.7,3.164
30.62,1,-0.019,0.013,0.01,0.003,0.009,0.001,-1.589,-0.044,-0.225,29.73,85.4,40.583508,-3.549894,612.4,6,5,116.7,3.164
30.71,1,0.026,-0.002,0.001,0.001,-0.0,0.003,-1.589,-0.044,-0.227,29.73,85.4,40.583508,-3.549894,612.4,6,5,116.7,3.164
30.81,1,-0.023,0.016,-0.002,0.006,0.009,-0.001,-1.588,-0.044,-0.228,29.73,85.4,40.583508,-3.549894,612.4,6,5,116.7,3.164
30.91,1,-0.014,0.027,-0.006,-0.011,0.011,-0.001,-1.589,-0.045,-0.23,30.75,86.3,40.583405,-3.549633,612.8,6,5,118.1,2.812
31.01,1,-0.01,0.006,0.008,-0.009,0.023,0.001,-1.589,-0.047,-0.233,30.75,86.3,40.583405,-3.549633,612.8,6,5,118.1,2.812
31.11,1,-0.017,0.016,0.008,-0.016,0.014,0.005,-1.589,-0.047,-0.234,30.75,86.3,40.583405,-3.549633,612.8,6,5,118.1,2.812
31.22,1,0.003,0.014,0.0,-0.004,0.017,0.004,-1.591,-0.047,-0.236,30.75,86.3,40.583405,-3.549633,612.8,6,5,118.1,2.812
31.32,1,-0.06,-0.017,0.004,-0.027,0.002,0.005,-1.591,-0.047,-0.237,30.75,86.3,40.583405,-3.549633,612.8,6,5,118.1,2.812
31.42,1,-0.031,-0.023,-0.005,-0.035,-0.012,0.0,-1.593,-0.045,-0.237,30.75,86.3,40.583405,-3.549633,612.8,6,5,118.1,2.812
31.52,1,-0.014,-0.026,0.005,-0.022,-0.024,0.002,-1.594,-0.041,-0.237,30.75,86.3,40.583405,-3.549633,612.8,6,5,118.1,2.812
31.62,1,-0.016,-0.01,0.015,-0.025,-0.022,0.008,-1.597,-0.037,-0.238,30.75,86.3,40.583405,-3.549633,612.8,6,5,118.1,2.812
31.72,1,0.019,-0.003,0.0,-0.011,-0.006,0.003,-1.597,-0.036,-0.238,30.75,86.3,40.583405,-3.549633,612.8,6,5,118.1,2.812
31.82,1,0.031,-0.004,0.003,0.023,-0.009,0.006,-1.596,-0.036,-0.238,30.75,86.3,40.583405,-3.549633,612.8,6,5,118.1,2.812
31.92,1,-0.027,-0.015,-0.019,0.006,-0.007,-0.007,-1.594,-0.038,-0.239,31.73,86.3,40.583405,-3.549633,612.8,6,5,118.1,2.812
32.02,1,-0.054,-0.018,-0.003,-0.034,-0.01,-0.01,-1.593,-0.04,-0.24,31.73,86.3,40.583405,-3.549633,612.8,6,5,118.1,2.812
32.12,1,0.007,0.045,-0.023,-0.022,0.015,-0.011,-1.593,-0.041,-0.242,31.73,86.3,40.583405,-3.549633,612.8,6,5,118.1,2.812
32.22,1,-0.015,0.031,-0.011,-0.01,0.019,-0.014,-1.593,-0.04,-0.243,31.73,86.3,40.583405,-3.549633,612.8,6,5,118.1,2.812
32.32,1,-0.01,0.006,0.007,-0.015,0.02,-0.006,-1.593,-0.041,-0.244,31.73,86.3,40.583405,-3.549633,612.8,6,5,118.1,2.812
32.43,1,-0.001,0.011,0.014,0.002,0.008,0.006,-1.593,-0.041,-0.246,31.73,86.3,40.583405,-3.549633,612.8,6,5,118.1,2.812
32.52,1,-0.014,0.018,0.006,-0.009,0.014,0.007,-1.594,-0.044,-0.248,31.73,86.3,40.583405,-3.549633,612.8,6,5,118.1,2.812
32.63,1,-0.008,0.037,0.016,-0.009,0.02,0.012,-1.594,-0.045,-0.25,31.73,86.3,40.583405,-3.549633,612.8,6,5,118.1,2.812
32.73,1,-0.021,0.032,-0.011,-0.013,0.037,0.002,-1.594,-0.045,-0.252,31.73,86.3,40.583405,-3.549633,612.8,6,5,118.1,2.812
32.82,1,0.021,0.039,-0.012,-0.003,0.039,-0.005,-1.594,-0.045,-0.253,31.73,86.3,40.583405,-3.549633,612.8,6,5,118.1,2.812
32.92,1,-0.002,0.016,-0.003,-0.0,0.027,-0.007,-1.594,-0.044,-0.255,32.74,87.2,40.583183,-3.549146,613.1,6,5,121.6,3.164
33.02,1,-0.038,0.041,0.0,-0.02,0.031,-0.006,-1.596,-0.043,-0.257,32.74,87.2,40.583183,-3.549146,613.1,6,5,121.6,3.164
33.12,1,0.019,-0.02,-0.002,-0.002,0.015,0.002,-1.595,-0.044,-0.258,32.74,87.2,40.583183,-3.549146,613.1,6,5,121.6,3.164
33.22,1,-0.026,0.02,-0.01,-0.005,0.005,-0.005,-1.595,-0.041,-0.259,32.74,87.2,40.583183,-3.549146,613.1,6,5,121.6,3.164
33.32,1,0.008,-0.018,0.008,-0.009,-0.002,0.0,-1.596,-0.04,-0.259,32.74,87.2,40.583183,-3.549146,613.1,6,5,121.6,3.164
33.43,1,-0.0,0.014,0.003,0.005,-0.001,0.0,-1.596,-0.042,-0.26,32.74,87.2,40.583183,-3.549146,613.1,6,5,121.6,3.164
33.53,1,0.0,-0.039,-0.003,-0.0,-0.008,-0.0,-1.595,-0.042,-0.261,32.74,87.2,40.583183,-3.549146,613.1,6,5,121.6,3.164
33.63,1,-0.035,-0.029,-0.02,-0.011,-0.027,-0.01,-1.595,-0.044,-0.261,32.74,87.2,40.583183,-3.549146,613.1,6,5,121.6,3.164
33.73,1,-0.012,-0.027,0.024,-0.024,-0.023,0.003,-1.596,-0.045,-0.261,32.74,87.2,40.583183,-3.549146,613.1,6,5,121.6,3.164
33.83,1,-0.018,-0.004,0.006,-0.015,-0.021,0.01,-1.595,-0.045,-0.261,32.74,87.2,40.583183,-3.549146,613.1,6,5,121.6,3.164
33.93,1,-0.007,-0.015,-0.011,-0.013,-0.013,-0.001,-1.592,-0.042,-0.262,33.75,87.2,40.583183,-3.549146,613.1,6,5,121.6,3.516
34.02,1,-0.01,0.03,0.014,-0.009,0.003,0.005,-1.59,-0.039,-0.262,33.75,87.2,40.583183,-3.549146,613.1,6,5,121.6,3.516
34.12,1,-0.009,-0.007,-0.011,-0.01,0.009,0.004,-1.59,-0.038,-0.261,33.75,87.2,40.583183,-3.549146,613.1,6,5,121.6,3.516
34.23,1,0.011,-0.016,0.0,-0.001,-0.006,-0.008,-1.59,-0.036,-0.261,33.75,87.2,40.583183,-3.549146,613.1,6,5,121.6,3.516
34.33,1,-0.006,-0.026,-0.012,-0.001,-0.02,-0.005,-1.59,-0.034,-0.26,33.75,87.2,40.583183,-3.549146,613.1,6,5,121.6,3.516
34.43,1,-0.021,-0.024,-0.014,-0.007,-0.021,-0.008,-1.591,-0.033,-0.26,33.75,87.2,40.583183,-3.549146,613.1,6,5,121.6,3.516
34.53,1,-0.02,-0.014,-0.005,-0.023,-0.02,-0.011,-1.589,-0.031,-0.26,33.75,87.2,40.583183,-3.549146,613.1,6,5,121.6,3.516
34.63,1,0.005,0.005,0.009,-0.007,-0.009,-0.001,-1.589,-0.03,-0.26,33.75,87.2,40.583183,-3.549146,613.1,6,5,121.6,3.516
34.73,1,-0.021,0.008,-0.012,-0.012,0.002,-0.003,-1.59,-0.03,-0.26,33.75,87.2,40.583183,-3.549146,613.1,6,5,121.6,3.516
34.83,1,-0.015,0.006,-0.01,-0.011,0.006,-0.008,-1.588,-0.028,-0.26,33.75,87.2,40.583183,-3.549146,613.1,6,5,121.6,3.516
34.93,1,-0.028,0.013,0.015,-0.019,0.004,-0.0,-1.588,-0.026,-0.261,34.73,88.1,40.582951,-3.548687,613.9,6,5,124.8,3.164
35.03,1,0.017,0.02,0.011,-0.014,0.011,0.009,-1.589,-0.029,-0.261,34.73,88.1,40.582951,-3.548687,613.9,6,5,124.8,3.164
35.13,1,0.027,-0.006,-0.005,0.017,0.012,0.006,-1.587,-0.029,-0.261,34.73,88.1,40.582951,-3.548687,613.9,6,5,124.8,3.164
35.23,1,0.004,0.0,-0.01,0.015,0.001,-0.002,-1.586,-0.031,-0.262,34.73,88.1,40.582951,-3.548687,613.9,6,5,124.8,3.164
35.33,1,-0.013,0.021,0.01,0.001,0.011,0.002,-1.586,-0.03,-0.263,34.73,88.1,40.582951,-3.548687,613.9,6,5,124.8,3.164
35.43,1,-0.018,0.023,0.007,-0.012,0.018,0.003,-1.585,-0.031,-0.264,34.73,88.1,40.582951,-3.548687,613.9,6,5,124.8,3.164
35.54,1,-0.024,0.026,-0.014,-0.019,0.022,-0.004,-1.583,-0.034,-0.265,34.73,88.1,40.582951,-3.548687,613.9,6,5,124.8,3.164
35.63,1,-0.027,0.015,0.005,-0.02,0.021,-0.002,-1.584,-0.035,-0.266,34.73,88.1,40.582951,-3.548687,613.9,6,5,124.8,3.164
35.73,1,0.009,0.029,0.008,-0.012,0.024,0.004,-1.585,-0.037,-0.267,34.73,88.1,40.582951,-3.548687,613.9,6,5,124.8,3.164
35.83,1,0.023,0.015,0.012,0.008,0.021,0.009,-1.585,-0.038,-0.268,34.73,88.1,40.582951,-3.548687,613.9,6,5,124.8,3.164
35.93,1,0.021,0.029,-0.005,0.019,0.019,0.004,-1.585,-0.039,-0.269,35.8,87.9,40.582825,-3.548461,614.9,6,5,126.2,2.461
36.03,1,-0.044,0.012,-0.016,-0.014,0.019,-0.009,-1.584,-0.041,-0.27,35.8,87.9,40.582825,-3.548461,614.9,6,5,126.2,2.461
36.14,1,-0.017,0.011,0.014,-0.021,0.019,0.001,-1.585,-0.042,-0.271,35.8,87.9,40.582825,-3.548461,614.9,6,5,126.2,2.461
36.24,1,0.004,0.008,-0.003,-0.005,0.008,0.001,-1.584,-0.043,-0.272,35.8,87.9,40.582825,-3.548461,614.9,6,5,126.2,2.461
36.34,1,0.021,0.024,-0.004,0.007,0.018,-0.001,-1.584,-0.045,-0.272,35.8,87.9,40.582825,-3.548461,614.9,6,5,126.2,2.461
36.43,1,-0.006,-0.0,-0.006,0.006,0.012,-0.004,-1.585,-0.047,-0.273,35.8,87.9,40.582825,-3.548461,614.9,6,5,126.2,2.461
36.53,1,-0.04,0.025,-0.005,-0.013,0.012,-0.003,-1.587,-0.047,-0.274,35.8,87.9,40.582825,-3.548461,614.9,6,5,126.2,2.461
36.63,1,-0.025,-0.021,0.019,-0.026,0.003,0.006,-1.59,-0.048,-0.275,35.8,87.9,40.582825,-3.548461,614.9,6,5,126.2,2.461
36.73,1,-0.016,0.005,-0.024,-0.023,-0.006,-0.003,-1.592,-0.047,-0.276,35.8,87.9,40.582825,-3.548461,614.9,6,5,126.2,2.461
36.93,1,-0.016,-0.002,0.005,-0.022,-0.005,-0.012,-1.591,-0.046,-0.276,35.8,87.9,40.582825,-3.548461,614.9,6,5,126.2,2.461
37.03,1,0.009,0.005,0.007,-0.007,-0.003,0.003,-1.591,-0.045,-0.277,36.73,88.6,40.582687,-3.548229,614.9,6,5,128.0,3.164
37.13,1,-0.0,-0.012,-0.033,0.004,-0.007,-0.011,-1.591,-0.045,-0.277,36.73,88.6,40.582687,-3.548229,614.9,6,5,128.0,3.164
37.24,1,-0.014,0.011,0.001,-0.01,0.001,-0.013,-1.59,-0.045,-0.277,36.73,88.6,40.582687,-3.548229,614.9,6,5,128.0,3.164
37.34,1,-0.034,0.013,-0.019,-0.015,0.012,-0.012,-1.589,-0.046,-0.278,36.73,88.6,40.582687,-3.548229,614.9,6,5,128.0,3.164
37.44,1,-0.005,-0.016,0.017,-0.02,-0.003,-0.002,-1.589,-0.046,-0.279,36.73,88.6,40.582687,-3.548229,614.9,6,5,128.0,3.164
37.54,1,-0.003,-0.01,0.001,-0.006,-0.008,0.008,-1.589,-0.046,-0.279,36.73,88.6,40.582687,-3.548229,614.9,6,5,128.0,3.164
37.64,1,-0.016,-0.019,0.006,-0.009,-0.017,0.005,-1.588,-0.045,-0.28,36.73,88.6,40.582687,-3.548229,614.9,6,5,128.0,3.164
37.74,1,-0.012,-0.004,-0.01,-0.008,-0.008,-0.003,-1.587,-0.047,-0.28,36.73,88.6,40.582687,-3.548229,614.9,6,5,128.0,3.164
37.84,1,-0.032,-0.038,0.007,-0.024,-0.023,0.0,-1.587,-0.046,-0.28,36.73,88.6,40.582687,-3.548229,614.9,6,5,128.0,3.164
37.94,1,-0.02,-0.003,-0.006,-0.025,-0.013,-0.002,-1.587,-0.045,-0.281,36.73,88.6,40.582687,-3.548229,614.9,6,5,128.0,3.164
38.04,1,-0.006,-0.038,0.0,-0.013,-0.02,-0.001,-1.588,-0.045,-0.281,37.73,87.5,40.582565,-3.548009,615.1,6,5,129.4,3.164
38.14,1,0.005,0.013,-0.007,-0.005,-0.01,-0.004,-1.589,-0.043,-0.281,37.73,87.5,40.582565,-3.548009,615.1,6,5,129.4,3.164
38.24,1,-0.005,-0.011,-0.006,-0.0,-0.004,-0.004,-1.588,-0.044,-0.281,37.73,87.5,40.582565,-3.548009,615.1,6,5,129.4,3.164
38.34,1,-0.028,0.022,-0.0,-0.015,0.007,-0.005,-1.589,-0.043,-0.281,37.73,87.5,40.582565,-3.548009,615.1,6,5,129.4,3.164
38.44,1,-0.026,-0.006,0.024,-0.021,-0.0,0.01,-1.591,-0.043,-0.282,37.73,87.5,40.582565,-3.548009,615.1,6,5,129.4,3.164
38.54,1,-0.035,0.031,0.008,-0.031,0.01,0.009,-1.593,-0.045,-0.284,37.73,87.5,40.582565,-3.548009,615.1,6,5,129.4,3.164
38.65,1,-0.012,0.015,-0.01,-0.022,0.018,0.001,-1.592,-0.047,-0.284,37.73,87.5,40.582565,-3.548009,615.1,6,5,129.4,3.164
38.75,1,-0.023,-0.026,0.003,-0.02,-0.001,0.003,-1.592,-0.044,-0.284,37.73,87.5,40.582565,-3.548009,615.1,6,5,129.4,3.164
38.84,1,-0.014,0.001,0.01,-0.019,-0.009,0.004,-1.59,-0.044,-0.285,37.73,87.5,40.582565,-3.548009,615.1,6,5,129.4,3.164
38.94,1,0.001,-0.005,0.006,-0.009,-0.003,0.006,-1.592,-0.043,-0.285,37.73,87.5,40.582565,-3.548009,615.1,6,5,129.4,3.164
39.04,1,-0.012,-0.02,-0.014,-0.008,-0.011,-0.001,-1.591,-0.044,-0.285,38.73,89.1,40.582424,-3.547777,615.3,6,5,130.8,2.812
39.15,1,-0.023,-0.009,-0.005,-0.012,-0.012,-0.003,-1.593,-0.043,-0.285,38.73,89.1,40.582424,-3.547777,615.3,6,5,130.8,2.812
39.24,1,-0.036,-0.003,0.003,-0.028,-0.009,-0.003,-1.594,-0.045,-0.286,38.73,89.1,40.582424,-3.547777,615.3,6,5,130.8,2.812
39.34,1,-0.011,-0.006,-0.004,-0.025,-0.006,-0.005,-1.595,-0.048,-0.286,38.73,89.1,40.582424,-3.547777,615.3,6,5,130.8,2.812
39.44,1,0.027,0.0,0.008,-0.001,0.001,0.002,-1.594,-0.047,-0.286,38.73,89.1,40.582424,-3.547777,615.3,6,5,130.8,2.812
39.54,1,-0.012,0.006,0.006,0.004,0.001,0.005,-1.592,-0.048,-0.287,38.73,89.1,40.582424,-3.547777,615.3,6,5,130.8,2.812
39.64,1,-0.0,-0.005,0.012,-0.001,0.001,0.011,-1.593,-0.049,-0.288,38.73,89.1,40.582424,-3.547777,615.3,6,5,130.8,2.812
39.75,1,-0.003,0.008,-0.003,0.001,0.003,0.006,-1.593,-0.051,-0.288,38.73,89.1,40.582424,-3.547777,615.3,6,5,130.8,2.812
39.85,1,-0.031,-0.023,-0.001,-0.015,-0.011,-0.004,-1.593,-0.05,-0.289,38.73,89.1,40.582424,-3.547777,615.3,6,5,130.8,2.812
39.95,1,-0.007,-0.009,0.003,-0.017,-0.013,0.005,-1.595,-0.049,-0.288,38.73,89.1,40.582424,-3.547777,615.3,6,5,130.8,2.812
40.04,1,-0.008,-0.01,-0.001,-0.011,-0.013,-0.0,-1.593,-0.05,-0.287,39.74,89.1,40.582275,-3.547551,615.8,6,5,132.2,2.812
40.15,1,0.02,-0.04,0.001,0.004,-0.02,-0.002,-1.591,-0.049,-0.286,39.74,89.1,40.582275,-3.547551,615.8,6,5,132.2,2.812
40.25,1,-0.024,-0.022,-0.011,-0.007,-0.022,-0.005,-1.589,-0.046,-0.286,39.74,89.1,40.582275,-3.547551,615.8,6,5,132.2,2.812
40.35,1,-0.011,-0.021,0.011,-0.019,-0.025,-0.001,-1.59,-0.045,-0.285,39.74,89.1,40.582275,-3.547551,615.8,6,5,132.2,2.812
40.47,1,-0.006,-0.039,0.019,-0.002,-0.027,0.01,-1.589,-0.043,-0.284,39.74,89.1,40.582275,-3.547551,615.8,6,5,132.2,2.812
40.55,1,-0.012,-0.043,0.018,-0.009,-0.037,0.021,-1.591,-0.042,-0.284,39.74,89.1,40.582275,-3.547551,615.8,6,5,132.2,2.812
40.65,1,-0.048,-0.036,0.015,-0.022,-0.04,0.017,-1.591,-0.04,-0.283,39.74,89.1,40.582275,-3.547551,615.8,6,5,132.2,2.812
40.75,1,-0.011,-0.016,0.02,-0.025,-0.029,0.013,-1.592,-0.041,-0.282,39.74,89.1,40.582275,-3.547551,615.8,6,5,132.2,2.812
40.85,1,-0.037,-0.001,0.017,-0.028,-0.015,0.02,-1.594,-0.042,-0.282,39.74,89.1,40.582275,-3.547551,615.8,6,5,132.2,2.812
40.95,1,0.033,0.016,0.004,-0.007,0.002,0.013,-1.593,-0.043,-0.281,39.74,89.1,40.582275,-3.547551,615.8,6,5,132.2,2.812
41.05,1,-0.006,-0.019,0.011,0.011,-0.001,0.01,-1.593,-0.041,-0.28,40.73,90.1,40.582123,-3.547332,616.5,6,5,133.6,2.812
41.15,1,-0.024,-0.009,-0.001,-0.02,-0.012,0.003,-1.592,-0.041,-0.28,40.73,90.1,40.582123,-3.547332,616.5,6,5,133.6,2.812
41.25,1,0.016,-0.012,0.025,0.001,-0.008,0.012,-1.594,-0.04,-0.279,40.73,90.1,40.582123,-3.547332,616.5,6,5,133.6,2.812
41.35,1,-0.043,-0.012,0.007,-0.016,-0.011,0.014,-1.595,-0.038,-0.278,40.73,90.1,40.582123,-3.547332,616.5,6,5,133.6,2.812
41.45,1,-0.007,0.001,-0.002,-0.013,-0.005,0.008,-1.594,-0.034,-0.276,40.73,90.1,40.582123,-3.547332,616.5,6,5,133.6,2.812
41.56,1,-0.009,-0.001,-0.003,-0.016,-0.005,-0.001,-1.596,-0.032,-0.275,40.73,90.1,40.582123,-3.547332,616.5,6,5,133.6,2.812
41.65,1,0.008,0.013,0.007,0.007,0.007,0.001,-1.599,-0.03,-0.274,40.73,90.1,40.582123,-3.547332,616.5,6,5,133.6,2.812
41.75,1,0.011,0.013,-0.004,0.004,0.006,-0.0,-1.599,-0.03,-0.273,40.73,90.1,40.582123,-3.547332,616.5,6,5,133.6,2.812
41.85,1,-0.021,-0.0,-0.007,-0.005,0.006,-0.002,-1.6,-0.03,-0.272,40.73,90.1,40.582123,-3.547332,616.5,6,5,133.6,2.812
41.95,1,-0.014,-0.006,0.003,-0.017,0.002,-0.001,-1.6,-0.032,-0.271,40.73,90.1,40.582123,-3.547332,616.5,6,5,133.6,2.812
42.05,1,-0.02,-0.021,0.007,-0.014,-0.015,0.004,-1.602,-0.031,-0.269,41.74,90.8,40.581966,-3.547111,616.7,4,5,134.3,2.109
42.15,1,0.001,-0.022,0.008,-0.012,-0.016,0.005,-1.603,-0.029,-0.268,41.74,90.8,40.581966,-3.547111,616.7,4,5,134.3,2.109
42.26,1,-0.004,-0.021,-0.006,-0.0,-0.017,0.003,-1.603,-0.027,-0.266,41.74,90.8,40.581966,-3.547111,616.7,4,5,134.3,2.109
42.36,1,-0.021,0.001,-0.004,-0.009,-0.011,-0.003,-1.601,-0.026,-0.264,41.74,90.8,40.581966,-3.547111,616.7,4,5,134.3,2.109
42.45,1,-0.006,-0.03,-0.006,-0.014,-0.015,-0.006,-1.6,-0.024,-0.262,41.74,90.8,40.581966,-3.547111,616.7,4,5,134.3,2.109
42.55,1,-0.025,-0.037,0.013,-0.021,-0.029,0.004,-1.602,-0.022,-0.261,41.74,90.8,40.581966,-3.547111,616.7,4,5,134.3,2.109
42.65,1,0.023,-0.022,0.01,0.001,-0.025,0.01,-1.603,-0.021,-0.258,41.74,90.8,40.581966,-3.547111,616.7,4,5,134.3,2.109
42.76,1,0.016,-0.042,-0.009,0.009,-0.035,0.001,-1.602,-0.017,-0.256,41.74,90.8,40.581966,-3.547111,616.7,4,5,134.3,2.109
42.86,1,-0.022,-0.022,-0.007,-0.002,-0.033,-0.006,-1.601,-0.013,-0.252,41.74,90.8,40.581966,-3.547111,616.7,4,5,134.3,2.109
42.96,1,-0.019,-0.034,0.008,-0.012,-0.025,0.001,-1.601,-0.01,-0.249,41.74,90.8,40.581966,-3.547111,616.7,4,5,134.3,2.109
43.05,1,-0.025,-0.068,0.006,-0.018,-0.052,0.007,-1.601,-0.008,-0.246,42.75,91.8,40.581806,-3.546892,616.6,6,5,134.6,1.055
43.15,1,-0.003,-0.045,0.041,-0.019,-0.046,0.016,-1.601,-0.009,-0.242,42.75,91.8,40.581806,-3.546892,616.6,6,5,134.6,1.055
43.26,1,-0.004,-0.049,0.011,-0.004,-0.054,0.021,-1.601,-0.007,-0.238,42.75,91.8,40.581806,-3.546892,616.6,6,5,134.6,1.055
43.36,1,0.0,-0.071,0.02,-0.005,-0.06,0.018,-1.603,-0.003,-0.234,42.75,91.8,40.581806,-3.546892,616.6,6,5,134.6,1.055
43.46,1,-0.006,-0.006,0.032,0.001,-0.034,0.021,-1.604,0.0,-0.231,42.75,91.8,40.581806,-3.546892,616.6,6,5,134.6,1.055
43.56,1,0.0,0.018,0.008,-0.008,-0.007,0.02,-1.603,-0.0,-0.229,42.75,91.8,40.581806,-3.546892,616.6,6,5,134.6,1.055
43.66,1,0.028,0.024,-0.013,0.008,0.008,0.008,-1.603,-0.002,-0.227,42.75,91.8,40.581806,-3.546892,616.6,6,5,134.6,1.055
43.76,1,-0.044,0.035,0.008,-0.007,0.021,-0.001,-1.603,-0.005,-0.226,42.75,91.8,40.581806,-3.546892,616.6,6,5,134.6,1.055
43.86,1,-0.017,0.034,0.009,-0.018,0.03,0.008,-1.603,-0.008,-0.224,42.75,91.8,40.581806,-3.546892,616.6,6,5,134.6,1.055
43.97,1,-0.014,0.049,-0.0,-0.014,0.043,0.002,-1.602,-0.012,-0.223,42.75,91.8,40.581806,-3.546892,616.6,6,5,134.6,1.055
44.06,1,-0.037,0.022,0.015,-0.027,0.032,0.007,-1.603,-0.013,-0.221,43.73,92.7,40.581646,-3.546671,617.0,6,5,134.3,0.352
44.17,1,-0.021,0.001,0.019,-0.027,0.018,0.012,-1.602,-0.012,-0.219,43.73,92.7,40.581646,-3.546671,617.0,6,5,134.3,0.352
44.26,1,0.008,0.021,-0.004,-0.013,0.017,0.01,-1.602,-0.011,-0.217,43.73,92.7,40.581646,-3.546671,617.0,6,5,134.3,0.352
44.36,1,0.013,-0.003,0.009,0.007,0.007,0.006,-1.603,-0.013,-0.216,43.73,92.7,40.581646,-3.546671,617.0,6,5,134.3,0.352
44.46,1,-0.008,0.007,0.008,0.004,0.006,0.006,-1.603,-0.014,-0.215,43.73,92.7,40.581646,-3.546671,617.0,6,5,134.3,0.352
44.56,1,-0.022,0.054,-0.002,-0.012,0.027,0.006,-1.605,-0.019,-0.214,43.73,92.7,40.581646,-3.546671,617.0,6,5,134.3,0.352
44.66,1,-0.027,0.03,0.022,-0.016,0.029,0.01,-1.605,-0.022,-0.214,43.73,92.7,40.581646,-3.546671,617.0,6,5,134.3,0.352
44.77,1,0.015,0.021,0.005,-0.011,0.03,0.009,-1.605,-0.022,-0.213,43.73,92.7,40.581646,-3.546671,617.0,6,5,134.3,0.352
44.86,1,0.007,0.019,0.003,-0.001,0.026,0.006,-1.604,-0.023,-0.212,43.73,92.7,40.581646,-3.546671,617.0,6,5,134.3,0.352
44.96,1,0.001,0.002,-0.0,0.006,0.015,0.005,-1.605,-0.024,-0.211,43.73,92.7,40.581646,-3.546671,617.0,6,5,134.3,0.352
45.06,1,-0.018,0.0,-0.004,-0.003,0.006,0.0,-1.605,-0.021,-0.209,44.73,93.8,40.581486,-3.546458,617.7,4,5,134.3,0.352
45.17,1,-0.034,-0.003,0.012,-0.022,-0.001,0.003,-1.606,-0.02,-0.207,44.73,93.8,40.581486,-3.546458,617.7,4,5,134.3,0.352
45.26,1,-0.027,-0.007,0.014,-0.03,-0.006,0.007,-1.606,-0.018,-0.205,44.73,93.8,40.581486,-3.546458,617.7,4,5,134.3,0.352
45.37,1,0.01,-0.012,0.001,-0.011,-0.008,0.011,-1.606,-0.015,-0.203,44.73,93.8,40.581486,-3.546458,617.7,4,5,134.3,0.352
45.47,1,0.003,-0.019,-0.002,-0.0,-0.012,-0.002,-1.605,-0.015,-0.202,44.73,93.8,40.581486,-3.546458,617.7,4,5,134.3,0.352
45.56,1,-0.014,0.01,0.007,-0.005,-0.005,0.005,-1.606,-0.017,-0.2,44.73,93.8,40.581486,-3.546458,617.7,4,5,134.3,0.352
45.66,1,-0.057,0.014,0.008,-0.023,-0.001,0.007,-1.605,-0.018,-0.199,44.73,93.8,40.581486,-3.546458,617.7,4,5,134.3,0.352
45.76,1,0.0,0.002,-0.002,-0.028,0.007,0.002,-1.606,-0.019,-0.198,44.73,93.8,40.581486,-3.546458,617.7,4,5,134.3,0.352
45.86,1,0.007,0.018,-0.002,-0.002,0.015,0.0,-1.605,-0.02,-0.196,44.73,93.8,40.581486,-3.546458,617.7,4,5,134.3,0.352
45.97,1,-0.005,0.001,-0.009,-0.007,0.008,-0.004,-1.604,-0.02,-0.195,44.73,93.8,40.581486,-3.546458,617.7,4,5,134.3,0.352
46.06,1,-0.004,0.011,0.003,-0.01,0.006,-0.002,-1.604,-0.019,-0.194,45.73,93.8,40.581486,-3.546458,617.7,4,5,134.3,0.352
46.16,1,-0.016,0.0,-0.002,-0.003,0.003,0.001,-1.603,-0.019,-0.192,45.73,93.8,40.581486,-3.546458,617.7,4,5,134.3,0.352
46.26,1,-0.009,-0.012,-0.019,-0.012,0.006,-0.009,-1.603,-0.017,-0.19,45.73,93.8,40.581486,-3.546458,617.7,4,5,134.3,0.352
46.37,1,-0.029,-0.011,-0.01,-0.014,-0.01,-0.012,-1.604,-0.014,-0.188,45.73,93.8,40.581486,-3.546458,617.7,4,5,134.3,0.352
46.47,1,-0.032,-0.035,-0.008,-0.029,-0.019,-0.011,-1.602,-0.013,-0.186,45.73,93.8,40.581486,-3.546458,617.7,4,5,134.3,0.352
46.57,1,-0.012,-0.039,0.006,-0.025,-0.033,-0.004,-1.603,-0.012,-0.183,45.73,93.8,40.581486,-3.546458,617.7,4,5,134.3,0.352
46.67,1,-0.025,-0.02,-0.007,-0.023,-0.034,-0.001,-1.603,-0.011,-0.181,45.73,93.8,40.581486,-3.546458,617.7,4,5,134.3,0.352
46.87,1,-0.002,0.005,-0.021,-0.002,0.007,-0.005,-1.603,-0.011,-0.176,45.73,93.8,40.581486,-3.546458,617.7,4,5,134.3,0.352
46.97,1,-0.01,-0.038,0.013,-0.001,-0.014,-0.002,-1.604,-0.008,-0.174,45.73,93.8,40.581486,-3.546458,617.7,4,5,134.3,0.352
47.07,1,-0.032,0.0,-0.007,-0.018,-0.017,-0.0,-1.603,-0.006,-0.172,45.73,93.8,40.581486,-3.546458,617.7,4,5,134.3,0.352
47.17,1,-0.049,-0.015,0.024,-0.035,-0.01,0.009,-1.605,-0.004,-0.17,46.73,95.4,40.58115,-3.54601,618.0,4,5,135.0,0.703
47.27,1,-0.042,-0.026,-0.008,-0.041,-0.015,0.005,-1.604,-0.002,-0.167,46.73,95.4,40.58115,-3.54601,618.0,4,5,135.0,0.703
47.37,1,0.006,-0.003,-0.015,-0.025,-0.013,-0.005,-1.604,-0.002,-0.165,46.73,95.4,40.58115,-3.54601,618.0,4,5,135.0,0.703
47.47,1,-0.008,-0.018,0.006,-0.006,-0.011,-0.004,-1.605,-0.0,-0.162,46.73,95.4,40.58115,-3.54601,618.0,4,5,135.0,0.703
47.58,1,-0.025,-0.052,-0.002,-0.015,-0.031,-0.0,-1.605,0.003,-0.159,46.73,95.4,40.58115,-3.54601,618.0,4,5,135.0,0.703
47.67,1,-0.025,-0.029,-0.001,-0.023,-0.035,-0.004,-1.605,0.005,-0.156,46.73,95.4,40.58115,-3.54601,618.0,4,5,135.0,0.703
47.85,1,-0.029,-0.017,0.011,-0.024,-0.026,0.004,-1.606,0.009,-0.15,46.73,95.4,40.58115,-3.54601,618.0,4,5,135.0,0.703
47.87,1,-0.028,-0.023,0.017,-0.028,-0.023,0.012,-1.606,0.011,-0.148,46.73,95.4,40.58115,-3.54601,618.0,4,5,135.0,0.703
47.97,1,0.011,-0.015,-0.002,-0.013,-0.022,0.009,-1.606,0.012,-0.145,46.73,95.4,40.58115,-3.54601,618.0,4,5,135.0,0.703
48.07,1,-0.01,-0.015,-0.003,-0.003,-0.016,0.001,-1.605,0.013,-0.142,46.73,95.4,40.58115,-3.54601,618.0,4,5,135.0,0.703
48.17,1,0.002,-0.033,0.021,-0.006,-0.026,0.007,-1.607,0.016,-0.139,47.88,96.3,40.580982,-3.545783,618.2,6,5,134.6,0.352
48.27,1,-0.022,-0.004,-0.026,-0.007,-0.013,-0.001,-1.609,0.014,-0.136,47.88,96.3,40.580982,-3.545783,618.2,6,5,134.6,0.352
48.37,1,-0.038,0.001,-0.024,-0.025,-0.008,-0.014,-1.608,0.01,-0.134,47.88,96.3,40.580982,-3.545783,618.2,6,5,134.6,0.352
48.47,1,-0.042,0.011,-0.029,-0.035,0.002,-0.027,-1.608,0.007,-0.132,47.88,96.3,40.580982,-3.545783,618.2,6,5,134.6,0.352
48.57,1,-0.034,0.015,-0.009,-0.035,0.011,-0.018,-1.607,0.008,-0.13,47.88,96.3,40.580982,-3.545783,618.2,6,5,134.6,0.352
48.67,1,-0.007,0.017,-0.013,-0.026,0.01,-0.018,-1.607,0.005,-0.128,47.88,96.3,40.580982,-3.545783,618.2,6,5,134.6,0.352
48.78,1,0.008,-0.004,-0.006,-0.004,0.009,-0.008,-1.608,0.004,-0.125,47.88,96.3,40.580982,-3.545783,618.2,6,5,134.6,0.352
48.88,1,-0.003,-0.022,0.003,-0.0,-0.007,-0.002,-1.607,0.006,-0.123,47.88,96.3,40.580982,-3.545783,618.2,6,5,134.6,0.352
48.98,1,0.003,-0.003,-0.007,-0.001,-0.009,-0.005,-1.606,0.008,-0.121,47.88,96.3,40.580982,-3.545783,618.2,6,5,134.6,0.352
49.08,1,-0.006,0.005,-0.008,0.0,-0.001,-0.007,-1.606,0.006,-0.118,47.88,96.3,40.580982,-3.545783,618.2,6,5,134.6,0.352
49.17,1,-0.005,-0.02,0.007,-0.006,-0.007,-0.0,-1.606,0.009,-0.115,48.74,96.7,40.580814,-3.545553,618.2,6,5,133.9,1.055
49.27,1,-0.002,-0.052,-0.019,-0.005,-0.029,-0.004,-1.607,0.012,-0.112,48.74,96.7,40.580814,-3.545553,618.2,6,5,133.9,1.055
49.37,1,-0.01,-0.005,-0.028,-0.006,-0.025,-0.018,-1.604,0.015,-0.109,48.74,96.7,40.580814,-3.545553,618.2,6,5,133.9,1.055
49.48,1,-0.013,-0.006,0.001,-0.014,-0.008,-0.015,-1.603,0.014,-0.106,48.74,96.7,40.580814,-3.545553,618.2,6,5,133.9,1.055
49.58,1,0.01,-0.026,-0.002,0.002,-0.018,-0.004,-1.604,0.018,-0.103,48.74,96.7,40.580814,-3.545553,618.2,6,5,133.9,1.055
49.68,1,-0.036,0.004,-0.005,-0.013,-0.011,-0.006,-1.601,0.022,-0.1,48.74,96.7,40.580814,-3.545553,618.2,6,5,133.9,1.055
49.78,1,-0.025,-0.033,-0.024,-0.03,-0.015,-0.015,-1.599,0.022,-0.097,48.74,96.7,40.580814,-3.545553,618.2,6,5,133.9,1.055
49.88,1,-0.044,-0.002,-0.013,-0.032,-0.018,-0.012,-1.597,0.022,-0.094,48.74,96.7,40.580814,-3.545553,618.2,6,5,133.9,1.055
49.98,1,-0.021,-0.016,0.019,-0.032,-0.011,-0.001,-1.598,0.02,-0.092,48.74,96.7,40.580814,-3.545553,618.2,6,5,133.9,1.055
50.08,1,-0.006,0.004,0.005,-0.014,-0.008,0.009,-1.599,0.02,-0.089,48.74,96.7,40.580814,-3.545553,618.2,6,5,133.9,1.055
50.19,1,0.012,0.001,-0.003,-0.005,0.0,0.001,-1.599,0.019,-0.087,49.72,96.7,40.580814,-3.545553,618.2,6,5,133.9,1.055
50.29,1,0.014,-0.002,-0.026,0.008,0.002,-0.01,-1.597,0.018,-0.085,49.72,96.7,40.580814,-3.545553,618.2,6,5,133.9,1.055
50.38,1,0.035,0.033,-0.049,0.021,0.013,-0.031,-1.591,0.017,-0.083,49.72,96.7,40.580814,-3.545553,618.2,6,5,133.9,1.055
50.48,1,-0.009,0.011,-0.061,0.013,0.02,-0.046,-1.585,0.015,-0.082,49.72,96.7,40.580814,-3.545553,618.2,6,5,133.9,1.055
50.58,1,-0.046,0.036,-0.045,-0.017,0.019,-0.049,-1.582,0.014,-0.08,49.72,96.7,40.580814,-3.545553,618.2,6,5,133.9,1.055
50.68,1,-0.008,0.023,-0.049,-0.021,0.026,-0.049,-1.579,0.013,-0.079,49.72,96.7,40.580814,-3.545553,618.2,6,5,133.9,1.055
50.78,1,0.007,0.023,-0.053,-0.007,0.023,-0.048,-1.574,0.012,-0.078,49.72,96.7,40.580814,-3.545553,618.2,6,5,133.9,1.055
50.88,1,-0.018,0.01,-0.043,-0.003,0.017,-0.051,-1.57,0.009,-0.076,49.72,96.7,40.580814,-3.545553,618.2,6,5,133.9,1.055
50.98,1,-0.006,0.028,-0.012,-0.01,0.019,-0.036,-1.568,0.006,-0.075,49.72,96.7,40.580814,-3.545553,618.2,6,5,133.9,1.055
51.08,1,-0.018,0.026,-0.026,-0.011,0.025,-0.021,-1.567,0.005,-0.074,49.72,96.7,40.580814,-3.545553,618.2,6,5,133.9,1.055
51.19,1,-0.014,0.018,-0.014,-0.016,0.021,-0.022,-1.565,0.002,-0.073,50.74,97.7,40.580475,-3.54508,620.2,4,5,132.5,1.406
51.29,1,-0.006,0.023,0.004,-0.013,0.024,-0.008,-1.565,-0.001,-0.072,50.74,97.7,40.580475,-3.54508,620.2,4,5,132.5,1.406
51.39,1,0.004,0.034,0.024,-0.0,0.027,0.007,-1.565,-0.003,-0.072,50.74,97.7,40.580475,-3.54508,620.2,4,5,132.5,1.406
51.49,1,0.003,0.026,-0.003,-0.001,0.028,0.008,-1.566,-0.006,-0.071,50.74,97.7,40.580475,-3.54508,620.2,4,5,132.5,1.406
51.58,1,-0.025,0.016,0.035,-0.01,0.025,0.017,-1.568,-0.008,-0.071,50.74,97.7,40.580475,-3.54508,620.2,4,5,132.5,1.406
51.68,1,0.011,0.053,0.007,0.0,0.032,0.018,-1.57,-0.011,-0.071,50.74,97.7,40.580475,-3.54508,620.2,4,5,132.5,1.406
51.78,1,-0.074,0.057,0.01,-0.025,0.049,0.007,-1.57,-0.014,-0.07,50.74,97.7,40.580475,-3.54508,620.2,4,5,132.5,1.406
51.88,1,-0.047,0.021,0.046,-0.053,0.038,0.027,-1.572,-0.017,-0.07,50.74,97.7,40.580475,-3.54508,620.2,4,5,132.5,1.406
51.98,1,0.011,0.032,0.04,-0.02,0.036,0.038,-1.574,-0.018,-0.07,50.74,97.7,40.580475,-3.54508,620.2,4,5,132.5,1.406
52.08,1,-0.038,-0.009,0.026,-0.024,0.013,0.033,-1.576,-0.017,-0.07,50.74,97.7,40.580475,-3.54508,620.2,4,5,132.5,1.406
52.18,1,0.006,0.026,0.019,-0.016,0.01,0.025,-1.578,-0.021,-0.069,51.74,96.4,40.580311,-3.544848,620.3,4,5,132.9,0.352
52.28,1,0.013,0.018,0.01,-0.0,0.021,0.018,-1.58,-0.021,-0.069,51.74,96.4,40.580311,-3.544848,620.3,4,5,132.9,0.352
52.38,1,-0.006,-0.018,0.025,0.001,0.002,0.018,-1.581,-0.019,-0.068,51.74,96.4,40.580311,-3.544848,620.3,4,5,132.9,0.352
52.49,1,-0.013,-0.041,0.021,-0.004,-0.016,0.025,-1.583,-0.015,-0.066,51.74,96.4,40.580311,-3.544848,620.3,4,5,132.9,0.352
52.6,1,-0.015,-0.027,0.001,-0.006,-0.025,0.01,-1.584,-0.011,-0.064,51.74,96.4,40.580311,-3.544848,620.3,4,5,132.9,0.352
52.7,1,-0.045,-0.069,0.015,-0.033,-0.04,0.01,-1.584,-0.006,-0.06,51.74,96.4,40.580311,-3.544848,620.3,4,5,132.9,0.352
52.79,1,0.033,-0.061,0.04,-0.004,-0.052,0.027,-1.584,-0.004,-0.057,51.74,96.4,40.580311,-3.544848,620.3,4,5,132.9,0.352
52.89,1,0.019,-0.076,0.027,0.012,-0.071,0.025,-1.584,-0.002,-0.054,51.74,96.4,40.580311,-3.544848,620.3,4,5,132.9,0.352
52.99,1,-0.01,-0.046,0.021,0.006,-0.064,0.027,-1.586,0.003,-0.05,51.74,96.4,40.580311,-3.544848,620.3,4,5,132.9,0.352
53.09,1,-0.002,-0.044,0.004,0.001,-0.053,0.014,-1.588,0.005,-0.047,51.74,96.4,40.580311,-3.544848,620.3,4,5,132.9,0.352
53.19,1,-0.046,-0.054,0.001,-0.021,-0.052,0.008,-1.588,0.01,-0.044,52.73,96.3,40.580139,-3.544629,620.3,4,5,132.5,0.352
53.29,1,-0.024,-0.039,0.014,-0.029,-0.048,0.004,-1.588,0.009,-0.04,52.73,96.3,40.580139,-3.544629,620.3,4,5,132.5,0.352
53.39,1,-0.002,-0.063,0.013,-0.016,-0.046,0.015,-1.587,0.009,-0.037,52.73,96.3,40.580139,-3.544629,620.3,4,5,132.5,0.352
53.49,1,0.005,-0.037,0.01,-0.004,-0.046,0.011,-1.587,0.009,-0.035,52.73,96.3,40.580139,-3.544629,620.3,4,5,132.5,0.352
53.6,1,-0.008,-0.037,0.022,-0.004,-0.042,0.016,-1.586,0.009,-0.032,52.73,96.3,40.580139,-3.544629,620.3,4,5,132.5,0.352
53.69,1,-0.019,-0.01,0.023,-0.006,-0.036,0.019,-1.589,0.011,-0.03,52.73,96.3,40.580139,-3.544629,620.3,4,5,132.5,0.352
53.79,1,-0.005,-0.006,0.042,-0.015,-0.015,0.03,-1.591,0.013,-0.028,52.73,96.3,40.580139,-3.544629,620.3,4,5,132.5,0.352
53.89,1,0.016,0.003,0.018,-0.004,-0.001,0.029,-1.596,0.011,-0.026,52.73,96.3,40.580139,-3.544629,620.3,4,5,132.5,0.352
53.99,1,-0.013,-0.041,-0.006,0.006,-0.014,0.012,-1.599,0.014,-0.023,52.73,96.3,40.580139,-3.544629,620.3,4,5,132.5,0.352
54.09,1,-0.037,-0.002,0.034,-0.015,-0.021,0.016,-1.6,0.014,-0.022,52.73,96.3,40.580139,-3.544629,620.3,4,5,132.5,0.352
54.19,1,0.005,0.002,0.02,-0.017,-0.007,0.023,-1.603,0.009,-0.02,53.74,97.4,40.579979,-3.544388,621.2,4,5,131.1,1.758
54.29,1,0.011,0.003,0.015,0.005,0.002,0.021,-1.604,0.008,-0.019,53.74,97.4,40.579979,-3.544388,621.2,4,5,131.1,1.758
54.39,1,-0.007,0.004,-0.012,0.003,-0.0,0.006,-1.604,0.009,-0.017,53.74,97.4,40.579979,-3.544388,621.2,4,5,131.1,1.758
54.49,1,-0.016,-0.009,-0.017,-0.012,-0.004,-0.01,-1.6,0.009,-0.015,53.74,97.4,40.579979,-3.544388,621.2,4,5,131.1,1.758
54.59,1,-0.029,-0.027,-0.013,-0.015,-0.01,-0.01,-1.599,0.008,-0.014,53.74,97.4,40.579979,-3.544388,621.2,4,5,131.1,1.758
54.69,1,-0.042,-0.033,0.017,-0.034,-0.024,-0.003,-1.6,0.006,-0.012,53.74,97.4,40.579979,-3.544388,621.2,4,5,131.1,1.758
54.79,1,-0.005,-0.021,-0.001,-0.029,-0.024,0.003,-1.599,0.005,-0.01,53.74,97.4,40.579979,-3.544388,621.2,4,5,131.1,1.758
54.89,1,0.023,-0.018,-0.006,0.005,-0.018,-0.002,-1.598,0.0,-0.008,53.74,97.4,40.579979,-3.544388,621.2,4,5,131.1,1.758
55.0,1,-0.031,-0.029,0.012,-0.009,-0.025,0.002,-1.597,0.0,-0.006,53.74,97.4,40.579979,-3.544388,621.2,4,5,131.1,1.758
55.1,1,-0.001,0.011,0.002,-0.011,-0.017,0.001,-1.597,-0.001,-0.005,53.74,97.4,40.579979,-3.544388,621.2,4,5,131.1,1.758
55.19,1,-0.024,-0.004,-0.01,-0.011,0.002,0.0,-1.598,-0.004,-0.004,54.73,97.0,40.579842,-3.544146,621.5,4,5,130.1,2.461
55.29,1,0.044,0.012,0.011,0.005,0.001,0.007,-1.598,-0.008,-0.004,54.73,97.0,40.579842,-3.544146,621.5,4,5,130.1,2.461
55.39,1,0.062,0.047,0.005,0.045,0.021,0.004,-1.599,-0.007,-0.003,54.73,97.0,40.579842,-3.544146,621.5,4,5,130.1,2.461
55.5,1,0.008,0.007,0.015,0.031,0.018,0.008,-1.599,-0.005,-0.002,54.73,97.0,40.579842,-3.544146,621.5,4,5,130.1,2.461
55.6,1,0.008,0.001,0.009,0.013,0.01,0.015,-1.599,-0.003,-0.001,54.73,97.0,40.579842,-3.544146,621.5,4,5,130.1,2.461
55.7,1,0.005,-0.02,-0.0,0.009,-0.007,0.006,-1.598,-0.003,0.001,54.73,97.0,40.579842,-3.544146,621.5,4,5,130.1,2.461
55.8,1,-0.016,-0.026,-0.033,0.001,-0.009,-0.014,-1.596,-0.002,0.002,54.73,97.0,40.579842,-3.544146,621.5,4,5,130.1,2.461
55.9,1,-0.02,-0.028,-0.014,-0.013,-0.023,-0.018,-1.595,-0.001,0.004,54.73,97.0,40.579842,-3.544146,621.5,4,5,130.1,2.461
56.01,1,-0.041,-0.025,-0.015,-0.025,-0.026,-0.017,-1.595,0.001,0.006,54.73,97.0,40.579842,-3.544146,621.5,4,5,130.1,2.461
56.1,1,0.013,-0.011,-0.005,-0.02,-0.022,-0.009,-1.593,0.002,0.007,54.73,97.0,40.579842,-3.544146,621.5,4,5,130.1,2.461
56.21,1,0.037,0.0,-0.024,0.015,-0.007,-0.015,-1.593,0.003,0.009,55.75,98.1,40.579693,-3.543895,622.3,4,5,129.4,1.758
56.3,1,0.029,-0.028,-0.015,0.03,-0.018,-0.017,-1.593,0.007,0.011,55.75,98.1,40.579693,-3.543895,622.3,4,5,129.4,1.758
56.4,1,0.007,-0.011,-0.005,0.018,-0.013,-0.011,-1.591,0.008,0.013,55.75,98.1,40.579693,-3.543895,622.3,4,5,129.4,1.758
56.5,1,-0.01,-0.012,-0.013,0.003,-0.015,-0.01,-1.591,0.008,0.015,55.75,98.1,40.579693,-3.543895,622.3,4,5,129.4,1.758
56.6,1,-0.033,-0.036,-0.01,-0.014,-0.015,-0.012,-1.591,0.009,0.017,55.75,98.1,40.579693,-3.543895,622.3,4,5,129.4,1.758
56.7,1,-0.019,-0.016,0.014,-0.022,-0.02,-0.0,-1.591,0.013,0.019,55.75,98.1,40.579693,-3.543895,622.3,4,5,129.4,1.758
56.9,1,0.009,-0.014,0.0,0.012,-0.022,0.007,-1.59,0.017,0.023,55.75,98.1,40.579693,-3.543895,622.3,4,5,129.4,1.758
57.0,1,-0.006,-0.034,0.016,0.002,-0.025,0.008,-1.591,0.018,0.025,55.75,98.1,40.579693,-3.543895,622.3,4,5,129.4,1.758
57.1,1,-0.002,-0.012,0.005,-0.002,-0.023,0.006,-1.59,0.019,0.027,55.75,98.1,40.579693,-3.543895,622.3,4,5,129.4,1.758
57.2,1,0.0,-0.003,-0.004,-0.004,-0.012,0.005,-1.589,0.019,0.03,55.75,98.1,40.579693,-3.543895,622.3,4,5,129.4,1.758
57.3,1,0.01,-0.022,-0.001,0.005,-0.009,0.001,-1.589,0.021,0.032,56.72,98.1,40.579536,-3.543637,622.9,4,5,128.7,1.406
57.41,1,-0.017,0.009,-0.004,0.001,-0.009,-0.002,-1.588,0.025,0.034,56.72,98.1,40.579536,-3.543637,622.9,4,5,128.7,1.406
57.5,1,-0.035,-0.009,0.019,-0.02,-0.01,0.002,-1.587,0.025,0.036,56.72,98.1,40.579536,-3.543637,622.9,4,5,128.7,1.406
57.6,1,-0.04,-0.013,0.013,-0.032,-0.011,0.015,-1.589,0.025,0.037,56.72,98.1,40.579536,-3.543637,622.9,4,5,128.7,1.406
57.7,1,-0.017,0.025,0.014,-0.029,0.008,0.014,-1.589,0.023,0.038,56.72,98.1,40.579536,-3.543637,622.9,4,5,128.7,1.406
57.8,1,0.022,0.018,0.007,-0.002,0.016,0.01,-1.591,0.022,0.039,56.72,98.1,40.579536,-3.543637,622.9,4,5,128.7,1.406
57.91,1,-0.019,0.01,0.003,-0.006,0.015,0.006,-1.593,0.021,0.04,56.72,98.1,40.579536,-3.543637,622.9,4,5,128.7,1.406
58.0,1,-0.028,0.033,0.019,-0.015,0.02,0.011,-1.594,0.019,0.041,56.72,98.1,40.579536,-3.543637,622.9,4,5,128.7,1.406
58.11,1,0.02,0.027,0.005,-0.006,0.024,0.012,-1.596,0.021,0.042,56.72,98.1,40.579536,-3.543637,622.9,4,5,128.7,1.406
58.2,1,-0.018,0.013,0.003,-0.001,0.024,0.004,-1.596,0.019,0.043,56.72,98.1,40.579536,-3.543637,622.9,4,5,128.7,1.406
58.3,1,0.043,0.043,0.005,0.005,0.029,0.005,-1.596,0.017,0.043,57.75,99.3,40.57938,-3.543386,623.3,4,5,127.3,2.109
58.41,1,-0.065,0.013,0.018,-0.008,0.029,0.009,-1.598,0.013,0.044,57.75,99.3,40.57938,-3.543386,623.3,4,5,127.3,2.109
58.5,1,-0.094,-0.006,0.023,-0.061,-0.002,0.018,-1.6,0.011,0.045,57.75,99.3,40.57938,-3.543386,623.3,4,5,127.3,2.109
58.61,1,-0.015,0.007,-0.005,-0.049,0.007,0.012,-1.602,0.009,0.046,57.75,99.3,40.57938,-3.543386,623.3,4,5,127.3,2.109
58.7,1,0.005,-0.011,-0.001,-0.019,-0.001,0.001,-1.601,0.006,0.047,57.75,99.3,40.57938,-3.543386,623.3,4,5,127.3,2.109
58.8,1,0.023,0.014,-0.014,-0.0,0.004,-0.005,-1.6,0.006,0.048,57.75,99.3,40.57938,-3.543386,623.3,4,5,127.3,2.109
58.91,1,0.019,-0.02,-0.014,0.019,0.0,-0.009,-1.599,0.007,0.049,57.75,99.3,40.57938,-3.543386,623.3,4,5,127.3,2.109
59.01,1,-0.002,-0.014,-0.004,0.005,-0.013,-0.011,-1.599,0.008,0.051,57.75,99.3,40.57938,-3.543386,623.3,4,5,127.3,2.109
59.11,1,0.017,-0.003,-0.014,0.015,-0.01,-0.006,-1.598,0.009,0.054,57.75,99.3,40.57938,-3.543386,623.3,4,5,127.3,2.109
59.21,1,0.012,0.003,-0.034,0.014,-0.003,-0.02,-1.594,0.012,0.055,57.75,99.3,40.57938,-3.543386,623.3,4,5,127.3,2.109
59.31,1,-0.027,-0.009,-0.045,-0.008,-0.004,-0.034,-1.592,0.015,0.056,58.72,99.6,40.57922,-3.543124,623.7,4,5,126.6,2.109
59.41,1,-0.031,-0.034,-0.027,-0.02,-0.014,-0.035,-1.589,0.017,0.058,58.72,99.6,40.57922,-3.543124,623.7,4,5,126.6,2.109
59.51,1,0.011,0.034,-0.015,-0.01,0.001,-0.025,-1.587,0.019,0.06,58.72,99.6,40.57922,-3.543124,623.7,4,5,126.6,2.109
59.62,1,-0.034,-0.002,-0.035,-0.015,0.006,-0.028,-1.584,0.017,0.062,58.72,99.6,40.57922,-3.543124,623.7,4,5,126.6,2.109
59.71,1,-0.015,0.006,-0.012,-0.021,0.002,-0.022,-1.583,0.014,0.062,58.72,99.6,40.57922,-3.543124,623.7,4,5,126.6,2.109
59.81,1,-0.033,0.017,-0.004,-0.019,0.012,-0.014,-1.583,0.012,0.062,58.72,99.6,40.57922,-3.543124,623.7,4,5,126.6,2.109
59.91,1,-0.02,0.033,0.007,-0.02,0.02,-0.002,-1.583,0.008,0.062,58.72,99.6,40.57922,-3.543124,623.7,4,5,126.6,2.109
60.01,1,0.003,0.022,0.001,-0.016,0.026,0.003,-1.583,0.003,0.062,58.72,99.6,40.57922,-3.543124,623.7,4,5,126.6,2.109
60.11,1,0.03,0.037,0.006,0.009,0.033,0.003,-1.583,0.002,0.062,58.72,99.6,40.57922,-3.543124,623.7,4,5,126.6,2.109
60.21,1,-0.001,0.007,-0.005,0.01,0.018,-0.003,-1.582,0.0,0.063,58.72,99.6,40.57922,-3.543124,623.7,4,5,126.6,2.109
60.31,1,-0.022,0.037,-0.011,-0.007,0.024,-0.006,-1.581,-0.003,0.062,59.78,99.8,40.579075,-3.542881,624.1,6,5,125.5,1.758
60.41,1,-0.006,0.039,0.006,-0.012,0.033,0.001,-1.581,-0.004,0.062,59.78,99.8,40.579075,-3.542881,624.1,6,5,125.5,1.758
60.52,1,-0.01,0.02,-0.02,-0.008,0.027,-0.007,-1.579,-0.005,0.062,59.78,99.8,40.579075,-3.542881,624.1,6,5,125.5,1.758
60.61,1,0.008,0.027,-0.006,-0.004,0.026,-0.009,-1.578,-0.006,0.062,59.78,99.8,40.579075,-3.542881,624.1,6,5,125.5,1.758
60.71,1,-0.005,0.019,-0.024,0.001,0.022,-0.013,-1.577,-0.007,0.062,59.78,99.8,40.579075,-3.542881,624.1,6,5,125.5,1.758
60.81,1,-0.035,0.027,-0.007,-0.016,0.026,-0.017,-1.577,-0.01,0.061,59.78,99.8,40.579075,-3.542881,624.1,6,5,125.5,1.758
60.91,1,-0.013,0.019,0.014,-0.017,0.024,-0.003,-1.576,-0.011,0.061,59.78,99.8,40.579075,-3.542881,624.1,6,5,125.5,1.758
61.02,1,-0.011,0.005,-0.014,-0.016,0.015,0.001,-1.575,-0.012,0.061,59.78,99.8,40.579075,-3.542881,624.1,6,5,125.5,1.758
61.11,1,-0.006,0.007,0.012,-0.012,0.008,-0.001,-1.574,-0.012,0.061,59.78,99.8,40.579075,-3.542881,624.1,6,5,125.5,1.758
61.21,1,-0.011,-0.002,0.002,-0.004,0.004,0.004,-1.574,-0.01,0.061,59.78,99.8,40.579075,-3.542881,624.1,6,5,125.5,1.758
61.31,1,-0.0,-0.019,0.006,-0.004,-0.006,0.005,-1.573,-0.009,0.062,60.72,99.8,40.57893,-3.542611,623.8,6,5,125.2,1.406
61.41,1,-0.001,-0.034,0.014,-0.003,-0.018,0.008,-1.574,-0.004,0.063,60.72,99.8,40.57893,-3.542611,623.8,6,5,125.2,1.406
61.51,1,-0.027,-0.031,0.003,-0.012,-0.03,0.008,-1.574,0.002,0.065,60.72,99.8,40.57893,-3.542611,623.8,6,5,125.2,1.406
61.61,1,-0.023,-0.036,0.02,-0.021,-0.032,0.009,-1.575,0.004,0.068,60.72,99.8,40.57893,-3.542611,623.8,6,5,125.2,1.406
61.71,1,-0.006,-0.039,0.004,-0.016,-0.041,0.011,-1.576,0.007,0.069,60.72,99.8,40.57893,-3.542611,623.8,6,5,125.2,1.406
61.82,1,-0.007,-0.003,0.017,-0.009,-0.022,0.013,-1.578,0.008,0.07,60.72,99.8,40.57893,-3.542611,623.8,6,5,125.2,1.406
61.91,1,-0.018,-0.013,-0.002,-0.013,-0.01,0.009,-1.579,0.01,0.072,60.72,99.8,40.57893,-3.542611,623.8,6,5,125.2,1.406
62.01,1,-0.006,-0.011,0.0,-0.011,-0.016,0.0,-1.578,0.012,0.073,60.72,99.8,40.57893,-3.542611,623.8,6,5,125.2,1.406
62.12,1,0.005,-0.02,-0.008,-0.001,-0.014,-0.0,-1.578,0.016,0.076,60.72,99.8,40.57893,-3.542611,623.8,6,5,125.2,1.406
62.22,1,-0.002,-0.019,-0.005,0.001,-0.019,-0.006,-1.577,0.017,0.077,60.72,99.8,40.57893,-3.542611,623.8,6,5,125.2,1.406
62.32,1,-0.039,0.002,-0.01,-0.02,-0.011,-0.006,-1.578,0.017,0.079,61.72,100.1,40.578789,-3.542339,624.2,4,5,124.8,0.703
62.42,1,-0.004,-0.006,0.004,-0.02,-0.004,-0.006,-1.577,0.018,0.08,61.72,100.1,40.578789,-3.542339,624.2,4,5,124.8,0.703
62.52,1,-0.026,0.006,0.007,-0.017,0.004,0.004,-1.577,0.017,0.08,61.72,100.1,40.578789,-3.542339,624.2,4,5,124.8,0.703
62.62,1,-0.004,0.017,-0.005,-0.011,0.009,0.002,-1.576,0.014,0.081,61.72,100.1,40.578789,-3.542339,624.2,4,5,124.8,0.703
62.72,1,-0.008,0.038,-0.011,-0.012,0.017,-0.008,-1.574,0.012,0.081,61.72,100.1,40.578789,-3.542339,624.2,4,5,124.8,0.703
62.82,1,0.009,0.016,0.002,-0.004,0.023,-0.001,-1.575,0.01,0.081,61.72,100.1,40.578789,-3.542339,624.2,4,5,124.8,0.703
62.92,1,0.003,0.023,0.0,0.005,0.022,-0.001,-1.574,0.01,0.081,61.72,100.1,40.578789,-3.542339,624.2,4,5,124.8,0.703
63.02,1,-0.02,0.029,0.0,-0.006,0.027,-0.0,-1.574,0.009,0.081,61.72,100.1,40.578789,-3.542339,624.2,4,5,124.8,0.703
63.12,1,-0.023,0.016,-0.003,-0.019,0.022,-0.003,-1.574,0.007,0.081,61.72,100.1,40.578789,-3.542339,624.2,4,5,124.8,0.703
63.22,1,-0.008,0.024,-0.031,-0.014,0.021,-0.013,-1.575,0.007,0.082,61.72,100.1,40.578789,-3.542339,624.2,4,5,124.8,0.703
63.32,1,-0.012,0.026,-0.01,-0.005,0.026,-0.016,-1.574,0.007,0.081,62.74,100.0,40.57864,-3.542061,624.3,4,5,123.4,1.758
63.42,1,-0.013,0.027,0.008,-0.015,0.022,-0.005,-1.575,0.005,0.082,62.74,100.0,40.57864,-3.542061,624.3,4,5,123.4,1.758
63.52,1,-0.015,0.002,0.015,-0.016,0.018,0.005,-1.576,0.004,0.082,62.74,100.0,40.57864,-3.542061,624.3,4,5,123.4,1.758
63.62,1,0.001,-0.001,-0.007,-0.008,0.003,0.003,-1.575,0.004,0.083,62.74,100.0,40.57864,-3.542061,624.3,4,5,123.4,1.758
63.72,1,-0.004,0.018,-0.014,-0.005,0.012,-0.01,-1.574,0.002,0.082,62.74,100.0,40.57864,-3.542061,624.3,4,5,123.4,1.758
63.82,1,-0.01,0.007,-0.009,-0.007,0.009,-0.006,-1.575,-0.001,0.082,62.74,100.0,40.57864,-3.542061,624.3,4,5,123.4,1.758
63.93,1,-0.024,0.012,-0.001,-0.013,0.01,-0.006,-1.575,-0.002,0.082,62.74,100.0,40.57864,-3.542061,624.3,4,5,123.4,1.758
64.02,1,-0.005,0.011,0.005,-0.013,0.009,-0.001,-1.575,-0.004,0.082,62.74,100.0,40.57864,-3.542061,624.3,4,5,123.4,1.758
64.12,1,-0.008,0.008,-0.008,-0.009,0.01,-0.001,-1.576,-0.003,0.082,62.74,100.0,40.57864,-3.542061,624.3,4,5,123.4,1.758
64.22,1,-0.017,0.005,-0.004,-0.012,0.006,-0.004,-1.577,-0.001,0.083,62.74,100.0,40.57864,-3.542061,624.3,4,5,123.4,1.758
64.32,1,-0.027,-0.002,-0.006,-0.021,0.007,-0.003,-1.578,-0.002,0.083,63.74,100.0,40.578503,-3.541781,624.9,4,5,123.4,1.406
64.42,1,-0.006,0.015,-0.001,-0.017,0.01,-0.003,-1.579,-0.003,0.083,63.74,100.0,40.578503,-3.541781,624.9,4,5,123.4,1.406
64.52,1,-0.006,-0.01,0.003,-0.008,0.005,-0.0,-1.577,-0.003,0.083,63.74,100.0,40.578503,-3.541781,624.9,4,5,123.4,1.406
64.62,1,0.002,-0.007,0.007,-0.009,-0.005,0.003,-1.579,-0.003,0.083,63.74,100.0,40.578503,-3.541781,624.9,4,5,123.4,1.406
64.72,1,-0.001,-0.026,0.008,0.001,-0.015,0.007,-1.578,-0.0,0.084,63.74,100.0,40.578503,-3.541781,624.9,4,5,123.4,1.406
64.82,1,-0.006,-0.045,-0.012,0.001,-0.033,-0.0,-1.577,0.006,0.087,63.74,100.0,40.578503,-3.541781,624.9,4,5,123.4,1.406
64.92,1,-0.02,-0.04,0.0,-0.01,-0.039,-0.006,-1.578,0.007,0.089,63.74,100.0,40.578503,-3.541781,624.9,4,5,123.4,1.406
65.02,1,-0.012,-0.022,0.01,-0.015,-0.03,0.002,-1.578,0.011,0.091,63.74,100.0,40.578503,-3.541781,624.9,4,5,123.4,1.406
65.13,1,0.002,-0.037,-0.001,-0.006,-0.029,0.004,-1.576,0.014,0.093,63.74,100.0,40.578503,-3.541781,624.9,4,5,123.4,1.406
65.23,1,-0.009,-0.062,0.001,-0.003,-0.046,0.002,-1.577,0.016,0.094,63.74,100.0,40.578503,-3.541781,624.9,4,5,123.4,1.406
65.33,1,-0.03,-0.011,0.006,-0.019,-0.038,0.002,-1.576,0.017,0.095,64.74,99.8,40.578369,-3.541506,625.0,4,5,122.7,0.703
65.43,1,-0.003,0.007,0.007,-0.016,-0.01,0.005,-1.575,0.016,0.096,64.74,99.8,40.578369,-3.541506,625.0,4,5,122.7,0.703
65.53,1,0.003,-0.008,0.003,-0.006,-0.01,0.008,-1.575,0.018,0.097,64.74,99.8,40.578369,-3.541506,625.0,4,5,122.7,0.703
65.63,1,-0.006,-0.003,-0.004,-0.002,-0.006,-0.001,-1.574,0.019,0.097,64.74,99.8,40.578369,-3.541506,625.0,4,5,122.7,0.703
65.73,1,-0.002,0.011,0.013,0.0,0.003,0.007,-1.574,0.018,0.097,64.74,99.8,40.578369,-3.541506,625.0,4,5,122.7,0.703
65.84,1,-0.017,0.009,-0.0,-0.009,0.011,0.002,-1.576,0.016,0.098,64.74,99.8,40.578369,-3.541506,625.0,4,5,122.7,0.703
65.93,1,-0.021,0.009,0.008,-0.015,0.006,0.005,-1.577,0.017,0.098,64.74,99.8,40.578369,-3.541506,625.0,4,5,122.7,0.703
66.03,1,-0.027,0.001,0.022,-0.021,0.006,0.013,-1.579,0.017,0.098,64.74,99.8,40.578369,-3.541506,625.0,4,5,122.7,0.703
66.13,1,-0.025,-0.007,0.006,-0.025,-0.001,0.013,-1.58,0.02,0.099,64.74,99.8,40.578369,-3.541506,625.0,4,5,122.7,0.703
66.23,1,-0.014,0.003,0.004,-0.025,-0.004,0.004,-1.58,0.019,0.1,64.74,99.8,40.578369,-3.541506,625.0,4,5,122.7,0.703
66.34,1,-0.001,0.011,0.017,-0.012,0.007,0.012,-1.581,0.017,0.101,65.73,100.1,40.578236,-3.541227,625.0,4,5,122.3,0.703
66.43,1,0.001,0.001,-0.015,-0.001,0.004,0.001,-1.579,0.018,0.101,65.73,100.1,40.578236,-3.541227,625.0,4,5,122.3,0.703
66.55,1,-0.015,0.032,-0.003,-0.006,0.012,-0.003,-1.578,0.017,0.101,65.73,100.1,40.578236,-3.541227,625.0,4,5,122.3,0.703
66.63,1,-0.007,0.033,0.004,-0.007,0.028,-0.002,-1.579,0.015,0.101,65.73,100.1,40.578236,-3.541227,625.0,4,5,122.3,0.703
66.73,1,-0.008,0.003,0.002,-0.007,0.02,0.002,-1.578,0.017,0.102,65.73,100.1,40.578236,-3.541227,625.0,4,5,122.3,0.703
66.83,1,-0.004,-0.001,-0.013,-0.006,0.007,-0.002,-1.577,0.016,0.102,65.73,100.1,40.578236,-3.541227,625.0,4,5,122.3,0.703
66.94,1,0.011,-0.016,-0.008,-0.001,-0.007,-0.01,-1.577,0.016,0.102,65.73,100.1,40.578236,-3.541227,625.0,4,5,122.3,0.703
67.04,1,-0.018,0.027,-0.003,-0.005,0.006,-0.005,-1.577,0.014,0.103,65.73,100.1,40.578236,-3.541227,625.0,4,5,122.3,0.703
67.14,1,-0.013,0.021,-0.006,-0.011,0.017,-0.004,-1.576,0.013,0.102,65.73,100.1,40.578236,-3.541227,625.0,4,5,122.3,0.703
67.23,1,-0.008,0.022,-0.011,-0.01,0.019,-0.007,-1.576,0.01,0.101,65.73,100.1,40.578236,-3.541227,625.0,4,5,122.3,0.703
67.33,1,-0.017,0.026,-0.0,-0.011,0.024,-0.009,-1.575,0.007,0.101,66.76,99.8,40.578106,-3.540944,624.9,6,5,120.6,1.055
67.43,1,0.007,0.053,0.013,-0.007,0.036,0.004,-1.576,0.006,0.101,66.76,99.8,40.578106,-3.540944,624.9,6,5,120.6,1.055
67.54,1,-0.002,0.01,0.003,-0.003,0.032,0.006,-1.576,0.006,0.1,66.76,99.8,40.578106,-3.540944,624.9,6,5,120.6,1.055
67.63,1,0.016,0.022,0.005,0.007,0.019,0.006,-1.576,0.006,0.1,66.76,99.8,40.578106,-3.540944,624.9,6,5,120.6,1.055
67.74,1,-0.001,0.008,-0.004,0.004,0.015,-0.0,-1.576,0.001,0.1,66.76,99.8,40.578106,-3.540944,624.9,6,5,120.6,1.055
67.84,1,-0.005,0.027,0.001,0.001,0.022,0.001,-1.576,-0.001,0.099,66.76,99.8,40.578106,-3.540944,624.9,6,5,120.6,1.055
67.94,1,-0.006,0.017,-0.006,-0.001,0.019,-0.004,-1.576,-0.001,0.098,66.76,99.8,40.578106,-3.540944,624.9,6,5,120.6,1.055
68.03,1,-0.044,0.013,-0.004,-0.021,0.018,-0.002,-1.576,-0.001,0.097,66.76,99.8,40.578106,-3.540944,624.9,6,5,120.6,1.055
68.14,1,0.016,0.007,0.023,-0.01,0.008,0.006,-1.577,-0.001,0.097,66.76,99.8,40.578106,-3.540944,624.9,6,5,120.6,1.055
68.23,1,-0.037,-0.004,0.021,-0.014,0.012,0.021,-1.578,0.0,0.096,66.76,99.8,40.578106,-3.540944,624.9,6,5,120.6,1.055
68.35,1,0.007,-0.006,0.001,-0.017,-0.004,0.01,-1.579,-0.0,0.096,67.72,99.8,40.577976,-3.540656,625.3,4,5,120.2,2.109
68.44,1,-0.024,0.012,-0.017,-0.011,0.007,-0.005,-1.579,-0.003,0.096,67.72,99.8,40.577976,-3.540656,625.3,4,5,120.2,2.109
68.54,1,-0.029,0.017,0.011,-0.024,0.012,0.001,-1.581,-0.004,0.095,67.72,99.8,40.577976,-3.540656,625.3,4,5,120.2,2.109
68.64,1,-0.014,0.009,-0.005,-0.023,0.014,-0.002,-1.581,-0.004,0.096,67.72,99.8,40.577976,-3.540656,625.3,4,5,120.2,2.109
68.74,1,0.009,0.008,-0.01,-0.004,0.009,-0.002,-1.58,-0.003,0.096,67.72,99.8,40.577976,-3.540656,625.3,4,5,120.2,2.109
68.84,1,0.019,-0.016,-0.014,0.007,-0.011,-0.01,-1.579,-0.0,0.097,67.72,99.8,40.577976,-3.540656,625.3,4,5,120.2,2.109
68.95,1,-0.011,-0.043,-0.002,0.006,-0.022,-0.006,-1.58,0.005,0.098,67.72,99.8,40.577976,-3.540656,625.3,4,5,120.2,2.109
69.04,1,-0.014,-0.031,-0.005,-0.012,-0.029,-0.007,-1.579,0.007,0.1,67.72,99.8,40.577976,-3.540656,625.3,4,5,120.2,2.109
69.14,1,-0.005,-0.031,0.008,-0.01,-0.029,-0.001,-1.579,0.012,0.101,67.72,99.8,40.577976,-3.540656,625.3,4,5,120.2,2.109
69.24,1,-0.001,-0.013,0.022,-0.002,-0.028,0.013,-1.579,0.014,0.102,67.72,99.8,40.577976,-3.540656,625.3,4,5,120.2,2.109
69.35,1,-0.015,-0.027,-0.004,-0.002,-0.025,0.006,-1.579,0.018,0.104,68.74,100.3,40.577847,-3.540368,625.6,4,5,119.5,2.109
69.44,1,-0.01,-0.038,0.005,-0.005,-0.028,0.002,-1.58,0.02,0.105,68.74,100.3,40.577847,-3.540368,625.6,4,5,119.5,2.109
69.55,1,-0.026,-0.011,-0.006,-0.023,-0.027,0.004,-1.58,0.02,0.106,68.74,100.3,40.577847,-3.540368,625.6,4,5,119.5,2.109
69.65,1,0.016,-0.011,0.016,-0.004,-0.013,0.008,-1.58,0.02,0.107,68.74,100.3,40.577847,-3.540368,625.6,4,5,119.5,2.109
69.74,1,0.009,-0.002,-0.014,0.002,-0.007,-0.003,-1.579,0.022,0.107,68.74,100.3,40.577847,-3.540368,625.6,4,5,119.5,2.109
69.84,1,-0.024,-0.02,0.0,-0.011,-0.011,-0.005,-1.579,0.022,0.108,68.74,100.3,40.577847,-3.540368,625.6,4,5,119.5,2.109
69.95,1,-0.017,0.008,0.019,-0.015,-0.006,0.004,-1.58,0.021,0.108,68.74,100.3,40.577847,-3.540368,625.6,4,5,119.5,2.109
70.04,1,-0.025,-0.01,0.008,-0.018,-0.004,0.011,-1.581,0.023,0.109,68.74,100.3,40.577847,-3.540368,625.6,4,5,119.5,2.109
70.15,1,0.012,0.018,0.016,-0.01,0.001,0.013,-1.58,0.021,0.109,68.74,100.3,40.577847,-3.540368,625.6,4,5,119.5,2.109
70.24,1,-0.004,0.022,-0.0,0.004,0.013,0.01,-1.579,0.018,0.109,68.74,100.3,40.577847,-3.540368,625.6,4,5,119.5,2.109
70.34,1,-0.056,0.03,-0.003,-0.022,0.018,0.001,-1.578,0.015,0.109,69.75,99.9,40.577724,-3.540087,626.0,4,5,118.5,1.758
70.44,1,-0.011,0.051,0.034,-0.023,0.029,0.015,-1.578,0.016,0.108,69.75,99.9,40.577724,-3.540087,626.0,4,5,118.5,1.758
70.54,1,-0.028,-0.0,-0.013,-0.022,0.031,0.008,-1.578,0.016,0.108,69.75,99.9,40.577724,-3.540087,626.0,4,5,118.5,1.758
70.65,1,0.009,0.037,0.005,-0.016,0.025,0.003,-1.578,0.014,0.107,69.75,99.9,40.577724,-3.540087,626.0,4,5,118.5,1.758
70.75,1,0.016,0.008,0.009,0.004,0.023,0.004,-1.577,0.012,0.107,69.75,99.9,40.577724,-3.540087,626.0,4,5,118.5,1.758
70.85,1,-0.017,0.023,0.007,-0.002,0.017,0.005,-1.578,0.011,0.106,69.75,99.9,40.577724,-3.540087,626.0,4,5,118.5,1.758
70.94,1,-0.039,-0.001,0.0,-0.021,0.015,0.007,-1.579,0.009,0.106,69.75,99.9,40.577724,-3.540087,626.0,4,5,118.5,1.758
71.04,1,-0.026,0.027,0.019,-0.031,0.018,0.008,-1.579,0.007,0.105,69.75,99.9,40.577724,-3.540087,626.0,4,5,118.5,1.758
71.14,1,-0.018,0.034,0.012,-0.021,0.023,0.013,-1.582,0.007,0.105,69.75,99.9,40.577724,-3.540087,626.0,4,5,118.5,1.758
71.24,1,0.005,0.025,0.014,-0.012,0.023,0.014,-1.583,0.007,0.104,69.75,99.9,40.577724,-3.540087,626.0,4,5,118.5,1.758
71.35,1,0.016,0.005,0.023,0.003,0.017,0.016,-1.583,0.007,0.104,70.79,100.1,40.577602,-3.539798,625.8,6,5,117.8,1.758
71.44,1,0.001,0.01,0.008,0.008,0.017,0.014,-1.583,0.008,0.103,70.79,100.1,40.577602,-3.539798,625.8,6,5,117.8,1.758
71.55,1,-0.018,0.002,-0.003,-0.005,0.006,0.006,-1.584,0.007,0.102,70.79,100.1,40.577602,-3.539798,625.8,6,5,117.8,1.758
71.65,1,-0.008,0.008,0.011,-0.01,0.005,0.006,-1.585,0.005,0.102,70.79,100.1,40.577602,-3.539798,625.8,6,5,117.8,1.758
71.75,1,-0.008,0.019,-0.001,-0.01,0.01,0.005,-1.585,0.004,0.101,70.79,100.1,40.577602,-3.539798,625.8,6,5,117.8,1.758
71.85,1,0.015,-0.01,-0.001,0.001,0.003,-0.001,-1.584,0.004,0.101,70.79,100.1,40.577602,-3.539798,625.8,6,5,117.8,1.758
71.95,1,0.008,-0.02,-0.012,0.009,-0.008,-0.005,-1.582,0.006,0.101,70.79,100.1,40.577602,-3.539798,625.8,6,5,117.8,1.758
72.05,1,-0.018,-0.044,-0.0,-0.0,-0.026,-0.006,-1.582,0.008,0.101,70.79,100.1,40.577602,-3.539798,625.8,6,5,117.8,1.758
72.15,1,-0.051,-0.042,0.013,-0.024,-0.036,0.007,-1.582,0.011,0.102,70.79,100.1,40.577602,-3.539798,625.8,6,5,117.8,1.758
72.25,1,-0.024,-0.011,0.006,-0.029,-0.033,0.008,-1.583,0.013,0.103,70.79,100.1,40.577602,-3.539798,625.8,6,5,117.8,1.758
72.35,1,0.037,0.022,0.007,-0.002,0.001,0.009,-1.582,0.014,0.104,71.72,100.5,40.577484,-3.539516,626.2,6,5,117.1,1.406
72.45,1,0.021,-0.039,0.012,0.011,-0.002,0.006,-1.582,0.015,0.105,71.72,100.5,40.577484,-3.539516,626.2,6,5,117.1,1.406
72.55,1,-0.007,-0.049,0.004,0.01,-0.035,0.007,-1.582,0.015,0.106,71.72,100.5,40.577484,-3.539516,626.2,6,5,117.1,1.406
72.65,1,-0.059,-0.049,0.0,-0.022,-0.043,0.003,-1.581,0.018,0.107,71.72,100.5,40.577484,-3.539516,626.2,6,5,117.1,1.406
72.75,1,0.005,-0.008,0.006,-0.025,-0.035,0.005,-1.581,0.021,0.108,71.72,100.5,40.577484,-3.539516,626.2,6,5,117.1,1.406
72.85,1,-0.008,-0.003,0.003,-0.007,-0.016,0.006,-1.582,0.024,0.109,71.72,100.5,40.577484,-3.539516,626.2,6,5,117.1,1.406
72.95,1,-0.039,-0.005,0.014,-0.025,-0.009,0.007,-1.582,0.026,0.11,71.72,100.5,40.577484,-3.539516,626.2,6,5,117.1,1.406
73.05,1,-0.015,-0.012,-0.001,-0.014,-0.009,0.006,-1.582,0.029,0.111,71.72,100.5,40.577484,-3.539516,626.2,6,5,117.1,1.406
73.16,1,0.003,-0.004,-0.005,-0.016,-0.014,0.001,-1.581,0.028,0.112,71.72,100.5,40.577484,-3.539516,626.2,6,5,117.1,1.406
73.26,1,0.057,-0.012,0.0,0.025,-0.01,-0.003,-1.581,0.024,0.113,71.72,100.5,40.577484,-3.539516,626.2,6,5,117.1,1.406
73.35,1,-0.034,-0.026,0.009,0.01,-0.01,0.006,-1.581,0.028,0.114,72.74,101.1,40.57737,-3.539221,626.5,6,5,116.4,1.406
73.45,1,0.005,-0.01,0.001,-0.011,-0.017,0.003,-1.581,0.027,0.114,72.74,101.1,40.57737,-3.539221,626.5,6,5,116.4,1.406
73.55,1,-0.006,-0.003,-0.019,0.001,-0.005,-0.005,-1.581,0.026,0.115,72.74,101.1,40.57737,-3.539221,626.5,6,5,116.4,1.406
73.65,1,-0.04,0.002,0.002,-0.02,-0.003,-0.005,-1.58,0.027,0.116,72.74,101.1,40.57737,-3.539221,626.5,6,5,116.4,1.406
73.75,1,-0.043,-0.01,-0.002,-0.031,-0.004,-0.004,-1.581,0.026,0.116,72.74,101.1,40.57737,-3.539221,626.5,6,5,116.4,1.406
73.85,1,-0.022,0.025,-0.005,-0.034,0.006,-0.006,-1.58,0.024,0.116,72.74,101.1,40.57737,-3.539221,626.5,6,5,116.4,1.406
73.95,1,-0.011,0.027,0.024,-0.019,0.016,0.008,-1.582,0.023,0.115,72.74,101.1,40.57737,-3.539221,626.5,6,5,116.4,1.406
74.05,1,-0.023,0.014,0.008,-0.019,0.02,0.009,-1.583,0.019,0.114,72.74,101.1,40.57737,-3.539221,626.5,6,5,116.4,1.406
74.15,1,0.002,0.032,-0.001,-0.012,0.024,0.008,-1.583,0.016,0.113,72.74,101.1,40.57737,-3.539221,626.5,6,5,116.4,1.406
74.25,1,0.024,0.058,0.006,0.007,0.037,0.004,-1.582,0.014,0.112,72.74,101.1,40.57737,-3.539221,626.5,6,5,116.4,1.406
74.35,1,0.036,0.014,-0.003,0.021,0.036,0.0,-1.582,0.012,0.111,73.77,101.3,40.577267,-3.538924,627.0,4,5,115.3,1.758
74.46,1,0.023,0.031,0.002,0.025,0.026,0.002,-1.581,0.011,0.109,73.77,101.3,40.577267,-3.538924,627.0,4,5,115.3,1.758
74.55,1,-0.032,0.032,0.001,0.005,0.031,0.002,-1.581,0.006,0.108,73.77,101.3,40.577267,-3.538924,627.0,4,5,115.3,1.758
74.65,1,-0.034,-0.0,0.002,-0.017,0.016,-0.001,-1.582,0.005,0.107,73.77,101.3,40.577267,-3.538924,627.0,4,5,115.3,1.758
74.76,1,-0.049,0.032,0.01,-0.04,0.021,0.005,-1.584,0.004,0.106,73.77,101.3,40.577267,-3.538924,627.0,4,5,115.3,1.758
74.86,1,-0.045,0.007,0.015,-0.048,0.017,0.01,-1.585,0.003,0.105,73.77,101.3,40.577267,-3.538924,627.0,4,5,115.3,1.758
74.96,1,0.007,0.018,-0.0,-0.022,0.019,0.011,-1.586,0.003,0.104,73.77,101.3,40.577267,-3.538924,627.0,4,5,115.3,1.758
75.06,1,0.038,0.046,-0.003,0.013,0.023,-0.0,-1.589,0.003,0.102,73.77,101.3,40.577267,-3.538924,627.0,4,5,115.3,1.758
75.16,1,-0.032,0.026,-0.0,0.004,0.029,0.001,-1.591,0.004,0.101,73.77,101.3,40.577267,-3.538924,627.0,4,5,115.3,1.758
75.26,1,0.047,0.044,0.049,0.005,0.036,0.02,-1.591,0.004,0.1,73.77,101.3,40.577267,-3.538924,627.0,4,5,115.3,1.758
75.36,1,0.052,0.015,-0.009,0.047,0.036,0.017,-1.589,0.005,0.099,74.73,101.6,40.577171,-3.538624,627.3,6,5,115.0,1.406
75.46,1,-0.023,0.012,-0.024,0.006,0.021,-0.008,-1.587,0.007,0.098,74.73,101.6,40.577171,-3.538624,627.3,6,5,115.0,1.406
75.56,1,-0.001,0.01,0.019,-0.005,0.015,-0.003,-1.588,0.007,0.097,74.73,101.6,40.577171,-3.538624,627.3,6,5,115.0,1.406
75.68,1,-0.025,-0.004,0.009,-0.008,-0.001,0.007,-1.588,0.005,0.096,74.73,101.6,40.577171,-3.538624,627.3,6,5,115.0,1.406
75.76,1,-0.047,-0.018,-0.006,-0.022,-0.0,0.003,-1.586,0.003,0.095,74.73,101.6,40.577171,-3.538624,627.3,6,5,115.0,1.406
75.86,1,0.004,0.032,0.009,-0.028,-0.003,0.001,-1.585,0.001,0.094,74.73,101.6,40.577171,-3.538624,627.3,6,5,115.0,1.406
75.96,1,-0.038,0.001,-0.015,-0.023,0.013,0.001,-1.585,0.0,0.093,74.73,101.6,40.577171,-3.538624,627.3,6,5,115.0,1.406
76.07,1,-0.068,-0.023,0.007,-0.042,-0.001,-0.003,-1.586,0.001,0.093,74.73,101.6,40.577171,-3.538624,627.3,6,5,115.0,1.406
76.16,1,-0.014,-0.03,0.003,-0.043,-0.028,0.0,-1.587,0.0,0.093,74.73,101.6,40.577171,-3.538624,627.3,6,5,115.0,1.406
76.26,1,0.036,-0.021,-0.011,-0.008,-0.019,0.004,-1.588,0.002,0.093,74.73,101.6,40.577171,-3.538624,627.3,6,5,115.0,1.406
76.36,1,0.024,-0.025,-0.02,0.021,-0.019,-0.016,-1.584,0.006,0.093,75.73,102.0,40.577065,-3.538325,627.3,6,5,115.0,0.352
76.46,1,0.0,-0.02,0.014,0.018,-0.026,-0.001,-1.583,0.005,0.094,75.73,102.0,40.577065,-3.538325,627.3,6,5,115.0,0.352
76.56,1,-0.013,-0.019,0.001,-0.0,-0.019,0.001,-1.582,0.006,0.095,75.73,102.0,40.577065,-3.538325,627.3,6,5,115.0,0.352
76.66,1,-0.002,-0.027,0.003,-0.007,-0.025,0.004,-1.582,0.008,0.095,75.73,102.0,40.577065,-3.538325,627.3,6,5,115.0,0.352
76.76,1,0.004,-0.008,-0.006,0.006,-0.015,-0.002,-1.582,0.009,0.095,75.73,102.0,40.577065,-3.538325,627.3,6,5,115.0,0.352
76.86,1,-0.012,-0.035,-0.002,-0.002,-0.023,-0.0,-1.582,0.012,0.096,75.73,102.0,40.577065,-3.538325,627.3,6,5,115.0,0.352
76.96,1,-0.042,-0.036,-0.008,-0.027,-0.033,-0.006,-1.58,0.017,0.096,75.73,102.0,40.577065,-3.538325,627.3,6,5,115.0,0.352
77.06,1,-0.006,0.023,0.019,-0.025,-0.016,0.003,-1.582,0.019,0.096,75.73,102.0,40.577065,-3.538325,627.3,6,5,115.0,0.352
77.17,1,-0.004,0.026,-0.009,-0.004,0.016,0.004,-1.583,0.019,0.095,75.73,102.0,40.577065,-3.538325,627.3,6,5,115.0,0.352
77.26,1,-0.013,0.006,-0.017,-0.011,0.014,-0.008,-1.582,0.016,0.095,75.73,102.0,40.577065,-3.538325,627.3,6,5,115.0,0.352
77.37,1,-0.012,-0.007,0.005,-0.014,0.002,-0.007,-1.584,0.018,0.095,76.74,102.0,40.577065,-3.538325,627.3,6,5,115.0,0.352
77.47,1,0.01,0.025,0.003,-0.002,0.012,0.003,-1.585,0.016,0.094,76.74,102.0,40.577065,-3.538325,627.3,6,5,115.0,0.352
77.56,1,-0.01,-0.027,-0.005,0.0,-0.002,-0.002,-1.584,0.019,0.094,76.74,102.0,40.577065,-3.538325,627.3,6,5,115.0,0.352
77.66,1,-0.023,0.001,-0.012,-0.009,-0.006,-0.007,-1.584,0.02,0.093,76.74,102.0,40.577065,-3.538325,627.3,6,5,115.0,0.352
77.77,1,0.002,0.023,-0.007,-0.018,0.008,-0.007,-1.582,0.019,0.092,76.74,102.0,40.577065,-3.538325,627.3,6,5,115.0,0.352
77.87,1,0.029,0.029,-0.008,0.013,0.022,-0.007,-1.581,0.019,0.091,76.74,102.0,40.577065,-3.538325,627.3,6,5,115.0,0.352
77.97,1,-0.042,-0.003,-0.015,-0.004,0.017,-0.015,-1.58,0.021,0.09,76.74,102.0,40.577065,-3.538325,627.3,6,5,115.0,0.352
78.07,1,-0.025,0.033,-0.002,-0.022,0.015,-0.004,-1.581,0.018,0.09,76.74,102.0,40.577065,-3.538325,627.3,6,5,115.0,0.352
78.17,1,-0.044,0.026,-0.018,-0.032,0.02,-0.012,-1.581,0.014,0.089,76.74,102.0,40.577065,-3.538325,627.3,6,5,115.0,0.352
78.27,1,0.006,-0.001,0.001,-0.025,0.014,-0.007,-1.581,0.011,0.088,76.74,102.0,40.577065,-3.538325,627.3,6,5,115.0,0.352
78.37,1,0.069,0.035,0.0,0.029,0.018,-0.002,-1.581,0.011,0.087,77.72,102.5,40.576954,-3.538019,627.6,6,5,114.3,0.703
78.47,1,-0.087,-0.011,-0.038,-0.012,0.01,-0.018,-1.581,0.009,0.085,77.72,102.5,40.576954,-3.538019,627.6,6,5,114.3,0.703
78.57,1,-0.079,0.022,-0.019,-0.059,0.01,-0.023,-1.582,0.007,0.084,77.72,102.5,40.576954,-3.538019,627.6,6,5,114.3,0.703
78.67,1,0.001,0.033,0.002,-0.044,0.025,-0.009,-1.583,0.003,0.082,77.72,102.5,40.576954,-3.538019,627.6,6,5,114.3,0.703
78.77,1,0.014,0.049,-0.014,-0.012,0.032,-0.008,-1.581,0.003,0.08,77.72,102.5,40.576954,-3.538019,627.6,6,5,114.3,0.703
78.87,1,0.059,0.029,-0.022,0.034,0.042,-0.016,-1.581,0.002,0.077,77.72,102.5,40.576954,-3.538019,627.6,6,5,114.3,0.703
78.97,1,-0.012,0.012,0.015,0.019,0.027,-0.006,-1.581,0.0,0.075,77.72,102.5,40.576954,-3.538019,627.6,6,5,114.3,0.703
79.07,1,-0.016,0.024,-0.014,-0.004,0.014,-0.001,-1.581,0.001,0.072,77.72,102.5,40.576954,-3.538019,627.6,6,5,114.3,0.703
79.17,1,0.033,0.077,-0.02,0.004,0.049,-0.017,-1.58,-0.0,0.07,77.72,102.5,40.576954,-3.538019,627.6,6,5,114.3,0.703
79.28,1,-0.028,0.039,-0.025,0.008,0.053,-0.018,-1.58,-0.004,0.067,77.72,102.5,40.576954,-3.538019,627.6,6,5,114.3,0.703
79.37,1,-0.081,0.004,0.001,-0.044,0.022,-0.014,-1.578,-0.006,0.065,78.73,102.7,40.576744,-3.537405,627.7,4,5,113.6,0.703
79.47,1,0.033,0.061,-0.004,-0.023,0.034,-0.004,-1.577,-0.01,0.064,78.73,102.7,40.576744,-3.537405,627.7,4,5,113.6,0.703
79.57,1,0.016,0.002,-0.02,0.011,0.03,-0.011,-1.575,-0.007,0.062,78.73,102.7,40.576744,-3.537405,627.7,4,5,113.6,0.703
79.67,1,0.021,-0.022,-0.004,0.016,0.002,-0.013,-1.574,-0.007,0.061,78.73,102.7,40.576744,-3.537405,627.7,4,5,113.6,0.703
79.77,1,-0.011,-0.014,-0.005,0.007,-0.012,-0.006,-1.572,-0.004,0.06,78.73,102.7,40.576744,-3.537405,627.7,4,5,113.6,0.703
79.88,1,-0.053,0.008,-0.036,-0.019,-0.004,-0.018,-1.572,-0.005,0.058,78.73,102.7,40.576744,-3.537405,627.7,4,5,113.6,0.703
79.98,1,-0.127,-0.011,-0.013,-0.072,0.003,-0.02,-1.575,-0.005,0.057,78.73,102.7,40.576744,-3.537405,627.7,4,5,113.6,0.703
80.07,1,-0.054,-0.021,0.016,-0.085,-0.015,-0.003,-1.577,-0.008,0.055,78.73,102.7,40.576744,-3.537405,627.7,4,5,113.6,0.703
80.17,1,0.069,0.019,-0.005,-0.015,-0.001,0.001,-1.577,-0.008,0.054,78.73,102.7,40.576744,-3.537405,627.7,4,5,113.6,0.703
80.27,1,0.034,0.01,-0.015,0.03,0.004,-0.009,-1.576,-0.007,0.052,78.73,102.7,40.576744,-3.537405,627.7,4,5,113.6,0.703
80.37,1,-0.007,0.018,-0.003,0.016,0.011,-0.008,-1.576,-0.008,0.05,79.79,102.7,40.576645,-3.537097,628.3,6,5,113.9,0.352
80.47,1,-0.034,0.031,0.002,-0.013,0.023,-0.0,-1.576,-0.009,0.049,79.79,102.7,40.576645,-3.537097,628.3,6,5,113.9,0.352
80.57,1,-0.047,-0.005,-0.006,-0.029,0.013,-0.005,-1.576,-0.007,0.048,79.79,102.7,40.576645,-3.537097,628.3,6,5,113.9,0.352
80.67,1,-0.041,-0.005,0.001,-0.038,0.005,-0.002,-1.575,-0.007,0.046,79.79,102.7,40.576645,-3.537097,628.3,6,5,113.9,0.352
80.77,1,-0.005,0.026,0.01,-0.025,0.005,0.001,-1.576,-0.009,0.045,79.79,102.7,40.576645,-3.537097,628.3,6,5,113.9,0.352
80.88,1,-0.012,-0.014,0.014,-0.022,0.009,0.009,-1.577,-0.009,0.043,79.79,102.7,40.576645,-3.537097,628.3,6,5,113.9,0.352
80.98,1,0.008,-0.007,0.024,-0.001,-0.003,0.024,-1.579,-0.008,0.041,79.79,102.7,40.576645,-3.537097,628.3,6,5,113.9,0.352
81.08,1,-0.039,-0.007,-0.0,-0.014,-0.007,0.009,-1.578,-0.005,0.039,79.79,102.7,40.576645,-3.537097,628.3,6,5,113.9,0.352
81.18,1,-0.025,0.016,0.013,-0.02,-0.002,0.006,-1.58,-0.006,0.037,79.79,102.7,40.576645,-3.537097,628.3,6,5,113.9,0.352
81.28,1,-0.014,0.02,0.015,-0.025,0.011,0.012,-1.582,-0.009,0.035,79.79,102.7,40.576645,-3.537097,628.3,6,5,113.9,0.352
81.38,1,0.046,0.021,0.006,0.01,0.018,0.011,-1.583,-0.012,0.033,80.72,102.2,40.576542,-3.536789,628.3,6,5,114.3,0.703
81.48,1,-0.024,-0.016,-0.004,-0.001,0.009,0.007,-1.583,-0.011,0.031,80.72,102.2,40.576542,-3.536789,628.3,6,5,114.3,0.703
81.58,1,-0.083,0.004,0.01,-0.031,-0.006,0.001,-1.583,-0.009,0.029,80.72,102.2,40.576542,-3.536789,628.3,6,5,114.3,0.703
81.68,1,-0.055,0.018,0.027,-0.063,0.005,0.017,-1.586,-0.006,0.027,80.72,102.2,40.576542,-3.536789,628.3,6,5,114.3,0.703
81.78,1,-0.017,0.055,0.01,-0.042,0.034,0.018,-1.587,-0.002,0.025,80.72,102.2,40.576542,-3.536789,628.3,6,5,114.3,0.703
81.88,1,-0.021,0.001,0.018,-0.027,0.031,0.013,-1.589,-0.003,0.023,80.72,102.2,40.576542,-3.536789,628.3,6,5,114.3,0.703
81.98,1,-0.009,0.008,0.006,-0.024,0.009,0.013,-1.589,-0.005,0.021,80.72,102.2,40.576542,-3.536789,628.3,6,5,114.3,0.703
82.08,1,0.027,0.032,0.015,0.014,0.016,0.011,-1.59,-0.009,0.018,80.72,102.2,40.576542,-3.536789,628.3,6,5,114.3,0.703
82.18,1,0.004,0.012,-0.003,0.012,0.021,0.009,-1.591,-0.012,0.016,80.72,102.2,40.576542,-3.536789,628.3,6,5,114.3,0.703
82.28,1,-0.017,0.031,0.002,-0.002,0.024,0.003,-1.59,-0.013,0.014,80.72,102.2,40.576542,-3.536789,628.3,6,5,114.3,0.703
82.38,1,-0.068,-0.009,0.007,-0.031,0.015,0.002,-1.589,-0.014,0.012,81.72,103.2,40.576439,-3.536481,629.2,4,5,114.6,0.703
82.48,1,-0.049,0.004,0.029,-0.049,-0.0,0.015,-1.589,-0.018,0.009,81.72,103.2,40.576439,-3.536481,629.2,4,5,114.6,0.703
82.58,1,0.001,0.037,0.027,-0.032,0.014,0.026,-1.589,-0.022,0.006,81.72,103.2,40.576439,-3.536481,629.2,4,5,114.6,0.703
82.68,1,0.003,0.036,0.01,-0.009,0.033,0.02,-1.59,-0.026,0.002,81.72,103.2,40.576439,-3.536481,629.2,4,5,114.6,0.703
82.78,1,-0.039,0.022,0.023,-0.016,0.029,0.017,-1.591,-0.029,-0.001,81.72,103.2,40.576439,-3.536481,629.2,4,5,114.6,0.703
82.88,1,-0.014,0.031,0.027,-0.025,0.026,0.019,-1.593,-0.031,-0.004,81.72,103.2,40.576439,-3.536481,629.2,4,5,114.6,0.703
82.98,1,-0.008,0.0,0.016,-0.016,0.014,0.024,-1.597,-0.031,-0.007,81.72,103.2,40.576439,-3.536481,629.2,4,5,114.6,0.703
83.08,1,0.008,0.009,0.01,-0.003,0.012,0.016,-1.598,-0.031,-0.01,81.72,103.2,40.576439,-3.536481,629.2,4,5,114.6,0.703
83.18,1,-0.007,-0.015,0.033,0.004,0.005,0.02,-1.598,-0.031,-0.013,81.72,103.2,40.576439,-3.536481,629.2,4,5,114.6,0.703
83.28,1,-0.047,0.014,0.005,-0.024,0.001,0.017,-1.6,-0.034,-0.015,81.72,103.2,40.576439,-3.536481,629.2,4,5,114.6,0.703
83.39,1,-0.041,-0.014,0.002,-0.038,-0.002,0.006,-1.601,-0.033,-0.018,82.72,102.7,40.576332,-3.536187,629.5,4,5,115.0,0.703
83.49,1,-0.018,0.014,0.022,-0.032,-0.001,0.012,-1.602,-0.033,-0.02,82.72,102.7,40.576332,-3.536187,629.5,4,5,115.0,0.703
83.59,1,-0.003,-0.014,0.003,-0.014,0.002,0.011,-1.604,-0.033,-0.022,82.72,102.7,40.576332,-3.536187,629.5,4,5,115.0,0.703
83.68,1,-0.012,-0.027,-0.006,-0.015,-0.011,0.001,-1.604,-0.032,-0.024,82.72,102.7,40.576332,-3.536187,629.5,4,5,115.0,0.703
83.78,1,-0.075,-0.053,0.013,-0.038,-0.029,0.007,-1.603,-0.031,-0.026,82.72,102.7,40.576332,-3.536187,629.5,4,5,115.0,0.703
83.88,1,-0.015,-0.02,-0.018,-0.037,-0.039,-0.004,-1.603,-0.031,-0.028,82.72,102.7,40.576332,-3.536187,629.5,4,5,115.0,0.703
83.99,1,-0.006,-0.014,0.017,-0.009,-0.025,0.003,-1.604,-0.031,-0.03,82.72,102.7,40.576332,-3.536187,629.5,4,5,115.0,0.703
84.09,1,-0.042,-0.03,-0.001,-0.034,-0.027,0.005,-1.606,-0.032,-0.032,82.72,102.7,40.576332,-3.536187,629.5,4,5,115.0,0.703
84.19,1,-0.02,-0.02,0.023,-0.03,-0.027,0.007,-1.607,-0.03,-0.034,82.72,102.7,40.576332,-3.536187,629.5,4,5,115.0,0.703
84.29,1,-0.007,-0.004,-0.003,-0.012,-0.013,0.009,-1.607,-0.031,-0.036,82.72,102.7,40.576332,-3.536187,629.5,4,5,115.0,0.703
84.39,1,0.015,-0.023,0.017,-0.004,-0.014,0.005,-1.607,-0.029,-0.037,83.76,103.8,40.576218,-3.535878,630.0,4,5,116.0,1.406
84.49,1,0.004,-0.021,-0.007,0.008,-0.019,0.005,-1.605,-0.027,-0.039,83.76,103.8,40.576218,-3.535878,630.0,4,5,116.0,1.406
84.59,1,-0.009,-0.011,0.035,-0.005,-0.013,0.017,-1.604,-0.024,-0.041,83.76,103.8,40.576218,-3.535878,630.0,4,5,116.0,1.406
84.69,1,-0.042,-0.025,0.012,-0.02,-0.019,0.017,-1.606,-0.022,-0.042,83.76,103.8,40.576218,-3.535878,630.0,4,5,116.0,1.406
84.79,1,-0.043,-0.015,0.022,-0.039,-0.024,0.018,-1.608,-0.023,-0.044,83.76,103.8,40.576218,-3.535878,630.0,4,5,116.0,1.406
84.89,1,-0.007,-0.004,-0.008,-0.024,-0.009,0.007,-1.61,-0.023,-0.045,83.76,103.8,40.576218,-3.535878,630.0,4,5,116.0,1.406
84.99,1,-0.039,-0.022,-0.006,-0.025,-0.013,-0.001,-1.609,-0.022,-0.047,83.76,103.8,40.576218,-3.535878,630.0,4,5,116.0,1.406
85.09,1,-0.025,-0.021,0.011,-0.025,-0.017,0.002,-1.611,-0.023,-0.049,83.76,103.8,40.576218,-3.535878,630.0,4,5,116.0,1.406
85.19,1,-0.02,-0.002,-0.012,-0.023,-0.012,-0.002,-1.611,-0.023,-0.051,83.76,103.8,40.576218,-3.535878,630.0,4,5,116.0,1.406
85.29,1,-0.029,0.006,-0.009,-0.025,-0.005,-0.009,-1.611,-0.023,-0.053,83.76,103.8,40.576218,-3.535878,630.0,4,5,116.0,1.406
85.39,1,-0.018,-0.003,-0.001,-0.031,-0.002,-0.001,-1.611,-0.026,-0.056,84.77,104.4,40.576096,-3.535578,630.8,4,5,116.7,1.758
85.49,1,0.024,0.027,0.009,-0.003,0.008,0.004,-1.609,-0.027,-0.058,84.77,104.4,40.576096,-3.535578,630.8,4,5,116.7,1.758
85.59,1,-0.003,-0.024,0.0,0.007,0.01,0.004,-1.611,-0.026,-0.061,84.77,104.4,40.576096,-3.535578,630.8,4,5,116.7,1.758
85.69,1,-0.024,-0.005,0.016,-0.007,-0.01,0.008,-1.611,-0.028,-0.064,84.77,104.4,40.576096,-3.535578,630.8,4,5,116.7,1.758
85.79,1,-0.022,0.005,-0.004,-0.024,-0.006,0.003,-1.611,-0.031,-0.066,84.77,104.4,40.576096,-3.535578,630.8,4,5,116.7,1.758
85.89,1,0.001,-0.018,0.01,-0.011,0.002,0.001,-1.612,-0.032,-0.069,84.77,104.4,40.576096,-3.535578,630.8,4,5,116.7,1.758
86.0,1,0.031,-0.009,0.003,0.009,-0.014,0.008,-1.614,-0.032,-0.071,84.77,104.4,40.576096,-3.535578,630.8,4,5,116.7,1.758
86.09,1,-0.004,0.004,-0.02,0.017,-0.008,-0.001,-1.612,-0.03,-0.073,84.77,104.4,40.576096,-3.535578,630.8,4,5,116.7,1.758
86.19,1,-0.055,-0.01,-0.015,-0.022,-0.006,-0.016,-1.612,-0.028,-0.075,84.77,104.4,40.576096,-3.535578,630.8,4,5,116.7,1.758
86.29,1,-0.016,0.022,-0.015,-0.036,0.004,-0.011,-1.613,-0.031,-0.077,84.77,104.4,40.576096,-3.535578,630.8,4,5,116.7,1.758
86.39,1,-0.027,-0.008,-0.014,-0.018,0.009,-0.018,-1.611,-0.03,-0.079,85.81,104.7,40.575974,-3.535271,631.4,4,5,117.1,1.055
86.5,1,-0.048,-0.035,0.001,-0.033,-0.014,-0.008,-1.611,-0.025,-0.08,85.81,104.7,40.575974,-3.535271,631.4,4,5,117.1,1.055
86.6,1,0.052,0.026,0.003,-0.006,-0.011,-0.005,-1.613,-0.023,-0.082,85.81,104.7,40.575974,-3.535271,631.4,4,5,117.1,1.055
86.69,1,-0.052,-0.062,0.015,-0.002,-0.013,0.007,-1.616,-0.024,-0.084,85.81,104.7,40.575974,-3.535271,631.4,4,5,117.1,1.055
86.89,1,0.059,0.054,-0.004,0.015,0.01,0.007,-1.615,-0.03,-0.089,85.81,104.7,40.575974,-3.535271,631.4,4,5,117.1,1.055
87.0,1,-0.027,0.018,-0.008,0.003,0.022,-0.008,-1.615,-0.03,-0.091,85.81,104.7,40.575974,-3.535271,631.4,4,5,117.1,1.055
87.1,1,-0.015,-0.014,-0.008,-0.013,0.012,-0.003,-1.616,-0.031,-0.093,85.81,104.7,40.575974,-3.535271,631.4,4,5,117.1,1.055
87.2,1,-0.001,0.019,-0.017,-0.009,0.002,-0.013,-1.615,-0.032,-0.096,85.81,104.7,40.575974,-3.535271,631.4,4,5,117.1,1.055
87.29,1,0.018,-0.006,0.008,0.002,0.007,-0.007,-1.615,-0.032,-0.099,85.81,104.7,40.575974,-3.535271,631.4,4,5,117.1,1.055
87.39,1,-0.007,0.006,-0.022,0.005,-0.002,-0.006,-1.614,-0.033,-0.102,85.81,104.7,40.575974,-3.535271,631.4,4,5,117.1,1.055
87.5,1,-0.022,0.049,-0.029,-0.011,0.025,-0.018,-1.614,-0.034,-0.105,86.76,106.2,40.575851,-3.534968,632.5,4,5,118.1,1.406
87.6,1,-0.017,0.087,-0.018,-0.012,0.06,-0.018,-1.615,-0.035,-0.108,86.76,106.2,40.575851,-3.534968,632.5,4,5,118.1,1.406
87.7,1,0.023,0.034,-0.04,-0.006,0.05,-0.029,-1.614,-0.036,-0.111,86.76,106.2,40.575851,-3.534968,632.5,4,5,118.1,1.406
87.81,1,-0.011,0.026,-0.056,0.002,0.036,-0.045,-1.612,-0.038,-0.115,86.76,106.2,40.575851,-3.534968,632.5,4,5,118.1,1.406
87.9,1,-0.019,0.031,-0.027,-0.012,0.033,-0.041,-1.609,-0.044,-0.118,86.76,106.2,40.575851,-3.534968,632.5,4,5,118.1,1.406
88.0,1,0.004,0.039,-0.045,-0.005,0.039,-0.04,-1.606,-0.051,-0.121,86.76,106.2,40.575851,-3.534968,632.5,4,5,118.1,1.406
88.1,1,0.003,0.035,-0.009,-0.008,0.039,-0.028,-1.603,-0.056,-0.124,86.76,106.2,40.575851,-3.534968,632.5,4,5,118.1,1.406
88.2,1,-0.022,0.015,-0.026,0.003,0.03,-0.021,-1.6,-0.054,-0.127,86.76,106.2,40.575851,-3.534968,632.5,4,5,118.1,1.406
88.3,1,-0.061,-0.026,-0.017,-0.039,-0.001,-0.023,-1.596,-0.058,-0.13,86.76,106.2,40.575851,-3.534968,632.5,4,5,118.1,1.406
88.41,1,0.012,0.018,0.006,-0.027,-0.003,-0.01,-1.596,-0.061,-0.132,86.76,106.2,40.575851,-3.534968,632.5,4,5,118.1,1.406
88.5,1,0.01,0.006,-0.031,0.002,0.007,-0.011,-1.595,-0.065,-0.135,87.73,106.5,40.575722,-3.534653,633.1,4,5,119.2,2.109
88.6,1,-0.055,-0.008,0.013,-0.015,-0.001,-0.009,-1.597,-0.066,-0.138,87.73,106.5,40.575722,-3.534653,633.1,4,5,119.2,2.109
88.7,1,0.038,-0.02,-0.012,-0.005,-0.01,-0.006,-1.595,-0.063,-0.14,87.73,106.5,40.575722,-3.534653,633.1,4,5,119.2,2.109
88.8,1,0.02,-0.028,-0.013,0.018,-0.021,-0.012,-1.592,-0.059,-0.141,87.73,106.5,40.575722,-3.534653,633.1,4,5,119.2,2.109
88.9,1,-0.004,-0.039,0.003,0.007,-0.028,-0.005,-1.592,-0.057,-0.143,87.73,106.5,40.575722,-3.534653,633.1,4,5,119.2,2.109
89.0,1,-0.014,-0.031,-0.01,-0.004,-0.026,-0.0,-1.591,-0.054,-0.144,87.73,106.5,40.575722,-3.534653,633.1,4,5,119.2,2.109
89.11,1,-0.099,-0.044,-0.007,-0.044,-0.038,-0.007,-1.591,-0.055,-0.145,87.73,106.5,40.575722,-3.534653,633.1,4,5,119.2,2.109
89.2,1,-0.053,-0.046,0.006,-0.064,-0.043,-0.002,-1.591,-0.05,-0.146,87.73,106.5,40.575722,-3.534653,633.1,4,5,119.2,2.109
89.3,1,0.007,-0.067,-0.019,-0.036,-0.05,-0.01,-1.592,-0.048,-0.146,87.73,106.5,40.575722,-3.534653,633.1,4,5,119.2,2.109
89.41,1,0.007,0.008,0.0,-0.0,-0.03,-0.003,-1.592,-0.047,-0.146,87.73,106.5,40.575722,-3.534653,633.1,4,5,119.2,2.109
89.5,1,0.007,-0.019,-0.011,-0.002,-0.024,-0.007,-1.592,-0.046,-0.146,88.72,106.7,40.575588,-3.534358,633.9,4,5,120.6,2.461
89.61,1,-0.016,-0.061,-0.007,-0.0,-0.031,-0.012,-1.594,-0.046,-0.146,88.72,106.7,40.575588,-3.534358,633.9,4,5,120.6,2.461
89.7,1,-0.053,-0.073,0.015,-0.024,-0.061,0.003,-1.594,-0.047,-0.146,88.72,106.7,40.575588,-3.534358,633.9,4,5,120.6,2.461
89.8,1,0.003,-0.064,-0.011,-0.028,-0.059,0.003,-1.592,-0.043,-0.147,88.72,106.7,40.575588,-3.534358,633.9,4,5,120.6,2.461
89.91,1,0.113,-0.041,-0.001,0.046,-0.053,-0.002,-1.591,-0.043,-0.147,88.72,106.7,40.575588,-3.534358,633.9,4,5,120.6,2.461
90.0,1,-0.09,-0.087,-0.048,-0.036,-0.076,-0.034,-1.592,-0.042,-0.146,88.72,106.7,40.575588,-3.534358,633.9,4,5,120.6,2.461
90.11,1,-0.12,-0.033,0.072,-0.076,-0.061,0.016,-1.596,-0.043,-0.147,88.72,106.7,40.575588,-3.534358,633.9,4,5,120.6,2.461
90.21,1,0.039,-0.014,0.029,-0.018,-0.026,0.034,-1.594,-0.044,-0.147,88.72,106.7,40.575588,-3.534358,633.9,4,5,120.6,2.461
90.32,1,0.108,-0.012,-0.04,0.058,-0.017,0.008,-1.59,-0.044,-0.148,88.72,106.7,40.575588,-3.534358,633.9,4,5,120.6,2.461
90.4,1,0.06,-0.023,-0.005,0.07,-0.023,-0.016,-1.588,-0.043,-0.148,88.72,106.7,40.575588,-3.534358,633.9,4,5,120.6,2.461
90.5,1,-0.033,0.014,0.008,0.021,-0.006,-0.001,-1.589,-0.045,-0.149,89.73,106.0,40.575451,-3.534056,635.0,4,5,121.3,2.461
90.61,1,-0.111,-0.015,0.01,-0.045,-0.001,0.005,-1.588,-0.045,-0.15,89.73,106.0,40.575451,-3.534056,635.0,4,5,121.3,2.461
90.71,1,0.018,-0.013,-0.012,-0.038,-0.01,0.001,-1.587,-0.042,-0.15,89.73,106.0,40.575451,-3.534056,635.0,4,5,121.3,2.461
90.82,1,0.063,-0.019,-0.001,0.025,-0.009,-0.005,-1.588,-0.039,-0.151,89.73,106.0,40.575451,-3.534056,635.0,4,5,121.3,2.461
90.91,1,-0.025,-0.041,0.002,0.012,-0.025,-0.002,-1.59,-0.036,-0.151,89.73,106.0,40.575451,-3.534056,635.0,4,5,121.3,2.461
91.01,1,-0.018,0.001,0.028,-0.015,-0.027,0.012,-1.591,-0.035,-0.152,89.73,106.0,40.575451,-3.534056,635.0,4,5,121.3,2.461
91.11,1,-0.026,-0.003,0.01,-0.015,-0.007,0.015,-1.59,-0.037,-0.153,89.73,106.0,40.575451,-3.534056,635.0,4,5,121.3,2.461
91.22,1,-0.021,0.042,-0.01,-0.015,0.014,0.004,-1.59,-0.036,-0.153,89.73,106.0,40.575451,-3.534056,635.0,4,5,121.3,2.461
91.31,1,0.008,0.002,0.009,-0.018,0.015,0.004,-1.59,-0.035,-0.154,89.73,106.0,40.575451,-3.534056,635.0,4,5,121.3,2.461
91.42,1,-0.018,-0.019,0.02,-0.006,-0.002,0.011,-1.592,-0.033,-0.154,89.73,106.0,40.575451,-3.534056,635.0,4,5,121.3,2.461
91.51,1,0.001,-0.026,-0.01,-0.015,-0.017,0.004,-1.592,-0.032,-0.155,90.72,106.0,40.575314,-3.533758,635.3,4,5,121.6,1.055
91.61,1,0.031,0.001,0.037,0.015,-0.007,0.014,-1.593,-0.034,-0.156,90.72,106.0,40.575314,-3.533758,635.3,4,5,121.6,1.055
91.71,1,-0.007,-0.022,0.011,0.009,-0.013,0.022,-1.593,-0.032,-0.156,90.72,106.0,40.575314,-3.533758,635.3,4,5,121.6,1.055
91.81,1,-0.02,-0.026,0.024,-0.0,-0.018,0.015,-1.594,-0.026,-0.156,90.72,106.0,40.575314,-3.533758,635.3,4,5,121.6,1.055
91.91,1,-0.029,-0.021,0.016,-0.021,-0.025,0.021,-1.597,-0.024,-0.157,90.72,106.0,40.575314,-3.533758,635.3,4,5,121.6,1.055
92.02,1,-0.013,-0.011,0.012,-0.024,-0.019,0.013,-1.598,-0.026,-0.157,90.72,106.0,40.575314,-3.533758,635.3,4,5,121.6,1.055
92.11,1,0.026,-0.003,0.009,0.002,-0.011,0.015,-1.602,-0.026,-0.157,90.72,106.0,40.575314,-3.533758,635.3,4,5,121.6,1.055
92.21,1,-0.017,0.008,-0.007,0.001,-0.004,0.001,-1.603,-0.027,-0.157,90.72,106.0,40.575314,-3.533758,635.3,4,5,121.6,1.055
92.31,1,-0.006,-0.005,-0.009,-0.006,0.001,-0.005,-1.602,-0.026,-0.157,90.72,106.0,40.575314,-3.533758,635.3,4,5,121.6,1.055
92.41,1,-0.03,0.006,-0.001,-0.022,-0.005,-0.004,-1.602,-0.027,-0.158,90.72,106.0,40.575314,-3.533758,635.3,4,5,121.6,1.055
92.54,1,0.018,0.065,0.014,-0.004,0.031,0.001,-1.601,-0.035,-0.161,91.73,106.2,40.575172,-3.533463,635.9,4,5,122.3,1.055
92.62,1,-0.045,0.036,0.018,-0.017,0.04,0.019,-1.604,-0.042,-0.163,91.73,106.2,40.575172,-3.533463,635.9,4,5,122.3,1.055
92.72,1,-0.007,0.07,-0.012,-0.02,0.058,0.001,-1.604,-0.052,-0.166,91.73,106.2,40.575172,-3.533463,635.9,4,5,122.3,1.055
92.81,1,0.007,0.043,0.008,-0.007,0.052,0.002,-1.605,-0.057,-0.168,91.73,106.2,40.575172,-3.533463,635.9,4,5,122.3,1.055
92.91,1,0.031,0.048,0.019,0.014,0.046,0.01,-1.605,-0.056,-0.17,91.73,106.2,40.575172,-3.533463,635.9,4,5,122.3,1.055
93.01,1,0.049,0.03,0.018,0.027,0.042,0.015,-1.604,-0.056,-0.173,91.73,106.2,40.575172,-3.533463,635.9,4,5,122.3,1.055
93.11,1,-0.044,0.05,0.013,-0.004,0.039,0.015,-1.604,-0.058,-0.175,91.73,106.2,40.575172,-3.533463,635.9,4,5,122.3,1.055
93.21,1,-0.122,-0.003,0.003,-0.054,0.025,0.012,-1.607,-0.059,-0.178,91.73,106.2,40.575172,-3.533463,635.9,4,5,122.3,1.055
93.31,1,0.0,0.02,0.028,-0.041,0.015,0.014,-1.609,-0.062,-0.179,91.73,106.2,40.575172,-3.533463,635.9,4,5,122.3,1.055
93.41,1,-0.036,0.02,0.003,-0.032,0.02,0.014,-1.61,-0.061,-0.18,91.73,106.2,40.575172,-3.533463,635.9,4,5,122.3,1.055
93.51,1,0.022,0.019,0.018,-0.005,0.022,0.015,-1.611,-0.063,-0.18,92.75,106.3,40.575035,-3.533165,636.4,4,5,122.3,0.703
93.61,1,-0.04,-0.049,-0.012,-0.019,-0.012,0.003,-1.611,-0.063,-0.181,92.75,106.3,40.575035,-3.533165,636.4,4,5,122.3,0.703
93.72,1,0.021,0.008,0.006,-0.012,-0.013,-0.001,-1.612,-0.062,-0.181,92.75,106.3,40.575035,-3.533165,636.4,4,5,122.3,0.703
93.82,1,-0.018,-0.003,-0.002,0.001,0.004,0.002,-1.61,-0.059,-0.181,92.75,106.3,40.575035,-3.533165,636.4,4,5,122.3,0.703
93.92,1,-0.02,-0.017,0.02,-0.018,-0.014,0.011,-1.609,-0.053,-0.18,92.75,106.3,40.575035,-3.533165,636.4,4,5,122.3,0.703
94.02,1,-0.006,-0.043,-0.009,-0.011,-0.026,0.001,-1.61,-0.048,-0.18,92.75,106.3,40.575035,-3.533165,636.4,4,5,122.3,0.703
94.12,1,-0.012,-0.051,-0.016,-0.014,-0.04,-0.003,-1.61,-0.046,-0.18,92.75,106.3,40.575035,-3.533165,636.4,4,5,122.3,0.703
94.22,1,0.042,-0.003,-0.016,0.012,-0.029,-0.015,-1.61,-0.049,-0.18,92.75,106.3,40.575035,-3.533165,636.4,4,5,122.3,0.703
94.32,1,-0.015,0.007,-0.008,0.011,-0.007,-0.013,-1.608,-0.05,-0.18,92.75,106.3,40.575035,-3.533165,636.4,4,5,122.3,0.703
94.42,1,-0.053,-0.002,0.009,-0.023,-0.001,-0.005,-1.608,-0.048,-0.18,92.75,106.3,40.575035,-3.533165,636.4,4,5,122.3,0.703
94.52,1,0.003,-0.013,-0.002,-0.02,-0.004,0.004,-1.607,-0.041,-0.18,93.75,106.8,40.574886,-3.53287,637.4,6,5,123.8,1.406
94.62,1,0.024,-0.022,-0.005,0.006,-0.015,-0.001,-1.607,-0.04,-0.179,93.75,106.8,40.574886,-3.53287,637.4,6,5,123.8,1.406
94.72,1,0.001,-0.07,-0.003,0.008,-0.04,-0.004,-1.607,-0.037,-0.178,93.75,106.8,40.574886,-3.53287,637.4,6,5,123.8,1.406
94.82,1,-0.071,-0.076,0.011,-0.024,-0.057,0.002,-1.605,-0.032,-0.177,93.75,106.8,40.574886,-3.53287,637.4,6,5,123.8,1.406
94.92,1,-0.031,-0.044,0.035,-0.049,-0.061,0.019,-1.604,-0.029,-0.175,93.75,106.8,40.574886,-3.53287,637.4,6,5,123.8,1.406
95.03,1,0.032,-0.037,0.015,-0.005,-0.041,0.019,-1.605,-0.025,-0.174,93.75,106.8,40.574886,-3.53287,637.4,6,5,123.8,1.406
95.13,1,0.041,-0.051,0.0,0.032,-0.043,0.015,-1.607,-0.02,-0.172,93.75,106.8,40.574886,-3.53287,637.4,6,5,123.8,1.406
95.22,1,-0.008,-0.09,-0.003,0.018,-0.068,0.001,-1.607,-0.014,-0.169,93.75,106.8,40.574886,-3.53287,637.4,6,5,123.8,1.406
95.32,1,-0.005,-0.047,-0.013,-0.004,-0.066,-0.006,-1.606,-0.01,-0.166,93.75,106.8,40.574886,-3.53287,637.4,6,5,123.8,1.406
95.42,1,-0.027,-0.049,0.023,-0.022,-0.055,0.001,-1.606,-0.007,-0.163,93.75,106.8,40.574886,-3.53287,637.4,6,5,123.8,1.406
95.53,1,-0.023,-0.011,-0.009,-0.017,-0.037,0.009,-1.604,-0.002,-0.161,94.77,107.5,40.574734,-3.532572,638.2,6,5,124.1,1.758
95.62,1,-0.042,-0.024,-0.009,-0.027,-0.025,-0.008,-1.603,0.001,-0.158,94.77,107.5,40.574734,-3.532572,638.2,6,5,124.1,1.758
95.72,1,-0.015,-0.026,0.006,-0.027,-0.025,-0.002,-1.603,0.004,-0.155,94.77,107.5,40.574734,-3.532572,638.2,6,5,124.1,1.758
95.82,1,-0.023,-0.055,0.012,-0.024,-0.033,0.009,-1.605,0.008,-0.152,94.77,107.5,40.574734,-3.532572,638.2,6,5,124.1,1.758
95.92,1,0.022,-0.042,0.005,-0.006,-0.042,0.009,-1.605,0.013,-0.149,94.77,107.5,40.574734,-3.532572,638.2,6,5,124.1,1.758
96.02,1,-0.005,-0.021,-0.022,0.009,-0.036,-0.008,-1.602,0.013,-0.147,94.77,107.5,40.574734,-3.532572,638.2,6,5,124.1,1.758
96.13,1,-0.054,-0.067,-0.004,-0.026,-0.048,-0.01,-1.602,0.014,-0.144,94.77,107.5,40.574734,-3.532572,638.2,6,5,124.1,1.758
96.23,1,-0.025,-0.014,-0.008,-0.033,-0.036,-0.005,-1.603,0.015,-0.141,94.77,107.5,40.574734,-3.532572,638.2,6,5,124.1,1.758
96.33,1,-0.027,-0.022,-0.015,-0.028,-0.027,-0.012,-1.601,0.02,-0.138,94.77,107.5,40.574734,-3.532572,638.2,6,5,124.1,1.758
96.42,1,0.027,-0.03,-0.015,-0.006,-0.024,-0.013,-1.599,0.025,-0.135,94.77,107.5,40.574734,-3.532572,638.2,6,5,124.1,1.758
96.52,1,0.014,-0.003,-0.001,0.012,-0.018,-0.005,-1.598,0.028,-0.132,95.8,107.5,40.574581,-3.532274,638.9,6,5,123.8,0.352
96.62,1,0.016,-0.012,-0.004,0.013,-0.015,-0.007,-1.597,0.03,-0.129,95.8,107.5,40.574581,-3.532274,638.9,6,5,123.8,0.352
96.72,1,-0.003,0.003,-0.009,0.005,-0.011,-0.009,-1.596,0.028,-0.126,95.8,107.5,40.574581,-3.532274,638.9,6,5,123.8,0.352
96.83,1,-0.021,0.002,-0.011,-0.004,0.005,-0.009,-1.595,0.027,-0.124,95.8,107.5,40.574581,-3.532274,638.9,6,5,123.8,0.352
96.94,1,-0.059,-0.007,-0.011,-0.029,-0.005,-0.01,-1.595,0.029,-0.122,95.8,107.5,40.574581,-3.532274,638.9,6,5,123.8,0.352
97.03,1,-0.075,-0.003,-0.01,-0.055,0.004,-0.009,-1.595,0.03,-0.119,95.8,107.5,40.574581,-3.532274,638.9,6,5,123.8,0.352
97.13,1,-0.005,-0.007,0.005,-0.047,-0.01,-0.004,-1.595,0.028,-0.117,95.8,107.5,40.574581,-3.532274,638.9,6,5,123.8,0.352
97.23,1,-0.014,-0.0,-0.001,-0.014,0.001,-0.002,-1.595,0.025,-0.115,95.8,107.5,40.574581,-3.532274,638.9,6,5,123.8,0.352
97.33,1,0.051,0.031,0.0,0.007,0.013,-0.001,-1.596,0.026,-0.113,95.8,107.5,40.574581,-3.532274,638.9,6,5,123.8,0.352
97.43,1,0.007,-0.024,-0.017,0.025,-0.002,-0.007,-1.594,0.031,-0.11,95.8,107.5,40.574581,-3.532274,638.9,6,5,123.8,0.352
97.53,1,-0.013,0.018,-0.003,-0.006,0.001,-0.008,-1.595,0.032,-0.108,96.73,107.5,40.574436,-3.531976,639.6,6,5,122.7,0.352
97.63,1,-0.008,0.016,0.001,0.0,0.014,-0.003,-1.594,0.03,-0.105,96.73,107.5,40.574436,-3.531976,639.6,6,5,122.7,0.352
97.73,1,-0.036,0.007,-0.014,-0.024,0.012,-0.008,-1.594,0.028,-0.103,96.73,107.5,40.574436,-3.531976,639.6,6,5,122.7,0.352
97.83,1,0.014,0.011,-0.001,-0.009,0.004,-0.005,-1.594,0.028,-0.101,96.73,107.5,40.574436,-3.531976,639.6,6,5,122.7,0.352
97.94,1,0.004,0.01,-0.012,0.002,0.013,-0.006,-1.593,0.029,-0.099,96.73,107.5,40.574436,-3.531976,639.6,6,5,122.7,0.352
98.03,1,-0.021,0.009,0.005,-0.006,0.007,-0.006,-1.594,0.029,-0.097,96.73,107.5,40.574436,-3.531976,639.6,6,5,122.7,0.352
98.13,1,-0.033,0.011,0.001,-0.022,0.011,0.001,-1.594,0.029,-0.094,96.73,107.5,40.574436,-3.531976,639.6,6,5,122.7,0.352
98.23,1,-0.007,0.004,0.006,-0.017,0.01,0.002,-1.594,0.026,-0.092,96.73,107.5,40.574436,-3.531976,639.6,6,5,122.7,0.352
98.33,1,-0.005,0.009,0.001,-0.01,0.006,0.006,-1.594,0.027,-0.09,96.73,107.5,40.574436,-3.531976,639.6,6,5,122.7,0.352
98.43,1,-0.027,0.003,0.0,-0.015,0.005,0.001,-1.593,0.028,-0.088,96.73,107.5,40.574436,-3.531976,639.6,6,5,122.7,0.352
98.53,1,-0.008,-0.002,-0.007,-0.014,0.003,-0.006,-1.591,0.028,-0.086,97.73,107.9,40.574295,-3.531675,640.5,6,5,121.6,2.109
98.63,1,-0.06,0.004,-0.017,-0.033,-0.001,-0.009,-1.59,0.028,-0.084,97.73,107.9,40.574295,-3.531675,640.5,6,5,121.6,2.109
98.73,1,0.034,0.001,-0.005,-0.019,0.0,-0.008,-1.593,0.027,-0.081,97.73,107.9,40.574295,-3.531675,640.5,6,5,121.6,2.109
98.83,1,-0.017,-0.021,0.004,0.001,-0.004,-0.002,-1.594,0.026,-0.079,97.73,107.9,40.574295,-3.531675,640.5,6,5,121.6,2.109
98.93,1,-0.088,-0.018,-0.002,-0.036,-0.016,-0.002,-1.592,0.025,-0.077,97.73,107.9,40.574295,-3.531675,640.5,6,5,121.6,2.109
99.03,1,0.036,0.024,-0.006,-0.018,0.004,-0.001,-1.591,0.025,-0.075,97.73,107.9,40.574295,-3.531675,640.5,6,5,121.6,2.109
99.13,1,-0.024,-0.004,-0.015,-0.003,0.007,-0.008,-1.592,0.026,-0.073,97.73,107.9,40.574295,-3.531675,640.5,6,5,121.6,2.109
99.23,1,-0.026,-0.013,0.002,-0.029,-0.003,-0.01,-1.592,0.027,-0.071,97.73,107.9,40.574295,-3.531675,640.5,6,5,121.6,2.109
99.34,1,0.037,0.012,0.004,-0.001,-0.0,0.004,-1.592,0.031,-0.068,97.73,107.9,40.574295,-3.531675,640.5,6,5,121.6,2.109
99.44,1,0.008,0.016,-0.002,0.021,0.01,-0.001,-1.59,0.032,-0.066,97.73,107.9,40.574295,-3.531675,640.5,6,5,121.6,2.109
99.53,1,-0.0,0.001,0.003,-0.002,0.004,-0.001,-1.59,0.033,-0.064,98.73,107.8,40.574158,-3.53137,641.2,6,5,120.9,1.758
99.63,1,0.007,0.001,-0.001,0.001,0.003,0.001,-1.591,0.028,-0.062,98.73,107.8,40.574158,-3.53137,641.2,6,5,120.9,1.758
99.73,1,-0.075,-0.013,-0.013,-0.023,-0.002,-0.003,-1.591,0.027,-0.06,98.73,107.8,40.574158,-3.53137,641.2,6,5,120.9,1.758
99.84,1,-0.037,0.014,0.003,-0.042,-0.001,-0.004,-1.59,0.025,-0.058,98.73,107.8,40.574158,-3.53137,641.2,6,5,120.9,1.758
99.93,1,-0.009,0.022,-0.011,-0.03,0.011,-0.006,-1.589,0.024,-0.056,98.73,107.8,40.574158,-3.53137,641.2,6,5,120.9,1.758
100.03,1,0.017,0.025,-0.002,-0.006,0.021,-0.007,-1.588,0.025,-0.054,98.73,107.8,40.574158,-3.53137,641.2,6,5,120.9,1.758
100.13,1,-0.026,-0.003,0.005,-0.009,0.01,0.003,-1.589,0.026,-0.052,98.73,107.8,40.574158,-3.53137,641.2,6,5,120.9,1.758
100.24,1,-0.042,-0.023,0.001,-0.023,-0.002,-0.0,-1.589,0.025,-0.05,98.73,107.8,40.574158,-3.53137,641.2,6,5,120.9,1.758
100.34,1,0.025,0.027,0.007,-0.011,0.001,0.004,-1.591,0.025,-0.048,98.73,107.8,40.574158,-3.53137,641.2,6,5,120.9,1.758
100.44,1,-0.001,0.004,-0.019,0.004,0.008,-0.0,-1.59,0.025,-0.046,98.73,107.8,40.574158,-3.53137,641.2,6,5,120.9,1.758
100.54,1,-0.004,0.015,-0.004,-0.007,0.012,-0.012,-1.59,0.022,-0.044,99.72,107.0,40.57402,-3.531061,642.1,6,5,120.2,1.758
100.64,1,0.001,0.008,-0.013,0.001,0.012,-0.011,-1.59,0.022,-0.043,99.72,107.0,40.57402,-3.531061,642.1,6,5,120.2,1.758
100.74,1,-0.042,0.005,-0.015,-0.014,0.012,-0.01,-1.588,0.024,-0.041,99.72,107.0,40.57402,-3.531061,642.1,6,5,120.2,1.758
100.84,1,-0.081,-0.018,0.004,-0.047,-0.008,-0.008,-1.588,0.025,-0.039,99.72,107.0,40.57402,-3.531061,642.1,6,5,120.2,1.758
100.94,1,-0.067,0.0,0.006,-0.065,-0.004,0.001,-1.589,0.024,-0.037,99.72,107.0,40.57402,-3.531061,642.1,6,5,120.2,1.758
101.04,1,0.017,0.028,0.003,-0.035,0.008,0.003,-1.589,0.027,-0.035,99.72,107.0,40.57402,-3.531061,642.1,6,5,120.2,1.758
101.14,1,-0.018,-0.008,0.008,-0.007,0.009,0.006,-1.592,0.027,-0.033,99.72,107.0,40.57402,-3.531061,642.1,6,5,120.2,1.758
101.24,1,-0.018,-0.021,-0.004,-0.021,-0.012,0.002,-1.593,0.027,-0.031,99.72,107.0,40.57402,-3.531061,642.1,6,5,120.2,1.758
101.34,1,0.016,0.02,-0.008,-0.003,0.003,-0.001,-1.593,0.027,-0.029,99.72,107.0,40.57402,-3.531061,642.1,6,5,120.2,1.758
101.44,1,-0.024,-0.012,-0.003,-0.011,-0.002,-0.003,-1.593,0.027,-0.027,99.72,107.0,40.57402,-3.531061,642.1,6,5,120.2,1.758
101.55,1,0.013,0.005,-0.021,0.004,0.001,-0.01,-1.594,0.025,-0.025,100.76,107.0,40.573887,-3.530747,642.4,6,5,119.2,1.758
101.64,1,-0.053,-0.023,-0.053,-0.021,-0.006,-0.035,-1.589,0.024,-0.023,100.76,107.0,40.573887,-3.530747,642.4,6,5,119.2,1.758
101.75,1,-0.025,0.007,-0.05,-0.036,-0.005,-0.044,-1.583,0.024,-0.021,100.76,107.0,40.573887,-3.530747,642.4,6,5,119.2,1.758
101.85,1,0.013,-0.019,-0.045,-0.011,-0.013,-0.046,-1.579,0.023,-0.019,100.76,107.0,40.573887,-3.530747,642.4,6,5,119.2,1.758
101.94,1,-0.023,0.012,-0.046,-0.007,-0.0,-0.046,-1.574,0.024,-0.018,100.76,107.0,40.573887,-3.530747,642.4,6,5,119.2,1.758
102.04,1,0.029,0.008,-0.054,0.001,0.002,-0.046,-1.57,0.024,-0.016,100.76,107.0,40.573887,-3.530747,642.4,6,5,119.2,1.758
102.14,1,-0.019,-0.028,-0.038,0.008,-0.007,-0.044,-1.567,0.025,-0.014,100.76,107.0,40.573887,-3.530747,642.4,6,5,119.2,1.758
102.24,1,-0.016,-0.008,-0.05,-0.017,-0.013,-0.043,-1.562,0.023,-0.012,100.76,107.0,40.573887,-3.530747,642.4,6,5,119.2,1.758
102.34,1,-0.019,-0.018,-0.052,-0.014,-0.009,-0.052,-1.558,0.027,-0.01,100.76,107.0,40.573887,-3.530747,642.4,6,5,119.2,1.758
102.45,1,-0.02,0.012,-0.022,-0.021,-0.009,-0.039,-1.556,0.028,-0.008,100.76,107.0,40.573887,-3.530747,642.4,6,5,119.2,1.758
102.54,1,0.001,0.014,-0.029,-0.012,0.008,-0.035,-1.553,0.027,-0.006,101.73,106.2,40.573765,-3.530456,643.3,6,5,118.5,1.758
102.64,1,0.018,0.013,-0.031,0.007,0.008,-0.028,-1.55,0.03,-0.004,101.73,106.2,40.573765,-3.530456,643.3,6,5,118.5,1.758
102.75,1,-0.021,-0.03,-0.028,-0.001,-0.004,-0.029,-1.547,0.032,-0.003,101.73,106.2,40.573765,-3.530456,643.3,6,5,118.5,1.758
102.84,1,0.004,0.003,-0.031,-0.009,-0.003,-0.029,-1.546,0.032,-0.001,101.73,106.2,40.573765,-3.530456,643.3,6,5,118.5,1.758
102.95,1,-0.027,0.012,-0.039,-0.006,0.004,-0.035,-1.544,0.032,0.001,101.73,106.2,40.573765,-3.530456,643.3,6,5,118.5,1.758
103.06,1,-0.038,-0.024,-0.034,-0.026,-0.008,-0.035,-1.542,0.033,0.002,101.73,106.2,40.573765,-3.530456,643.3,6,5,118.5,1.758
103.14,1,-0.02,0.005,-0.029,-0.033,-0.008,-0.033,-1.541,0.032,0.004,101.73,106.2,40.573765,-3.530456,643.3,6,5,118.5,1.758
103.25,1,-0.013,0.011,-0.009,-0.018,0.005,-0.022,-1.54,0.03,0.006,101.73,106.2,40.573765,-3.530456,643.3,6,5,118.5,1.758
103.35,1,-0.008,0.01,-0.019,-0.009,0.009,-0.017,-1.536,0.03,0.007,101.73,106.2,40.573765,-3.530456,643.3,6,5,118.5,1.758
103.45,1,-0.019,-0.012,-0.026,-0.017,0.003,-0.022,-1.535,0.03,0.009,101.73,106.2,40.573765,-3.530456,643.3,6,5,118.5,1.758
103.55,1,-0.021,0.019,-0.015,-0.016,0.006,-0.019,-1.533,0.031,0.01,102.73,104.8,40.573631,-3.530147,643.9,6,5,117.1,2.109
103.65,1,-0.036,-0.002,-0.017,-0.029,0.0,-0.017,-1.533,0.033,0.012,102.73,104.8,40.573631,-3.530147,643.9,6,5,117.1,2.109
103.75,1,-0.087,-0.0,-0.036,-0.039,0.001,-0.022,-1.532,0.033,0.014,102.73,104.8,40.573631,-3.530147,643.9,6,5,117.1,2.109
103.85,1,0.02,-0.014,0.03,-0.035,-0.008,-0.007,-1.532,0.031,0.015,102.73,104.8,40.573631,-3.530147,643.9,6,5,117.1,2.109
103.96,1,0.066,0.038,-0.04,0.017,0.012,-0.014,-1.528,0.029,0.016,102.73,104.8,40.573631,-3.530147,643.9,6,5,117.1,2.109
104.05,1,0.011,-0.008,0.003,0.026,0.009,-0.009,-1.525,0.026,0.018,102.73,104.8,40.573631,-3.530147,643.9,6,5,117.1,2.109
104.15,1,-0.019,0.003,-0.01,0.004,0.005,-0.011,-1.525,0.023,0.019,102.73,104.8,40.573631,-3.530147,643.9,6,5,117.1,2.109
104.25,1,-0.024,-0.007,0.02,-0.019,0.005,0.006,-1.526,0.026,0.021,102.73,104.8,40.573631,-3.530147,643.9,6,5,117.1,2.109
104.35,1,-0.055,0.008,0.046,-0.036,-0.005,0.023,-1.528,0.03,0.023,102.73,104.8,40.573631,-3.530147,643.9,6,5,117.1,2.109
104.45,1,0.018,0.006,0.01,-0.014,0.007,0.025,-1.532,0.03,0.024,102.73,104.8,40.573631,-3.530147,643.9,6,5,117.1,2.109
104.55,1,-0.001,0.007,0.014,0.001,0.005,0.016,-1.534,0.03,0.025,103.75,102.2,40.573509,-3.529841,644.6,6,5,116.0,2.461
104.65,1,0.004,0.016,0.01,-0.004,0.008,0.012,-1.535,0.031,0.027,103.75,102.2,40.573509,-3.529841,644.6,6,5,116.0,2.461
104.75,1,-0.024,0.018,-0.007,-0.007,0.015,0.004,-1.535,0.03,0.028,103.75,102.2,40.573509,-3.529841,644.6,6,5,116.0,2.461
104.85,1,-0.037,-0.001,0.003,-0.022,0.003,-0.002,-1.535,0.029,0.029,103.75,102.2,40.573509,-3.529841,644.6,6,5,116.0,2.461
104.95,1,-0.087,-0.035,-0.011,-0.055,-0.011,-0.003,-1.537,0.027,0.031,103.75,102.2,40.573509,-3.529841,644.6,6,5,116.0,2.461
105.05,1,-0.001,0.011,0.044,-0.04,0.004,0.016,-1.54,0.027,0.031,103.75,102.2,40.573509,-3.529841,644.6,6,5,116.0,2.461
105.15,1,0.04,0.059,0.003,0.004,0.033,0.015,-1.54,0.027,0.032,103.75,102.2,40.573509,-3.529841,644.6,6,5,116.0,2.461
105.25,1,-0.022,0.007,0.009,-0.002,0.017,0.01,-1.54,0.027,0.033,103.75,102.2,40.573509,-3.529841,644.6,6,5,116.0,2.461
105.36,1,-0.011,0.035,0.021,-0.01,0.014,0.015,-1.542,0.026,0.034,103.75,102.2,40.573509,-3.529841,644.6,6,5,116.0,2.461
105.45,1,-0.013,-0.006,0.008,-0.003,0.017,0.015,-1.545,0.025,0.035,103.75,102.2,40.573509,-3.529841,644.6,6,5,116.0,2.461
105.55,1,-0.013,-0.007,0.016,-0.018,0.007,0.012,-1.545,0.025,0.036,104.74,100.2,40.573399,-3.529541,645.0,6,5,115.0,2.461
105.65,1,0.023,0.052,0.016,0.001,0.023,0.016,-1.546,0.024,0.036,104.74,100.2,40.573399,-3.529541,645.0,6,5,115.0,2.461
105.76,1,-0.029,0.017,-0.001,-0.002,0.021,0.008,-1.546,0.021,0.037,104.74,100.2,40.573399,-3.529541,645.0,6,5,115.0,2.461
105.86,1,-0.05,0.008,-0.004,-0.03,0.007,-0.001,-1.546,0.019,0.037,104.74,100.2,40.573399,-3.529541,645.0,6,5,115.0,2.461
105.95,1,-0.027,0.001,0.022,-0.032,0.015,0.008,-1.549,0.016,0.038,104.74,100.2,40.573399,-3.529541,645.0,6,5,115.0,2.461
106.05,1,-0.0,0.025,0.004,-0.019,0.016,0.013,-1.551,0.013,0.038,104.74,100.2,40.573399,-3.529541,645.0,6,5,115.0,2.461
106.16,1,-0.003,0.023,0.018,-0.005,0.021,0.009,-1.553,0.014,0.038,104.74,100.2,40.573399,-3.529541,645.0,6,5,115.0,2.461
106.26,1,0.03,0.028,0.029,0.008,0.023,0.018,-1.554,0.011,0.038,104.74,100.2,40.573399,-3.529541,645.0,6,5,115.0,2.461
106.36,1,0.011,0.008,0.021,0.015,0.018,0.023,-1.555,0.009,0.038,104.74,100.2,40.573399,-3.529541,645.0,6,5,115.0,2.461
106.46,1,-0.04,0.001,-0.012,-0.01,0.016,0.015,-1.555,0.008,0.039,104.74,100.2,40.573399,-3.529541,645.0,6,5,115.0,2.461
106.57,1,-0.028,0.045,-0.009,-0.024,0.021,-0.004,-1.552,0.006,0.039,105.73,98.7,40.573299,-3.529248,645.8,6,5,114.3,1.758
106.66,1,-0.017,0.029,-0.032,-0.024,0.021,-0.018,-1.549,0.005,0.039,105.73,98.7,40.573299,-3.529248,645.8,6,5,114.3,1.758
106.86,1,-0.003,0.007,-0.017,-0.012,0.013,-0.014,-1.546,0.005,0.039,105.73,98.7,40.573299,-3.529248,645.8,6,5,114.3,1.758
106.96,1,-0.013,0.005,-0.014,-0.01,0.008,-0.016,-1.544,0.005,0.039,105.73,98.7,40.573299,-3.529248,645.8,6,5,114.3,1.758
107.06,1,-0.023,-0.025,-0.005,-0.012,-0.002,-0.012,-1.543,0.004,0.039,105.73,98.7,40.573299,-3.529248,645.8,6,5,114.3,1.758
107.16,1,-0.028,0.015,-0.028,-0.026,-0.004,-0.018,-1.541,0.004,0.039,105.73,98.7,40.573299,-3.529248,645.8,6,5,114.3,1.758
107.26,1,0.003,-0.015,-0.015,-0.012,0.003,-0.019,-1.54,0.006,0.039,105.73,98.7,40.573299,-3.529248,645.8,6,5,114.3,1.758
107.36,1,-0.024,0.015,-0.012,-0.013,0.0,-0.013,-1.539,0.006,0.04,105.73,98.7,40.573299,-3.529248,645.8,6,5,114.3,1.758
107.46,1,0.01,-0.008,0.022,-0.004,-0.001,0.0,-1.54,0.007,0.04,105.73,98.7,40.573299,-3.529248,645.8,6,5,114.3,1.758
107.57,1,0.015,0.004,0.014,0.007,-0.001,0.01,-1.541,0.01,0.041,105.73,98.7,40.573299,-3.529248,645.8,6,5,114.3,1.758
107.66,1,-0.014,-0.001,-0.001,0.0,-0.001,0.009,-1.542,0.01,0.041,106.73,97.6,40.5732,-3.528953,646.2,4,5,113.6,1.406
107.77,1,-0.02,-0.007,0.006,-0.013,0.001,0.003,-1.544,0.01,0.041,106.73,97.6,40.5732,-3.528953,646.2,4,5,113.6,1.406
107.86,1,-0.039,-0.005,0.018,-0.026,-0.001,0.009,-1.547,0.011,0.042,106.73,97.6,40.5732,-3.528953,646.2,4,5,113.6,1.406
107.96,1,-0.011,0.005,0.018,-0.027,-0.002,0.014,-1.549,0.011,0.042,106.73,97.6,40.5732,-3.528953,646.2,4,5,113.6,1.406
108.06,1,-0.053,0.016,0.009,-0.035,0.003,0.013,-1.549,0.012,0.042,106.73,97.6,40.5732,-3.528953,646.2,4,5,113.6,1.406
108.17,1,0.004,-0.02,0.013,-0.02,-0.005,0.01,-1.552,0.013,0.042,106.73,97.6,40.5732,-3.528953,646.2,4,5,113.6,1.406
108.27,1,0.007,-0.021,0.001,0.002,-0.011,0.009,-1.552,0.014,0.043,106.73,97.6,40.5732,-3.528953,646.2,4,5,113.6,1.406
108.37,1,-0.026,0.004,0.001,-0.011,-0.006,0.004,-1.552,0.012,0.043,106.73,97.6,40.5732,-3.528953,646.2,4,5,113.6,1.406
108.47,1,0.013,0.002,0.015,-0.007,-0.004,0.007,-1.553,0.01,0.043,106.73,97.6,40.5732,-3.528953,646.2,4,5,113.6,1.406
108.56,1,0.035,0.003,0.024,0.014,0.004,0.017,-1.555,0.01,0.043,106.73,97.6,40.5732,-3.528953,646.2,4,5,113.6,1.406
