Timestamp_Accel,SystemActivated,accelerometerXAxis,accelerometerYAxis,accelerometerZAxis,AccelX_KF,AccelY_KF,AccelZ_KF,gyroscopeXAxis,gyroscopeYAxis,gyroscopeZAxis,Timestamp_GPS,Speed,latitude,longitude,Altitude,VerticalAccuracy,HorizontalAccuracy,Course,Difcourse
17.97,0,0.022,0.021,0.007,0.013,0.008,0.007,-1.661,-0.019,0.015,17.92,0.0,40.516396,-3.408003,612.8,17,165,-1.0,-1.0
18.06,0,-0.019,0.023,0.009,0.002,0.014,0.015,-1.661,-0.021,0.015,17.92,0.0,40.516396,-3.408003,612.8,17,165,-1.0,-1.0
18.16,0,-0.039,0.015,0.005,-0.022,0.02,0.002,-1.66,-0.022,0.014,17.92,0.0,40.516396,-3.408003,612.8,17,165,-1.0,-1.0
18.26,0,0.0,0.036,-0.03,-0.018,0.025,-0.012,-1.66,-0.024,0.014,17.92,0.0,40.516396,-3.408003,612.8,17,165,-1.0,-1.0
18.36,0,-0.022,0.017,0.004,-0.012,0.026,-0.007,-1.661,-0.024,0.013,17.92,0.0,40.516396,-3.408003,612.8,17,165,-1.0,-1.0
18.46,1,-0.03,0.007,-0.013,-0.023,0.018,-0.009,-1.663,-0.024,0.013,17.92,0.0,40.516396,-3.408003,612.8,17,165,-1.0,-1.0
18.56,1,0.019,0.009,0.005,-0.006,0.008,-0.002,-1.665,-0.025,0.012,17.92,0.0,40.516396,-3.408003,612.8,17,165,-1.0,-1.0
18.66,1,-0.046,-0.008,-0.01,-0.018,0.002,-0.001,-1.664,-0.026,0.011,17.92,0.0,40.516396,-3.408003,612.8,17,165,-1.0,-1.0
18.76,1,0.002,-0.022,-0.019,-0.024,-0.007,-0.013,-1.665,-0.025,0.011,17.92,0.0,40.516396,-3.408003,612.8,17,165,-1.0,-1.0
18.86,1,0.014,-0.028,-0.01,0.006,-0.019,-0.01,-1.664,-0.023,0.011,17.92,0.0,40.516396,-3.408003,612.8,17,165,-1.0,-1.0
18.96,1,0.001,-0.033,-0.003,0.002,-0.023,-0.013,-1.662,-0.022,0.012,18.94,96.0,40.51722,-3.408358,621.1,8,5,325.9,172.266
19.06,1,0.029,0.001,-0.015,0.013,-0.023,-0.008,-1.662,-0.019,0.013,18.94,96.0,40.51722,-3.408358,621.1,8,5,325.9,172.266
19.17,1,-0.061,-0.021,0.018,-0.007,-0.017,0.002,-1.662,-0.02,0.013,18.94,96.0,40.51722,-3.408358,621.1,8,5,325.9,172.266
19.27,1,-0.04,-0.011,-0.001,-0.036,-0.015,0.004,-1.663,-0.018,0.014,18.94,96.0,40.51722,-3.408358,621.1,8,5,325.9,172.266
19.36,1,-0.028,-0.033,0.019,-0.031,-0.022,0.007,-1.664,-0.016,0.015,18.94,96.0,40.51722,-3.408358,621.1,8,5,325.9,172.266
19.46,1,-0.02,-0.036,-0.013,-0.03,-0.03,0.003,-1.664,-0.012,0.016,18.94,96.0,40.51722,-3.408358,621.1,8,5,325.9,172.266
19.56,1,-0.009,-0.008,-0.002,-0.017,-0.021,-0.002,-1.664,-0.01,0.016,18.94,96.0,40.51722,-3.408358,621.1,8,5,325.9,172.266
19.66,1,0.023,0.002,-0.022,-0.006,-0.009,-0.007,-1.662,-0.009,0.017,18.94,96.0,40.51722,-3.408358,621.1,8,5,325.9,172.266
19.77,1,0.019,0.002,0.015,0.014,-0.001,-0.006,-1.662,-0.01,0.017,18.94,96.0,40.51722,-3.408358,621.1,8,5,325.9,172.266
19.87,1,-0.005,-0.013,0.011,0.006,-0.009,0.009,-1.662,-0.01,0.018,18.94,96.0,40.51722,-3.408358,621.1,8,5,325.9,172.266
19.96,1,-0.004,-0.006,-0.023,0.001,-0.007,-0.005,-1.66,-0.009,0.019,19.94,98.9,40.517391,-3.408522,619.9,4,5,325.9,0.703
20.06,1,-0.036,-0.024,-0.023,-0.011,-0.014,-0.013,-1.658,-0.008,0.019,19.94,98.9,40.517391,-3.408522,619.9,4,5,325.9,0.703
20.16,1,-0.08,0.024,0.011,-0.042,-0.002,-0.007,-1.662,-0.008,0.019,19.94,98.9,40.517391,-3.408522,619.9,4,5,325.9,0.703
20.26,1,-0.04,0.008,0.012,-0.056,0.01,0.003,-1.665,-0.008,0.02,19.94,98.9,40.517391,-3.408522,619.9,4,5,325.9,0.703
20.37,1,-0.035,-0.015,0.011,-0.045,-0.002,0.01,-1.669,-0.004,0.022,19.94,98.9,40.517391,-3.408522,619.9,4,5,325.9,0.703
20.46,1,0.028,-0.024,0.02,-0.023,-0.013,0.006,-1.667,0.001,0.024,19.94,98.9,40.517391,-3.408522,619.9,4,5,325.9,0.703
20.56,1,0.085,-0.023,-0.013,0.044,-0.02,0.005,-1.664,0.001,0.024,19.94,98.9,40.517391,-3.408522,619.9,4,5,325.9,0.703
20.66,1,0.07,0.001,0.013,0.063,-0.015,0.008,-1.665,0.002,0.024,19.94,98.9,40.517391,-3.408522,619.9,4,5,325.9,0.703
20.76,1,0.001,0.011,-0.025,0.043,0.004,-0.002,-1.662,0.003,0.025,19.94,98.9,40.517391,-3.408522,619.9,4,5,325.9,0.703
20.86,1,-0.063,0.023,0.0,-0.004,0.013,-0.008,-1.661,0.003,0.025,19.94,98.9,40.517391,-3.408522,619.9,4,5,325.9,0.703
20.96,1,-0.084,0.009,-0.018,-0.053,0.014,-0.011,-1.662,0.005,0.026,20.93,101.9,40.517601,-3.408708,619.2,3,5,325.5,0.352
21.07,1,-0.028,-0.008,-0.004,-0.057,0.003,-0.01,-1.661,0.006,0.027,20.93,101.9,40.517601,-3.408708,619.2,3,5,325.5,0.352
21.16,1,0.019,0.004,-0.001,-0.017,0.0,-0.004,-1.661,0.005,0.028,20.93,101.9,40.517601,-3.408708,619.2,3,5,325.5,0.352
21.26,1,0.016,-0.01,-0.018,0.0,-0.007,-0.011,-1.659,0.004,0.028,20.93,101.9,40.517601,-3.408708,619.2,3,5,325.5,0.352
21.36,1,0.02,0.02,-0.003,0.014,0.007,-0.012,-1.659,0.004,0.029,20.93,101.9,40.517601,-3.408708,619.2,3,5,325.5,0.352
21.46,1,-0.04,0.004,0.001,-0.003,0.01,-0.002,-1.661,0.005,0.029,20.93,101.9,40.517601,-3.408708,619.2,3,5,325.5,0.352
21.56,1,-0.027,0.005,-0.015,-0.029,0.006,-0.004,-1.661,0.005,0.03,20.93,101.9,40.517601,-3.408708,619.2,3,5,325.5,0.352
21.67,1,-0.012,0.004,-0.011,-0.014,0.009,-0.008,-1.662,0.006,0.031,20.93,101.9,40.517601,-3.408708,619.2,3,5,325.5,0.352
21.76,1,0.002,0.0,-0.011,-0.015,0.001,-0.012,-1.66,0.008,0.031,20.93,101.9,40.517601,-3.408708,619.2,3,5,325.5,0.352
21.86,1,0.039,0.021,-0.016,0.018,0.008,-0.015,-1.659,0.007,0.031,20.93,101.9,40.517601,-3.408708,619.2,3,5,325.5,0.352
21.96,1,0.016,0.052,0.006,0.013,0.026,-0.01,-1.657,0.003,0.031,21.95,105.0,40.517818,-3.408902,619.5,3,5,324.8,1.055
22.07,1,-0.032,0.04,-0.038,0.005,0.042,-0.01,-1.654,0.001,0.031,21.95,105.0,40.517818,-3.408902,619.5,3,5,324.8,1.055
22.17,1,-0.052,0.023,0.002,-0.029,0.031,-0.019,-1.653,0.001,0.031,21.95,105.0,40.517818,-3.408902,619.5,3,5,324.8,1.055
22.27,1,-0.011,0.033,0.001,-0.03,0.033,0.001,-1.651,0.001,0.031,21.95,105.0,40.517818,-3.408902,619.5,3,5,324.8,1.055
22.37,1,-0.004,-0.005,-0.015,-0.007,0.018,-0.01,-1.648,0.001,0.031,21.95,105.0,40.517818,-3.408902,619.5,3,5,324.8,1.055
22.46,1,-0.052,0.012,-0.014,-0.027,0.008,-0.007,-1.645,0.002,0.031,21.95,105.0,40.517818,-3.408902,619.5,3,5,324.8,1.055
22.57,1,0.074,0.021,0.014,0.002,0.017,-0.004,-1.645,0.005,0.031,21.95,105.0,40.517818,-3.408902,619.5,3,5,324.8,1.055
22.67,1,-0.051,0.014,-0.043,0.002,0.017,-0.012,-1.644,0.008,0.031,21.95,105.0,40.517818,-3.408902,619.5,3,5,324.8,1.055
22.77,1,-0.058,0.018,-0.113,-0.041,0.016,-0.056,-1.639,0.009,0.032,21.95,105.0,40.517818,-3.408902,619.5,3,5,324.8,1.055
22.88,1,-0.014,-0.003,-0.137,-0.034,0.009,-0.105,-1.63,0.012,0.033,21.95,105.0,40.517818,-3.408902,619.5,3,5,324.8,1.055
22.97,1,-0.015,-0.038,-0.143,-0.016,-0.012,-0.137,-1.617,0.018,0.034,22.91,107.9,40.518032,-3.409117,619.4,3,5,323.8,1.055
23.07,1,0.057,-0.037,-0.076,0.011,-0.032,-0.109,-1.607,0.022,0.034,22.91,107.9,40.518032,-3.409117,619.4,3,5,323.8,1.055
23.17,1,-0.032,0.012,-0.106,-0.003,-0.016,-0.103,-1.606,0.022,0.035,22.91,107.9,40.518032,-3.409117,619.4,3,5,323.8,1.055
23.28,1,-0.036,-0.013,-0.124,-0.014,-0.008,-0.107,-1.604,0.021,0.036,22.91,107.9,40.518032,-3.409117,619.4,3,5,323.8,1.055
23.38,1,0.045,0.002,-0.084,-0.002,-0.003,-0.107,-1.602,0.022,0.037,22.91,107.9,40.518032,-3.409117,619.4,3,5,323.8,1.055
23.48,1,0.047,0.015,-0.091,0.037,0.005,-0.086,-1.598,0.025,0.036,22.91,107.9,40.518032,-3.409117,619.4,3,5,323.8,1.055
23.58,1,-0.022,0.028,-0.096,0.021,0.012,-0.097,-1.589,0.023,0.036,22.91,107.9,40.518032,-3.409117,619.4,3,5,323.8,1.055
23.67,1,-0.041,0.041,-0.074,-0.026,0.033,-0.093,-1.586,0.026,0.037,22.91,107.9,40.518032,-3.409117,619.4,3,5,323.8,1.055
23.77,1,-0.006,0.015,-0.019,-0.024,0.026,-0.053,-1.586,0.027,0.035,22.91,107.9,40.518032,-3.409117,619.4,3,5,323.8,1.055
23.87,1,0.033,0.023,0.002,0.01,0.025,-0.023,-1.588,0.023,0.033,22.91,107.9,40.518032,-3.409117,619.4,3,5,323.8,1.055
23.97,1,0.001,0.045,-0.013,0.011,0.031,-0.014,-1.585,0.019,0.03,23.93,108.4,40.518257,-3.409317,620.0,3,5,324.5,0.703
24.07,1,-0.03,0.07,-0.016,-0.004,0.051,-0.014,-1.583,0.015,0.03,23.93,108.4,40.518257,-3.409317,620.0,3,5,324.5,0.703
24.17,1,-0.081,0.033,-0.028,-0.043,0.047,-0.019,-1.582,0.016,0.031,23.93,108.4,40.518257,-3.409317,620.0,3,5,324.5,0.703
24.27,1,-0.024,-0.001,0.011,-0.048,0.024,-0.012,-1.583,0.018,0.031,23.93,108.4,40.518257,-3.409317,620.0,3,5,324.5,0.703
24.37,1,0.012,0.012,0.022,-0.009,0.013,0.012,-1.584,0.018,0.029,23.93,108.4,40.518257,-3.409317,620.0,3,5,324.5,0.703
24.47,1,0.038,0.022,0.029,0.017,0.017,0.018,-1.588,0.015,0.029,23.93,108.4,40.518257,-3.409317,620.0,3,5,324.5,0.703
24.57,1,-0.05,0.001,0.018,-0.004,0.013,0.024,-1.593,0.014,0.03,23.93,108.4,40.518257,-3.409317,620.0,3,5,324.5,0.703
24.67,1,-0.092,-0.002,0.006,-0.058,0.002,0.011,-1.597,0.017,0.031,23.93,108.4,40.518257,-3.409317,620.0,3,5,324.5,0.703
24.77,1,0.008,-0.025,0.043,-0.046,-0.01,0.023,-1.599,0.019,0.032,23.93,108.4,40.518257,-3.409317,620.0,3,5,324.5,0.703
24.87,1,0.02,-0.008,0.027,0.001,-0.015,0.032,-1.602,0.023,0.033,23.93,108.4,40.518257,-3.409317,620.0,3,5,324.5,0.703
24.97,1,-0.014,-0.021,0.02,-0.001,-0.016,0.022,-1.603,0.025,0.033,24.9,107.7,40.518478,-3.409518,619.1,3,5,324.8,1.055
25.07,1,-0.011,0.001,0.003,-0.015,-0.009,0.013,-1.607,0.025,0.033,24.9,107.7,40.518478,-3.409518,619.1,3,5,324.8,1.055
25.17,1,-0.011,-0.004,0.037,-0.011,-0.001,0.022,-1.608,0.027,0.034,24.9,107.7,40.518478,-3.409518,619.1,3,5,324.8,1.055
25.28,1,-0.02,-0.022,0.003,-0.013,-0.015,0.018,-1.612,0.026,0.036,24.9,107.7,40.518478,-3.409518,619.1,3,5,324.8,1.055
25.37,1,-0.021,-0.01,0.026,-0.015,-0.012,0.019,-1.616,0.024,0.037,24.9,107.7,40.518478,-3.409518,619.1,3,5,324.8,1.055
25.47,1,0.007,-0.019,0.016,-0.01,-0.015,0.018,-1.617,0.026,0.032,24.9,107.7,40.518478,-3.409518,619.1,3,5,324.8,1.055
25.57,1,0.002,-0.017,0.028,-0.0,-0.013,0.024,-1.615,0.027,0.031,24.9,107.7,40.518478,-3.409518,619.1,3,5,324.8,1.055
25.67,1,-0.03,-0.026,0.004,-0.008,-0.019,0.014,-1.617,0.027,0.027,24.9,107.7,40.518478,-3.409518,619.1,3,5,324.8,1.055
25.77,1,-0.046,-0.031,0.018,-0.037,-0.027,0.01,-1.623,0.024,0.026,24.9,107.7,40.518478,-3.409518,619.1,3,5,324.8,1.055
25.87,1,-0.021,-0.004,0.015,-0.028,-0.023,0.02,-1.623,0.02,0.029,24.9,107.7,40.518478,-3.409518,619.1,3,5,324.8,1.055
25.98,1,0.009,0.009,0.016,-0.011,-0.004,0.015,-1.621,0.017,0.029,25.9,109.3,40.518703,-3.409722,619.6,3,5,324.8,1.055
26.07,1,0.016,0.014,0.025,0.005,0.007,0.018,-1.622,0.019,0.029,25.9,109.3,40.518703,-3.409722,619.6,3,5,324.8,1.055
26.17,1,-0.055,-0.023,0.024,-0.016,-0.005,0.019,-1.624,0.023,0.03,25.9,109.3,40.518703,-3.409722,619.6,3,5,324.8,1.055
26.28,1,-0.012,-0.031,-0.016,-0.028,-0.016,0.006,-1.625,0.026,0.031,25.9,109.3,40.518703,-3.409722,619.6,3,5,324.8,1.055
26.38,1,-0.069,-0.032,0.001,-0.042,-0.032,0.007,-1.626,0.029,0.032,25.9,109.3,40.518703,-3.409722,619.6,3,5,324.8,1.055
26.48,1,-0.041,-0.013,0.028,-0.056,-0.022,0.013,-1.626,0.03,0.033,25.9,109.3,40.518703,-3.409722,619.6,3,5,324.8,1.055
26.58,1,0.004,-0.029,0.003,-0.021,-0.018,0.01,-1.626,0.032,0.033,25.9,109.3,40.518703,-3.409722,619.6,3,5,324.8,1.055
26.69,1,0.089,-0.011,0.029,0.035,-0.018,0.007,-1.629,0.033,0.033,25.9,109.3,40.518703,-3.409722,619.6,3,5,324.8,1.055
26.78,1,0.108,-0.016,-0.001,0.068,-0.018,0.016,-1.627,0.03,0.033,25.9,109.3,40.518703,-3.409722,619.6,3,5,324.8,1.055
26.88,1,-0.008,0.011,0.002,0.049,-0.006,0.011,-1.624,0.029,0.032,25.9,109.3,40.518703,-3.409722,619.6,3,5,324.8,1.055
26.99,1,-0.003,0.03,0.003,0.02,0.014,-0.005,-1.619,0.025,0.032,26.9,111.5,40.518936,-3.409932,619.2,3,5,324.8,0.0
27.08,1,-0.074,0.008,0.021,-0.021,0.019,0.013,-1.622,0.027,0.033,26.9,111.5,40.518936,-3.409932,619.2,3,5,324.8,0.0
27.19,1,-0.008,0.002,-0.024,-0.031,0.003,0.002,-1.62,0.031,0.033,26.9,111.5,40.518936,-3.409932,619.2,3,5,324.8,0.0
27.28,1,-0.013,0.003,0.002,-0.019,0.003,-0.006,-1.62,0.03,0.033,26.9,111.5,40.518936,-3.409932,619.2,3,5,324.8,0.0
27.38,1,0.012,0.013,-0.001,-0.01,0.008,-0.003,-1.62,0.03,0.033,26.9,111.5,40.518936,-3.409932,619.2,3,5,324.8,0.0
27.48,1,0.048,-0.0,0.003,0.024,0.004,0.006,-1.619,0.032,0.033,26.9,111.5,40.518936,-3.409932,619.2,3,5,324.8,0.0
27.58,1,-0.046,0.017,-0.031,0.005,0.009,-0.012,-1.615,0.031,0.033,26.9,111.5,40.518936,-3.409932,619.2,3,5,324.8,0.0
27.69,1,-0.068,0.015,0.009,-0.05,0.014,-0.011,-1.613,0.031,0.032,26.9,111.5,40.518936,-3.409932,619.2,3,5,324.8,0.0
27.79,1,-0.005,0.019,-0.046,-0.022,0.016,-0.021,-1.613,0.028,0.031,26.9,111.5,40.518936,-3.409932,619.2,3,5,324.8,0.0
27.89,1,0.02,0.01,-0.057,-0.006,0.014,-0.031,-1.611,0.026,0.03,26.9,111.5,40.518936,-3.409932,619.2,3,5,324.8,0.0
27.99,1,0.07,0.02,-0.047,0.023,0.019,-0.056,-1.601,0.021,0.029,27.91,113.3,40.519165,-3.410149,620.0,3,5,324.5,0.352
28.08,1,0.012,0.029,-0.066,0.038,0.023,-0.053,-1.597,0.021,0.028,27.91,113.3,40.519165,-3.410149,620.0,3,5,324.5,0.352
28.19,1,-0.001,-0.011,-0.104,0.02,0.007,-0.077,-1.592,0.02,0.028,27.91,113.3,40.519165,-3.410149,620.0,3,5,324.5,0.352
28.28,1,-0.015,-0.023,-0.065,0.007,-0.008,-0.074,-1.592,0.022,0.029,27.91,113.3,40.519165,-3.410149,620.0,3,5,324.5,0.352
28.39,1,-0.088,-0.006,-0.068,-0.051,-0.012,-0.075,-1.589,0.026,0.029,27.91,113.3,40.519165,-3.410149,620.0,3,5,324.5,0.352
28.48,1,-0.059,0.014,-0.038,-0.06,0.0,-0.054,-1.585,0.026,0.028,27.91,113.3,40.519165,-3.410149,620.0,3,5,324.5,0.352
28.59,1,-0.016,0.01,-0.067,-0.044,0.009,-0.059,-1.579,0.027,0.029,27.91,113.3,40.519165,-3.410149,620.0,3,5,324.5,0.352
28.68,1,0.052,0.016,-0.044,0.001,0.015,-0.051,-1.575,0.027,0.028,27.91,113.3,40.519165,-3.410149,620.0,3,5,324.5,0.352
28.78,1,0.108,0.003,-0.064,0.063,0.01,-0.059,-1.568,0.025,0.027,27.91,113.3,40.519165,-3.410149,620.0,3,5,324.5,0.352
28.89,1,-0.019,-0.004,-0.065,0.038,-0.003,-0.064,-1.559,0.025,0.026,27.91,113.3,40.519165,-3.410149,620.0,3,5,324.5,0.352
28.99,1,-0.074,-0.015,-0.075,-0.027,-0.007,-0.068,-1.554,0.022,0.025,28.91,113.5,40.519398,-3.410371,621.9,3,5,324.5,0.352
29.09,1,-0.097,0.027,-0.08,-0.058,0.006,-0.075,-1.55,0.02,0.025,28.91,113.5,40.519398,-3.410371,621.9,3,5,324.5,0.352
29.18,1,0.004,0.001,-0.053,-0.049,0.01,-0.066,-1.547,0.022,0.026,28.91,113.5,40.519398,-3.410371,621.9,3,5,324.5,0.352
29.29,1,0.145,-0.017,-0.029,0.042,-0.005,-0.045,-1.546,0.026,0.026,28.91,113.5,40.519398,-3.410371,621.9,3,5,324.5,0.352
29.38,1,0.053,-0.014,-0.022,0.083,-0.009,-0.03,-1.543,0.028,0.026,28.91,113.5,40.519398,-3.410371,621.9,3,5,324.5,0.352
29.49,1,-0.033,-0.024,-0.055,0.024,-0.018,-0.047,-1.543,0.028,0.027,28.91,113.5,40.519398,-3.410371,621.9,3,5,324.5,0.352
29.58,1,-0.07,0.004,-0.051,-0.034,-0.011,-0.047,-1.542,0.026,0.027,28.91,113.5,40.519398,-3.410371,621.9,3,5,324.5,0.352
29.68,1,0.065,0.004,-0.019,-0.005,-0.003,-0.036,-1.538,0.025,0.027,28.91,113.5,40.519398,-3.410371,621.9,3,5,324.5,0.352
29.79,1,0.015,0.007,-0.022,0.033,0.004,-0.023,-1.531,0.024,0.027,28.91,113.5,40.519398,-3.410371,621.9,3,5,324.5,0.352
29.88,1,-0.121,-0.03,-0.058,-0.04,-0.008,-0.039,-1.527,0.023,0.027,28.91,113.5,40.519398,-3.410371,621.9,3,5,324.5,0.352
29.99,1,0.018,-0.018,-0.008,-0.046,-0.019,-0.032,-1.528,0.023,0.026,29.95,112.9,40.51963,-3.410583,620.6,3,5,324.8,0.352
30.09,1,0.016,0.002,-0.024,0.012,-0.012,-0.019,-1.528,0.02,0.026,29.95,112.9,40.51963,-3.410583,620.6,3,5,324.8,0.352
30.19,1,-0.023,0.013,-0.03,-0.013,0.004,-0.029,-1.528,0.021,0.027,29.95,112.9,40.51963,-3.410583,620.6,3,5,324.8,0.352
30.29,1,-0.023,-0.043,-0.017,-0.015,-0.008,-0.021,-1.527,0.023,0.028,29.95,112.9,40.51963,-3.410583,620.6,3,5,324.8,0.352
30.39,1,-0.009,-0.038,-0.029,-0.02,-0.032,-0.03,-1.525,0.029,0.028,29.95,112.9,40.51963,-3.410583,620.6,3,5,324.8,0.352
30.49,1,0.004,0.009,-0.014,-0.003,-0.017,-0.018,-1.524,0.027,0.029,29.95,112.9,40.51963,-3.410583,620.6,3,5,324.8,0.352
30.59,1,0.051,-0.007,-0.014,0.01,-0.004,-0.019,-1.522,0.026,0.03,29.95,112.9,40.51963,-3.410583,620.6,3,5,324.8,0.352
30.69,1,0.01,-0.06,-0.025,0.021,-0.029,-0.021,-1.52,0.029,0.031,29.95,112.9,40.51963,-3.410583,620.6,3,5,324.8,0.352
30.79,1,0.009,-0.043,-0.02,0.016,-0.044,-0.022,-1.518,0.033,0.033,29.95,112.9,40.51963,-3.410583,620.6,3,5,324.8,0.352
30.89,1,-0.002,-0.023,-0.014,0.008,-0.037,-0.018,-1.518,0.037,0.034,29.95,112.9,40.51963,-3.410583,620.6,3,5,324.8,0.352
30.99,1,-0.047,-0.024,-0.008,-0.009,-0.024,-0.012,-1.518,0.038,0.036,30.91,110.7,40.519852,-3.410791,622.9,3,5,324.5,0.352
31.09,1,-0.036,-0.034,-0.035,-0.031,-0.032,-0.017,-1.518,0.038,0.035,30.91,110.7,40.519852,-3.410791,622.9,3,5,324.5,0.352
31.19,1,0.022,-0.009,-0.017,-0.009,-0.023,-0.029,-1.518,0.037,0.035,30.91,110.7,40.519852,-3.410791,622.9,3,5,324.5,0.352
31.29,1,0.01,-0.016,-0.002,0.004,-0.015,-0.012,-1.517,0.036,0.034,30.91,110.7,40.519852,-3.410791,622.9,3,5,324.5,0.352
31.39,1,-0.025,-0.032,-0.01,-0.003,-0.021,-0.004,-1.517,0.038,0.037,30.91,110.7,40.519852,-3.410791,622.9,3,5,324.5,0.352
31.5,1,-0.029,-0.019,0.003,-0.018,-0.022,-0.004,-1.518,0.037,0.043,30.91,110.7,40.519852,-3.410791,622.9,3,5,324.5,0.352
31.59,1,-0.025,-0.001,-0.012,-0.023,-0.014,-0.005,-1.516,0.041,0.041,30.91,110.7,40.519852,-3.410791,622.9,3,5,324.5,0.352
31.69,1,-0.022,-0.009,0.042,-0.031,-0.009,0.009,-1.517,0.043,0.041,30.91,110.7,40.519852,-3.410791,622.9,3,5,324.5,0.352
31.79,1,0.005,-0.003,0.023,-0.011,-0.008,0.022,-1.516,0.046,0.04,30.91,110.7,40.519852,-3.410791,622.9,3,5,324.5,0.352
31.89,1,-0.013,0.003,0.047,-0.004,-0.001,0.033,-1.519,0.045,0.04,30.91,110.7,40.519852,-3.410791,622.9,3,5,324.5,0.352
32.0,1,-0.021,0.024,0.032,-0.013,0.006,0.038,-1.523,0.042,0.042,31.89,107.0,40.520069,-3.410995,621.7,3,5,323.8,1.055
32.09,1,-0.003,0.037,0.036,-0.011,0.028,0.03,-1.526,0.037,0.038,31.89,107.0,40.520069,-3.410995,621.7,3,5,323.8,1.055
32.2,1,0.008,0.01,0.048,-0.005,0.025,0.046,-1.531,0.033,0.042,31.89,107.0,40.520069,-3.410995,621.7,3,5,323.8,1.055
32.3,1,0.023,0.022,0.025,0.012,0.021,0.033,-1.533,0.031,0.043,31.89,107.0,40.520069,-3.410995,621.7,3,5,323.8,1.055
32.39,1,0.019,-0.019,0.029,0.015,0.005,0.033,-1.536,0.03,0.049,31.89,107.0,40.520069,-3.410995,621.7,3,5,323.8,1.055
32.49,1,0.032,0.01,0.045,0.023,0.0,0.036,-1.536,0.034,0.049,31.89,107.0,40.520069,-3.410995,621.7,3,5,323.8,1.055
32.59,1,0.02,0.02,0.034,0.022,0.007,0.037,-1.537,0.031,0.05,31.89,107.0,40.520069,-3.410995,621.7,3,5,323.8,1.055
32.69,1,-0.021,0.012,0.036,0.009,0.014,0.036,-1.539,0.027,0.051,31.89,107.0,40.520069,-3.410995,621.7,3,5,323.8,1.055
32.8,1,-0.085,-0.023,0.026,-0.036,-0.001,0.032,-1.543,0.028,0.055,31.89,107.0,40.520069,-3.410995,621.7,3,5,323.8,1.055
32.89,1,-0.08,-0.024,-0.024,-0.049,-0.014,0.011,-1.546,0.015,0.036,31.89,107.0,40.520069,-3.410995,621.7,3,5,323.8,1.055
32.99,1,-0.134,-0.04,0.039,-0.111,-0.03,0.006,-1.549,0.014,0.03,32.92,105.8,40.520283,-3.411201,621.6,3,5,323.1,1.406
33.09,1,-0.01,-0.003,0.062,-0.077,-0.028,0.04,-1.553,0.014,0.041,32.92,105.8,40.520283,-3.411201,621.6,3,5,323.1,1.406
33.19,1,0.034,0.004,0.047,-0.012,0.001,0.049,-1.555,0.017,0.043,32.92,105.8,40.520283,-3.411201,621.6,3,5,323.1,1.406
33.29,1,-0.024,-0.016,0.076,-0.008,-0.007,0.06,-1.559,0.021,0.044,32.92,105.8,40.520283,-3.411201,621.6,3,5,323.1,1.406
33.4,1,0.028,-0.007,0.083,-0.008,-0.012,0.074,-1.565,0.025,0.045,32.92,105.8,40.520283,-3.411201,621.6,3,5,323.1,1.406
33.5,1,0.092,0.015,0.057,0.051,0.002,0.066,-1.57,0.025,0.044,32.92,105.8,40.520283,-3.411201,621.6,3,5,323.1,1.406
33.59,1,0.021,0.012,0.036,0.048,0.011,0.054,-1.576,0.02,0.044,32.92,105.8,40.520283,-3.411201,621.6,3,5,323.1,1.406
33.7,1,0.041,0.014,0.069,0.045,0.011,0.056,-1.577,0.018,0.044,32.92,105.8,40.520283,-3.411201,621.6,3,5,323.1,1.406
33.8,1,0.059,-0.001,0.062,0.05,0.003,0.062,-1.577,0.02,0.043,32.92,105.8,40.520283,-3.411201,621.6,3,5,323.1,1.406
33.9,1,-0.067,0.058,0.02,0.012,0.021,0.041,-1.58,0.017,0.042,32.92,105.8,40.520283,-3.411201,621.6,3,5,323.1,1.406
34.0,1,-0.076,0.082,0.044,-0.056,0.06,0.042,-1.583,0.014,0.041,33.95,106.3,40.520493,-3.411411,621.3,3,5,323.1,0.703
34.1,1,0.078,0.072,0.054,-0.016,0.074,0.042,-1.583,0.011,0.04,33.95,106.3,40.520493,-3.411411,621.3,3,5,323.1,0.703
34.2,1,0.068,0.041,0.023,0.062,0.056,0.04,-1.582,0.01,0.038,33.95,106.3,40.520493,-3.411411,621.3,3,5,323.1,0.703
34.3,1,-0.148,0.045,-0.008,-0.026,0.053,0.015,-1.587,0.009,0.037,33.95,106.3,40.520493,-3.411411,621.3,3,5,323.1,0.703
34.4,1,-0.155,0.071,0.037,-0.103,0.054,0.022,-1.595,0.002,0.035,33.95,106.3,40.520493,-3.411411,621.3,3,5,323.1,0.703
34.5,1,-0.061,0.059,0.065,-0.119,0.062,0.043,-1.599,-0.001,0.034,33.95,106.3,40.520493,-3.411411,621.3,3,5,323.1,0.703
34.6,1,0.125,0.022,0.05,-0.004,0.045,0.056,-1.601,-0.005,0.033,33.95,106.3,40.520493,-3.411411,621.3,3,5,323.1,0.703
34.7,1,0.122,0.044,-0.009,0.084,0.041,0.018,-1.598,-0.004,0.033,33.95,106.3,40.520493,-3.411411,621.3,3,5,323.1,0.703
34.8,1,0.061,0.055,0.033,0.083,0.043,0.028,-1.598,-0.004,0.031,33.95,106.3,40.520493,-3.411411,621.3,3,5,323.1,0.703
34.9,1,0.0,0.023,-0.02,0.045,0.04,0.014,-1.597,-0.004,0.029,33.95,106.3,40.520493,-3.411411,621.3,3,5,323.1,0.703
35.0,1,-0.065,0.037,0.016,-0.016,0.032,-0.003,-1.596,-0.004,0.028,34.92,108.1,40.520718,-3.411624,622.8,3,5,323.1,0.0
35.1,1,-0.145,0.04,0.01,-0.078,0.042,0.013,-1.596,-0.004,0.026,34.92,108.1,40.520718,-3.411624,622.8,3,5,323.1,0.0
35.2,1,-0.12,0.04,-0.001,-0.109,0.036,0.004,-1.598,-0.003,0.025,34.92,108.1,40.520718,-3.411624,622.8,3,5,323.1,0.0
35.3,1,-0.035,0.023,0.028,-0.086,0.035,0.008,-1.602,-0.001,0.024,34.92,108.1,40.520718,-3.411624,622.8,3,5,323.1,0.0
35.4,1,0.067,-0.011,0.026,-0.009,0.012,0.022,-1.604,-0.003,0.023,34.92,108.1,40.520718,-3.411624,622.8,3,5,323.1,0.0
35.5,1,-0.001,0.01,0.017,0.014,0.007,0.023,-1.606,-0.004,0.022,34.92,108.1,40.520718,-3.411624,622.8,3,5,323.1,0.0
35.6,1,-0.028,0.007,0.031,-0.008,0.01,0.023,-1.608,-0.007,0.021,34.92,108.1,40.520718,-3.411624,622.8,3,5,323.1,0.0
35.71,1,0.035,-0.012,0.016,0.013,-0.002,0.025,-1.605,-0.01,0.021,34.92,108.1,40.520718,-3.411624,622.8,3,5,323.1,0.0
35.8,1,-0.032,-0.004,0.004,0.003,-0.013,0.013,-1.604,-0.011,0.02,34.92,108.1,40.520718,-3.411624,622.8,3,5,323.1,0.0
35.91,1,-0.11,-0.038,-0.014,-0.062,-0.015,-0.003,-1.601,-0.011,0.02,34.92,108.1,40.520718,-3.411624,622.8,3,5,323.1,0.0
36.0,1,-0.067,-0.048,0.045,-0.07,-0.033,0.019,-1.605,-0.01,0.02,35.92,110.0,40.520939,-3.411836,624.6,3,5,323.8,0.703
36.1,1,-0.049,-0.008,0.044,-0.068,-0.027,0.031,-1.609,-0.01,0.02,35.92,110.0,40.520939,-3.411836,624.6,3,5,323.8,0.703
36.2,1,0.025,0.006,0.03,-0.024,-0.01,0.036,-1.611,-0.008,0.019,35.92,110.0,40.520939,-3.411836,624.6,3,5,323.8,0.703
36.31,1,0.052,-0.015,0.034,0.017,-0.01,0.029,-1.61,-0.011,0.019,35.92,110.0,40.520939,-3.411836,624.6,3,5,323.8,0.703
36.4,1,-0.005,-0.005,0.011,0.034,-0.016,0.029,-1.612,-0.014,0.018,35.92,110.0,40.520939,-3.411836,624.6,3,5,323.8,0.703
36.51,1,-0.065,0.018,-0.005,-0.032,0.007,0.004,-1.611,-0.014,0.017,35.92,110.0,40.520939,-3.411836,624.6,3,5,323.8,0.703
36.61,1,0.01,-0.015,0.066,-0.032,0.006,0.026,-1.614,-0.014,0.016,35.92,110.0,40.520939,-3.411836,624.6,3,5,323.8,0.703
36.7,1,-0.002,0.003,0.004,0.006,-0.006,0.032,-1.618,-0.011,0.015,35.92,110.0,40.520939,-3.411836,624.6,3,5,323.8,0.703
36.8,1,0.03,0.011,0.007,0.006,0.002,0.013,-1.618,-0.01,0.014,35.92,110.0,40.520939,-3.411836,624.6,3,5,323.8,0.703
36.91,1,-0.011,0.024,0.014,0.012,0.014,0.013,-1.618,-0.008,0.013,35.92,110.0,40.520939,-3.411836,624.6,3,5,323.8,0.703
37.0,1,-0.112,-0.023,-0.025,-0.045,0.009,-0.005,-1.621,-0.012,0.012,36.92,111.7,40.521168,-3.412055,625.2,3,5,324.1,1.055
37.11,1,-0.078,-0.011,-0.002,-0.079,-0.007,-0.008,-1.621,-0.012,0.012,36.92,111.7,40.521168,-3.412055,625.2,3,5,324.1,1.055
37.2,1,-0.002,-0.026,0.024,-0.043,-0.024,0.009,-1.621,-0.012,0.011,36.92,111.7,40.521168,-3.412055,625.2,3,5,324.1,1.055
37.3,1,-0.014,0.015,-0.01,-0.014,-0.003,0.009,-1.619,-0.011,0.01,36.92,111.7,40.521168,-3.412055,625.2,3,5,324.1,1.055
37.41,1,-0.047,-0.023,-0.019,-0.045,-0.006,-0.008,-1.62,-0.01,0.009,36.92,111.7,40.521168,-3.412055,625.2,3,5,324.1,1.055
37.51,1,-0.079,-0.015,0.016,-0.056,-0.018,-0.008,-1.625,-0.012,0.009,36.92,111.7,40.521168,-3.412055,625.2,3,5,324.1,1.055
37.61,1,0.016,0.002,-0.007,-0.037,-0.006,-0.0,-1.629,-0.011,0.009,36.92,111.7,40.521168,-3.412055,625.2,3,5,324.1,1.055
37.71,1,0.081,0.027,-0.002,0.032,0.003,0.001,-1.629,-0.004,0.008,36.92,111.7,40.521168,-3.412055,625.2,3,5,324.1,1.055
37.81,1,0.081,0.017,-0.001,0.066,0.015,0.003,-1.625,0.001,0.008,36.92,111.7,40.521168,-3.412055,625.2,3,5,324.1,1.055
37.91,1,-0.022,-0.014,-0.04,0.036,0.005,-0.017,-1.621,0.004,0.008,36.92,111.7,40.521168,-3.412055,625.2,3,5,324.1,1.055
38.01,1,-0.024,0.007,0.031,-0.001,0.003,-0.013,-1.626,0.004,0.008,37.98,113.4,40.5214,-3.412271,625.4,3,5,324.5,0.703
38.11,1,-0.018,-0.027,0.024,-0.019,-0.01,0.015,-1.624,0.002,0.007,37.98,113.4,40.5214,-3.412271,625.4,3,5,324.5,0.703
38.21,1,-0.025,-0.016,-0.024,-0.022,-0.007,0.006,-1.623,0.001,0.007,37.98,113.4,40.5214,-3.412271,625.4,3,5,324.5,0.703
38.31,1,0.024,0.023,0.012,-0.002,-0.004,0.004,-1.623,0.001,0.007,37.98,113.4,40.5214,-3.412271,625.4,3,5,324.5,0.703
38.41,1,-0.027,-0.007,0.002,-0.004,0.002,0.006,-1.623,0.001,0.008,37.98,113.4,40.5214,-3.412271,625.4,3,5,324.5,0.703
38.51,1,0.001,0.013,0.006,-0.016,0.001,-0.003,-1.621,0.001,0.007,37.98,113.4,40.5214,-3.412271,625.4,3,5,324.5,0.703
38.61,1,0.028,-0.01,0.016,0.016,-0.004,0.014,-1.62,-0.001,0.007,37.98,113.4,40.5214,-3.412271,625.4,3,5,324.5,0.703
38.71,1,-0.027,0.002,-0.017,-0.004,0.002,-0.003,-1.621,0.004,0.007,37.98,113.4,40.5214,-3.412271,625.4,3,5,324.5,0.703
38.82,1,-0.052,-0.017,0.008,-0.033,-0.006,-0.001,-1.624,0.004,0.007,37.98,113.4,40.5214,-3.412271,625.4,3,5,324.5,0.703
38.91,1,-0.03,-0.002,0.012,-0.031,-0.005,0.006,-1.627,0.005,0.007,37.98,113.4,40.5214,-3.412271,625.4,3,5,324.5,0.703
39.01,1,-0.007,0.013,-0.005,-0.022,0.005,0.002,-1.628,0.004,0.006,38.91,114.8,40.521629,-3.412488,627.8,3,5,324.8,0.703
39.11,1,0.054,-0.007,0.014,0.011,-0.001,0.006,-1.628,0.006,0.006,38.91,114.8,40.521629,-3.412488,627.8,3,5,324.8,0.703
39.21,1,-0.019,0.016,-0.014,0.013,0.007,-0.001,-1.627,0.005,0.006,38.91,114.8,40.521629,-3.412488,627.8,3,5,324.8,0.703
39.31,1,-0.092,-0.006,-0.007,-0.036,0.003,-0.003,-1.627,0.005,0.006,38.91,114.8,40.521629,-3.412488,627.8,3,5,324.8,0.703
39.42,1,-0.037,-0.015,0.026,-0.051,-0.008,0.005,-1.629,0.006,0.007,38.91,114.8,40.521629,-3.412488,627.8,3,5,324.8,0.703
39.51,1,0.0,-0.038,-0.013,-0.035,-0.022,0.004,-1.631,0.006,0.007,38.91,114.8,40.521629,-3.412488,627.8,3,5,324.8,0.703
39.61,1,0.029,-0.028,0.002,0.012,-0.029,-0.001,-1.631,0.011,0.007,38.91,114.8,40.521629,-3.412488,627.8,3,5,324.8,0.703
39.71,1,-0.092,-0.025,-0.046,-0.028,-0.027,-0.018,-1.632,0.013,0.008,38.91,114.8,40.521629,-3.412488,627.8,3,5,324.8,0.703
39.81,1,0.036,-0.051,0.045,-0.02,-0.037,0.002,-1.63,0.011,0.008,38.91,114.8,40.521629,-3.412488,627.8,3,5,324.8,0.703
39.91,1,-0.058,-0.003,-0.033,-0.021,-0.031,-0.004,-1.628,0.008,0.008,38.91,114.8,40.521629,-3.412488,627.8,3,5,324.8,0.703
40.01,1,-0.049,-0.033,-0.016,-0.048,-0.02,-0.016,-1.628,0.009,0.009,39.92,116.3,40.52187,-3.412706,626.7,3,5,324.8,0.352
40.11,1,-0.033,-0.014,0.003,-0.037,-0.022,-0.004,-1.631,0.012,0.009,39.92,116.3,40.52187,-3.412706,626.7,3,5,324.8,0.352
40.21,1,0.029,-0.019,0.017,-0.013,-0.015,0.002,-1.628,0.015,0.009,39.92,116.3,40.52187,-3.412706,626.7,3,5,324.8,0.352
40.31,1,0.018,-0.018,0.003,0.016,-0.017,0.009,-1.631,0.017,0.009,39.92,116.3,40.52187,-3.412706,626.7,3,5,324.8,0.352
40.41,1,-0.029,0.008,0.004,-0.003,-0.009,0.001,-1.631,0.019,0.009,39.92,116.3,40.52187,-3.412706,626.7,3,5,324.8,0.352
40.51,1,-0.028,0.013,-0.02,-0.015,0.003,-0.004,-1.629,0.018,0.009,39.92,116.3,40.52187,-3.412706,626.7,3,5,324.8,0.352
40.61,1,-0.027,-0.005,-0.01,-0.024,0.005,-0.012,-1.626,0.019,0.01,39.92,116.3,40.52187,-3.412706,626.7,3,5,324.8,0.352
40.72,1,-0.019,0.001,-0.009,-0.029,-0.001,-0.008,-1.627,0.017,0.011,39.92,116.3,40.52187,-3.412706,626.7,3,5,324.8,0.352
40.82,1,-0.024,-0.004,-0.013,-0.021,-0.001,-0.011,-1.624,0.018,0.009,39.92,116.3,40.52187,-3.412706,626.7,3,5,324.8,0.352
40.92,1,-0.036,-0.017,-0.014,-0.028,-0.009,-0.015,-1.625,0.017,0.011,39.92,116.3,40.52187,-3.412706,626.7,3,5,324.8,0.352
41.02,1,-0.047,-0.016,-0.001,-0.042,-0.015,-0.006,-1.627,0.018,0.011,40.92,117.4,40.52211,-3.412926,627.6,3,5,324.8,0.0
41.12,1,0.011,-0.006,-0.022,-0.017,-0.009,-0.016,-1.627,0.02,0.011,40.92,117.4,40.52211,-3.412926,627.6,3,5,324.8,0.0
41.23,1,-0.062,-0.021,-0.039,-0.023,-0.013,-0.023,-1.626,0.028,0.013,40.92,117.4,40.52211,-3.412926,627.6,3,5,324.8,0.0
41.32,1,0.004,-0.02,-0.009,-0.035,-0.023,-0.024,-1.628,0.031,0.015,40.92,117.4,40.52211,-3.412926,627.6,3,5,324.8,0.0
41.42,1,-0.115,-0.014,-0.06,-0.055,-0.014,-0.035,-1.628,0.034,0.016,40.92,117.4,40.52211,-3.412926,627.6,3,5,324.8,0.0
41.52,1,-0.005,-0.019,-0.027,-0.057,-0.015,-0.039,-1.629,0.036,0.017,40.92,117.4,40.52211,-3.412926,627.6,3,5,324.8,0.0
41.62,1,-0.022,-0.044,-0.043,-0.011,-0.027,-0.033,-1.628,0.035,0.018,40.92,117.4,40.52211,-3.412926,627.6,3,5,324.8,0.0
41.72,1,-0.064,-0.05,-0.03,-0.05,-0.041,-0.036,-1.629,0.034,0.02,40.92,117.4,40.52211,-3.412926,627.6,3,5,324.8,0.0
41.82,1,-0.025,-0.01,-0.028,-0.032,-0.032,-0.026,-1.628,0.035,0.021,40.92,117.4,40.52211,-3.412926,627.6,3,5,324.8,0.0
41.93,1,-0.051,-0.014,-0.032,-0.046,-0.023,-0.037,-1.626,0.035,0.022,40.92,117.4,40.52211,-3.412926,627.6,3,5,324.8,0.0
42.03,1,-0.06,-0.016,-0.052,-0.055,-0.011,-0.036,-1.624,0.034,0.024,41.92,118.5,40.522354,-3.413144,630.1,3,5,325.9,1.055
42.13,1,0.03,-0.036,-0.02,-0.019,-0.028,-0.037,-1.621,0.036,0.025,41.92,118.5,40.522354,-3.413144,630.1,3,5,325.9,1.055
42.22,1,0.046,-0.073,-0.033,0.021,-0.044,-0.031,-1.616,0.036,0.027,41.92,118.5,40.522354,-3.413144,630.1,3,5,325.9,1.055
42.32,1,-0.037,-0.032,-0.019,0.005,-0.053,-0.02,-1.618,0.038,0.028,41.92,118.5,40.522354,-3.413144,630.1,3,5,325.9,1.055
42.42,1,-0.006,-0.025,-0.003,-0.013,-0.033,-0.019,-1.619,0.036,0.031,41.92,118.5,40.522354,-3.413144,630.1,3,5,325.9,1.055
42.52,1,0.064,-0.013,-0.02,0.029,-0.021,-0.017,-1.621,0.034,0.033,41.92,118.5,40.522354,-3.413144,630.1,3,5,325.9,1.055
42.63,1,0.033,-0.054,-0.019,0.031,-0.032,-0.016,-1.614,0.04,0.037,41.92,118.5,40.522354,-3.413144,630.1,3,5,325.9,1.055
42.72,1,0.12,-0.042,-0.026,0.069,-0.044,-0.022,-1.609,0.042,0.04,41.92,118.5,40.522354,-3.413144,630.1,3,5,325.9,1.055
42.82,1,-0.005,-0.057,-0.02,0.054,-0.046,-0.023,-1.604,0.045,0.042,41.92,118.5,40.522354,-3.413144,630.1,3,5,325.9,1.055
42.92,1,-0.116,-0.073,-0.026,-0.026,-0.06,-0.021,-1.602,0.047,0.045,41.92,118.5,40.522354,-3.413144,630.1,3,5,325.9,1.055
43.02,1,-0.13,-0.066,-0.04,-0.099,-0.067,-0.034,-1.601,0.045,0.048,42.92,119.6,40.522598,-3.413384,634.0,3,5,323.4,2.461
43.13,1,-0.037,-0.03,-0.023,-0.082,-0.051,-0.028,-1.599,0.043,0.052,42.92,119.6,40.522598,-3.413384,634.0,3,5,323.4,2.461
43.22,1,-0.015,-0.072,-0.044,-0.043,-0.054,-0.028,-1.593,0.045,0.055,42.92,119.6,40.522598,-3.413384,634.0,3,5,323.4,2.461
43.33,1,-0.035,-0.048,-0.05,-0.034,-0.058,-0.048,-1.587,0.049,0.06,42.92,119.6,40.522598,-3.413384,634.0,3,5,323.4,2.461
43.43,1,0.045,-0.039,-0.016,-0.006,-0.046,-0.033,-1.584,0.049,0.063,42.92,119.6,40.522598,-3.413384,634.0,3,5,323.4,2.461
43.52,1,-0.04,-0.054,-0.039,-0.004,-0.049,-0.037,-1.581,0.051,0.068,42.92,119.6,40.522598,-3.413384,634.0,3,5,323.4,2.461
43.62,1,-0.009,-0.068,-0.02,-0.014,-0.062,-0.026,-1.584,0.053,0.072,42.92,119.6,40.522598,-3.413384,634.0,3,5,323.4,2.461
43.72,1,-0.039,-0.031,-0.058,-0.021,-0.053,-0.036,-1.583,0.055,0.076,42.92,119.6,40.522598,-3.413384,634.0,3,5,323.4,2.461
43.82,1,-0.009,-0.05,-0.001,-0.02,-0.042,-0.022,-1.582,0.054,0.08,42.92,119.6,40.522598,-3.413384,634.0,3,5,323.4,2.461
43.92,1,0.022,-0.084,0.062,0.002,-0.058,0.005,-1.583,0.051,0.084,42.92,119.6,40.522598,-3.413384,634.0,3,5,323.4,2.461
44.02,1,-0.043,-0.021,-0.047,-0.016,-0.05,-0.001,-1.583,0.048,0.089,43.92,118.5,40.522831,-3.413627,631.6,3,5,322.0,3.867
44.12,1,0.011,-0.042,0.005,-0.012,-0.038,-0.003,-1.584,0.045,0.093,43.92,118.5,40.522831,-3.413627,631.6,3,5,322.0,3.867
44.22,1,-0.06,-0.051,-0.034,-0.031,-0.044,-0.023,-1.582,0.045,0.097,43.92,118.5,40.522831,-3.413627,631.6,3,5,322.0,3.867
44.33,1,0.01,-0.048,0.029,-0.01,-0.052,0.005,-1.574,0.046,0.101,43.92,118.5,40.522831,-3.413627,631.6,3,5,322.0,3.867
44.42,1,0.017,-0.017,0.001,-0.005,-0.036,0.004,-1.571,0.044,0.105,43.92,118.5,40.522831,-3.413627,631.6,3,5,322.0,3.867
44.54,1,0.029,-0.022,0.009,0.029,-0.028,0.012,-1.572,0.044,0.109,43.92,118.5,40.522831,-3.413627,631.6,3,5,322.0,3.867
44.63,1,-0.099,-0.017,-0.006,-0.029,-0.022,0.001,-1.576,0.046,0.113,43.92,118.5,40.522831,-3.413627,631.6,3,5,322.0,3.867
44.72,1,-0.087,-0.036,0.018,-0.073,-0.028,0.007,-1.578,0.054,0.118,43.92,118.5,40.522831,-3.413627,631.6,3,5,322.0,3.867
44.83,1,-0.001,-0.04,-0.011,-0.053,-0.038,0.001,-1.582,0.056,0.122,43.92,118.5,40.522831,-3.413627,631.6,3,5,322.0,3.867
44.93,1,-0.044,-0.042,-0.016,-0.039,-0.036,-0.017,-1.582,0.055,0.125,43.92,118.5,40.522831,-3.413627,631.6,3,5,322.0,3.867
45.04,1,0.014,-0.021,-0.023,-0.019,-0.03,-0.015,-1.581,0.056,0.13,44.92,117.4,40.523056,-3.413874,631.8,3,5,319.6,3.867
45.13,1,0.046,-0.01,0.01,0.026,-0.013,-0.005,-1.581,0.059,0.135,44.92,117.4,40.523056,-3.413874,631.8,3,5,319.6,3.867
45.23,1,-0.084,-0.054,-0.011,-0.019,-0.032,-0.008,-1.583,0.06,0.141,44.92,117.4,40.523056,-3.413874,631.8,3,5,319.6,3.867
45.33,1,0.012,-0.026,0.009,-0.023,-0.038,0.005,-1.586,0.068,0.146,44.92,117.4,40.523056,-3.413874,631.8,3,5,319.6,3.867
45.43,1,-0.002,-0.039,0.002,0.002,-0.035,0.005,-1.585,0.077,0.152,44.92,117.4,40.523056,-3.413874,631.8,3,5,319.6,3.867
45.53,1,-0.003,-0.009,0.012,-0.013,-0.025,-0.004,-1.579,0.08,0.156,44.92,117.4,40.523056,-3.413874,631.8,3,5,319.6,3.867
45.63,1,0.061,-0.036,0.029,0.032,-0.028,0.022,-1.575,0.085,0.161,44.92,117.4,40.523056,-3.413874,631.8,3,5,319.6,3.867
45.73,1,0.006,-0.0,-0.0,0.03,-0.014,0.02,-1.578,0.086,0.166,44.92,117.4,40.523056,-3.413874,631.8,3,5,319.6,3.867
45.83,1,-0.132,-0.009,-0.023,-0.045,-0.012,-0.007,-1.58,0.089,0.171,44.92,117.4,40.523056,-3.413874,631.8,3,5,319.6,3.867
45.93,1,-0.193,0.005,-0.013,-0.124,-0.005,-0.017,-1.584,0.092,0.176,44.92,117.4,40.523056,-3.413874,631.8,3,5,319.6,3.867
46.03,1,-0.004,-0.018,0.026,-0.1,-0.006,0.01,-1.589,0.094,0.18,45.89,116.8,40.523273,-3.414137,634.0,3,5,317.1,4.922
46.13,1,0.039,0.01,0.042,-0.01,0.001,0.023,-1.589,0.098,0.185,45.89,116.8,40.523273,-3.414137,634.0,3,5,317.1,4.922
46.24,1,-0.007,0.016,-0.024,-0.006,0.005,0.008,-1.59,0.098,0.19,45.89,116.8,40.523273,-3.414137,634.0,3,5,317.1,4.922
46.33,1,0.085,-0.035,0.027,0.038,-0.007,0.005,-1.589,0.098,0.195,45.89,116.8,40.523273,-3.414137,634.0,3,5,317.1,4.922
46.43,1,-0.015,-0.086,0.021,0.03,-0.046,0.014,-1.586,0.105,0.201,45.89,116.8,40.523273,-3.414137,634.0,3,5,317.1,4.922
46.53,1,-0.062,-0.033,0.01,-0.007,-0.052,0.021,-1.587,0.106,0.207,45.89,116.8,40.523273,-3.414137,634.0,3,5,317.1,4.922
46.63,1,-0.11,-0.018,-0.029,-0.073,-0.036,-0.004,-1.59,0.107,0.213,45.89,116.8,40.523273,-3.414137,634.0,3,5,317.1,4.922
46.73,1,-0.075,-0.013,0.014,-0.078,-0.022,-0.003,-1.589,0.104,0.218,45.89,116.8,40.523273,-3.414137,634.0,3,5,317.1,4.922
46.83,1,-0.008,-0.002,-0.012,-0.065,-0.012,0.0,-1.593,0.101,0.224,45.89,116.8,40.523273,-3.414137,634.0,3,5,317.1,4.922
46.93,1,0.043,-0.032,-0.005,-0.008,-0.015,-0.01,-1.599,0.102,0.229,45.89,116.8,40.523273,-3.414137,634.0,3,5,317.1,4.922
47.03,1,0.048,-0.008,-0.007,0.028,-0.021,-0.001,-1.599,0.099,0.233,46.9,116.5,40.523476,-3.414414,635.9,3,5,314.3,5.273
47.13,1,0.069,0.023,-0.02,0.053,0.004,-0.02,-1.598,0.096,0.236,46.9,116.5,40.523476,-3.414414,635.9,3,5,314.3,5.273
47.23,1,-0.003,0.036,-0.039,0.039,0.02,-0.018,-1.591,0.09,0.24,46.9,116.5,40.523476,-3.414414,635.9,3,5,314.3,5.273
47.33,1,-0.037,0.016,-0.049,-0.009,0.019,-0.037,-1.584,0.087,0.244,46.9,116.5,40.523476,-3.414414,635.9,3,5,314.3,5.273
47.44,1,0.004,0.043,-0.038,-0.004,0.033,-0.04,-1.576,0.086,0.247,46.9,116.5,40.523476,-3.414414,635.9,3,5,314.3,5.273
47.54,1,0.011,0.05,-0.063,0.001,0.04,-0.052,-1.57,0.087,0.25,46.9,116.5,40.523476,-3.414414,635.9,3,5,314.3,5.273
47.64,1,0.025,0.049,-0.06,0.021,0.045,-0.053,-1.569,0.086,0.253,46.9,116.5,40.523476,-3.414414,635.9,3,5,314.3,5.273
47.74,1,-0.036,0.073,-0.073,-0.009,0.059,-0.069,-1.565,0.085,0.256,46.9,116.5,40.523476,-3.414414,635.9,3,5,314.3,5.273
47.83,1,-0.042,0.061,-0.052,-0.025,0.062,-0.061,-1.557,0.079,0.258,46.9,116.5,40.523476,-3.414414,635.9,3,5,314.3,5.273
47.93,1,-0.042,0.078,-0.057,-0.04,0.073,-0.057,-1.553,0.068,0.26,46.9,116.5,40.523476,-3.414414,635.9,3,5,314.3,5.273
48.03,1,-0.045,0.056,-0.029,-0.036,0.063,-0.048,-1.547,0.061,0.262,47.89,116.1,40.523663,-3.414701,636.7,3,5,311.1,5.977
48.13,1,-0.011,0.067,-0.048,-0.032,0.065,-0.039,-1.545,0.056,0.264,47.89,116.1,40.523663,-3.414701,636.7,3,5,311.1,5.977
48.23,1,0.017,0.032,-0.04,-0.01,0.054,-0.048,-1.537,0.048,0.265,47.89,116.1,40.523663,-3.414701,636.7,3,5,311.1,5.977
48.34,1,-0.003,0.05,-0.018,0.007,0.045,-0.026,-1.533,0.045,0.266,47.89,116.1,40.523663,-3.414701,636.7,3,5,311.1,5.977
48.44,1,0.042,0.05,-0.04,0.004,0.049,-0.037,-1.528,0.042,0.268,47.89,116.1,40.523663,-3.414701,636.7,3,5,311.1,5.977
48.54,1,0.065,0.023,-0.025,0.044,0.034,-0.034,-1.526,0.041,0.27,47.89,116.1,40.523663,-3.414701,636.7,3,5,311.1,5.977
48.64,1,-0.071,0.051,-0.062,-0.001,0.038,-0.041,-1.525,0.038,0.271,47.89,116.1,40.523663,-3.414701,636.7,3,5,311.1,5.977
48.74,1,0.023,0.027,0.003,-0.01,0.04,-0.024,-1.525,0.034,0.272,47.89,116.1,40.523663,-3.414701,636.7,3,5,311.1,5.977
48.85,1,0.056,0.039,-0.005,0.03,0.034,-0.014,-1.519,0.03,0.274,47.89,116.1,40.523663,-3.414701,636.7,3,5,311.1,5.977
48.94,1,-0.017,0.06,-0.041,0.022,0.048,-0.019,-1.516,0.03,0.276,47.89,116.1,40.523663,-3.414701,636.7,3,5,311.1,5.977
49.04,1,-0.029,0.024,-0.034,-0.008,0.042,-0.035,-1.514,0.029,0.278,48.92,113.9,40.523838,-3.414993,636.2,3,5,309.4,4.922
49.14,1,0.019,0.023,0.004,-0.004,0.027,-0.016,-1.512,0.028,0.279,48.92,113.9,40.523838,-3.414993,636.2,3,5,309.4,4.922
49.25,1,-0.054,0.001,-0.049,-0.021,0.02,-0.023,-1.512,0.027,0.282,48.92,113.9,40.523838,-3.414993,636.2,3,5,309.4,4.922
49.35,1,-0.004,-0.013,-0.009,-0.025,-0.001,-0.027,-1.514,0.024,0.283,48.92,113.9,40.523838,-3.414993,636.2,3,5,309.4,4.922
49.44,1,0.031,0.019,-0.011,0.006,0.001,-0.015,-1.511,0.025,0.285,48.92,113.9,40.523838,-3.414993,636.2,3,5,309.4,4.922
49.55,1,0.027,0.026,0.019,0.019,0.02,-0.001,-1.504,0.026,0.287,48.92,113.9,40.523838,-3.414993,636.2,3,5,309.4,4.922
49.64,1,-0.014,0.03,0.005,0.004,0.023,0.01,-1.5,0.027,0.29,48.92,113.9,40.523838,-3.414993,636.2,3,5,309.4,4.922
49.74,1,0.013,0.008,-0.01,0.002,0.023,-0.009,-1.503,0.026,0.292,48.92,113.9,40.523838,-3.414993,636.2,3,5,309.4,4.922
49.84,1,0.059,0.005,0.018,0.042,0.006,0.011,-1.507,0.029,0.295,48.92,113.9,40.523838,-3.414993,636.2,3,5,309.4,4.922
49.94,1,-0.103,0.022,-0.013,-0.016,0.011,-0.002,-1.508,0.03,0.298,48.92,113.9,40.523838,-3.414993,636.2,3,5,309.4,4.922
50.04,1,0.001,0.013,0.008,-0.04,0.015,0.002,-1.511,0.03,0.301,49.89,111.1,40.524002,-3.415284,636.7,3,5,308.0,3.164
50.15,1,0.038,0.017,0.025,0.005,0.017,0.011,-1.511,0.034,0.303,49.89,111.1,40.524002,-3.415284,636.7,3,5,308.0,3.164
50.24,1,0.003,-0.013,0.027,0.012,0.005,0.021,-1.51,0.037,0.306,49.89,111.1,40.524002,-3.415284,636.7,3,5,308.0,3.164
50.34,1,0.009,-0.002,0.041,0.011,-0.002,0.035,-1.512,0.036,0.309,49.89,111.1,40.524002,-3.415284,636.7,3,5,308.0,3.164
50.44,1,0.026,0.005,0.033,0.022,0.004,0.034,-1.517,0.035,0.312,49.89,111.1,40.524002,-3.415284,636.7,3,5,308.0,3.164
50.55,1,-0.025,0.014,0.034,0.001,0.007,0.033,-1.522,0.033,0.315,49.89,111.1,40.524002,-3.415284,636.7,3,5,308.0,3.164
50.64,1,-0.014,0.028,0.066,-0.013,0.02,0.046,-1.526,0.034,0.318,49.89,111.1,40.524002,-3.415284,636.7,3,5,308.0,3.164
50.74,1,-0.071,-0.02,0.04,-0.041,0.003,0.048,-1.53,0.038,0.322,49.89,111.1,40.524002,-3.415284,636.7,3,5,308.0,3.164
50.85,1,0.046,-0.013,0.054,-0.018,-0.005,0.045,-1.533,0.041,0.325,49.89,111.1,40.524002,-3.415284,636.7,3,5,308.0,3.164
50.94,1,0.026,-0.031,0.048,0.025,-0.021,0.051,-1.538,0.045,0.328,49.89,111.1,40.524002,-3.415284,636.7,3,5,308.0,3.164
51.04,1,-0.035,-0.058,0.024,-0.002,-0.043,0.033,-1.538,0.054,0.332,50.94,108.5,40.524158,-3.415574,637.6,3,5,306.2,3.164
51.15,1,-0.02,-0.052,0.065,-0.021,-0.045,0.053,-1.541,0.06,0.337,50.94,108.5,40.524158,-3.415574,637.6,3,5,306.2,3.164
51.24,1,0.003,-0.003,0.043,-0.002,-0.031,0.051,-1.542,0.062,0.341,50.94,108.5,40.524158,-3.415574,637.6,3,5,306.2,3.164
51.35,1,-0.028,-0.033,0.04,-0.018,-0.024,0.044,-1.544,0.062,0.346,50.94,108.5,40.524158,-3.415574,637.6,3,5,306.2,3.164
51.44,1,0.022,-0.003,0.084,-0.003,-0.015,0.059,-1.55,0.063,0.35,50.94,108.5,40.524158,-3.415574,637.6,3,5,306.2,3.164
51.54,1,-0.059,-0.041,0.061,-0.009,-0.024,0.068,-1.557,0.067,0.354,50.94,108.5,40.524158,-3.415574,637.6,3,5,306.2,3.164
51.64,1,-0.046,-0.02,0.016,-0.037,-0.029,0.043,-1.562,0.072,0.36,50.94,108.5,40.524158,-3.415574,637.6,3,5,306.2,3.164
51.74,1,0.029,-0.044,0.031,-0.025,-0.033,0.034,-1.568,0.076,0.364,50.94,108.5,40.524158,-3.415574,637.6,3,5,306.2,3.164
51.85,1,0.105,-0.046,0.048,0.045,-0.039,0.039,-1.569,0.077,0.369,50.94,108.5,40.524158,-3.415574,637.6,3,5,306.2,3.164
51.95,1,-0.007,-0.029,0.02,0.036,-0.035,0.035,-1.569,0.078,0.374,50.94,108.5,40.524158,-3.415574,637.6,3,5,306.2,3.164
52.05,1,-0.047,0.018,0.04,-0.009,-0.01,0.034,-1.575,0.083,0.38,51.9,109.3,40.524303,-3.415863,637.5,3,5,302.3,5.625
52.14,1,-0.004,-0.018,0.029,-0.015,-0.01,0.029,-1.577,0.088,0.384,51.9,109.3,40.524303,-3.415863,637.5,3,5,302.3,5.625
52.25,1,-0.033,-0.017,0.016,-0.022,-0.016,0.025,-1.579,0.091,0.389,51.9,109.3,40.524303,-3.415863,637.5,3,5,302.3,5.625
52.35,1,-0.001,-0.021,0.026,-0.013,-0.017,0.026,-1.58,0.093,0.393,51.9,109.3,40.524303,-3.415863,637.5,3,5,302.3,5.625
52.45,1,0.029,0.002,0.044,0.009,-0.014,0.032,-1.582,0.091,0.397,51.9,109.3,40.524303,-3.415863,637.5,3,5,302.3,5.625
52.55,1,-0.01,0.059,0.017,0.008,0.02,0.029,-1.585,0.089,0.401,51.9,109.3,40.524303,-3.415863,637.5,3,5,302.3,5.625
52.65,1,-0.091,0.026,0.001,-0.04,0.037,0.012,-1.585,0.089,0.405,51.9,109.3,40.524303,-3.415863,637.5,3,5,302.3,5.625
52.75,1,0.002,0.006,0.016,-0.04,0.016,0.012,-1.587,0.094,0.408,51.9,109.3,40.524303,-3.415863,637.5,3,5,302.3,5.625
52.85,1,0.049,0.026,0.034,0.017,0.016,0.024,-1.589,0.092,0.411,51.9,109.3,40.524303,-3.415863,637.5,3,5,302.3,5.625
52.95,1,-0.003,0.027,-0.006,0.008,0.026,0.016,-1.589,0.088,0.414,51.9,109.3,40.524303,-3.415863,637.5,3,5,302.3,5.625
53.05,1,-0.025,0.022,0.022,-0.005,0.026,0.009,-1.585,0.085,0.417,52.89,109.7,40.524441,-3.416175,638.5,3,5,299.2,7.031
53.15,1,-0.031,0.009,0.029,-0.017,0.017,0.022,-1.586,0.08,0.419,52.89,109.7,40.524441,-3.416175,638.5,3,5,299.2,7.031
53.26,1,-0.007,0.048,0.028,-0.022,0.03,0.028,-1.586,0.079,0.422,52.89,109.7,40.524441,-3.416175,638.5,3,5,299.2,7.031
53.35,1,-0.003,0.034,0.001,-0.012,0.036,0.013,-1.588,0.08,0.426,52.89,109.7,40.524441,-3.416175,638.5,3,5,299.2,7.031
53.45,1,0.047,0.002,0.017,0.017,0.02,0.018,-1.591,0.078,0.429,52.89,109.7,40.524441,-3.416175,638.5,3,5,299.2,7.031
53.55,1,0.025,0.032,0.012,0.025,0.02,0.012,-1.59,0.079,0.432,52.89,109.7,40.524441,-3.416175,638.5,3,5,299.2,7.031
53.66,1,0.036,0.023,-0.009,0.033,0.024,0.006,-1.587,0.079,0.435,52.89,109.7,40.524441,-3.416175,638.5,3,5,299.2,7.031
53.75,1,-0.029,0.051,-0.026,0.01,0.031,-0.011,-1.584,0.076,0.437,52.89,109.7,40.524441,-3.416175,638.5,3,5,299.2,7.031
53.86,1,-0.067,0.019,-0.017,-0.036,0.037,-0.016,-1.581,0.076,0.44,52.89,109.7,40.524441,-3.416175,638.5,3,5,299.2,7.031
53.95,1,-0.028,0.001,-0.009,-0.038,0.017,-0.017,-1.583,0.077,0.444,52.89,109.7,40.524441,-3.416175,638.5,3,5,299.2,7.031
54.05,1,-0.037,0.005,0.017,-0.033,0.004,0.002,-1.584,0.077,0.447,53.91,111.3,40.524567,-3.416494,637.5,3,5,296.0,6.328
54.15,1,0.082,-0.007,-0.008,0.008,0.003,-0.004,-1.584,0.075,0.451,53.91,111.3,40.524567,-3.416494,637.5,3,5,296.0,6.328
54.25,1,0.043,-0.02,-0.012,0.047,-0.004,-0.008,-1.582,0.076,0.455,53.91,111.3,40.524567,-3.416494,637.5,3,5,296.0,6.328
54.35,1,0.015,-0.011,-0.006,0.028,-0.016,-0.007,-1.581,0.078,0.459,53.91,111.3,40.524567,-3.416494,637.5,3,5,296.0,6.328
54.47,1,-0.017,-0.061,-0.004,0.009,-0.033,-0.001,-1.58,0.079,0.463,53.91,111.3,40.524567,-3.416494,637.5,3,5,296.0,6.328
54.55,1,-0.011,-0.037,-0.02,-0.008,-0.042,-0.012,-1.579,0.082,0.467,53.91,111.3,40.524567,-3.416494,637.5,3,5,296.0,6.328
54.65,1,0.026,-0.037,-0.017,0.0,-0.04,-0.019,-1.579,0.081,0.471,53.91,111.3,40.524567,-3.416494,637.5,3,5,296.0,6.328
54.75,1,-0.033,-0.005,-0.046,0.005,-0.022,-0.028,-1.579,0.08,0.475,53.91,111.3,40.524567,-3.416494,637.5,3,5,296.0,6.328
54.86,1,-0.032,-0.058,-0.013,-0.035,-0.032,-0.027,-1.576,0.079,0.479,53.91,111.3,40.524567,-3.416494,637.5,3,5,296.0,6.328
54.95,1,0.057,-0.02,0.002,-0.0,-0.037,-0.004,-1.58,0.081,0.484,53.91,111.3,40.524567,-3.416494,637.5,3,5,296.0,6.328
55.05,1,0.059,-0.023,-0.0,0.045,-0.028,-0.005,-1.577,0.081,0.488,54.91,112.5,40.524677,-3.416826,638.1,3,5,293.6,5.625
55.16,1,0.025,0.011,-0.017,0.052,-0.012,-0.012,-1.573,0.076,0.491,54.91,112.5,40.524677,-3.416826,638.1,3,5,293.6,5.625
55.25,1,-0.005,0.027,-0.02,0.007,0.009,-0.017,-1.574,0.071,0.494,54.91,112.5,40.524677,-3.416826,638.1,3,5,293.6,5.625
55.35,1,0.068,0.057,0.022,0.034,0.037,-0.003,-1.576,0.066,0.495,54.91,112.5,40.524677,-3.416826,638.1,3,5,293.6,5.625
55.45,1,0.019,0.064,-0.03,0.03,0.052,-0.005,-1.574,0.058,0.497,54.91,112.5,40.524677,-3.416826,638.1,3,5,293.6,5.625
55.55,1,-0.077,0.056,-0.038,-0.003,0.053,-0.023,-1.573,0.057,0.499,54.91,112.5,40.524677,-3.416826,638.1,3,5,293.6,5.625
55.66,1,-0.034,0.005,-0.021,-0.041,0.035,-0.03,-1.577,0.057,0.5,54.91,112.5,40.524677,-3.416826,638.1,3,5,293.6,5.625
55.75,1,0.028,0.038,0.009,-0.006,0.03,-0.011,-1.579,0.061,0.502,54.91,112.5,40.524677,-3.416826,638.1,3,5,293.6,5.625
55.85,1,-0.018,0.038,-0.026,-0.002,0.037,-0.012,-1.578,0.065,0.503,54.91,112.5,40.524677,-3.416826,638.1,3,5,293.6,5.625
55.95,1,0.048,0.041,-0.047,0.014,0.041,-0.025,-1.574,0.063,0.504,54.91,112.5,40.524677,-3.416826,638.1,3,5,293.6,5.625
56.06,1,0.045,0.053,0.003,0.046,0.041,-0.017,-1.574,0.06,0.504,55.9,113.3,40.52478,-3.417169,638.6,3,5,290.7,5.273
56.17,1,-0.089,0.075,-0.034,-0.022,0.062,-0.026,-1.574,0.051,0.504,55.9,113.3,40.52478,-3.417169,638.6,3,5,290.7,5.273
56.26,1,0.088,0.028,0.03,-0.002,0.061,-0.009,-1.575,0.049,0.505,55.9,113.3,40.52478,-3.417169,638.6,3,5,290.7,5.273
56.37,1,0.113,-0.002,-0.054,0.075,0.021,-0.009,-1.566,0.05,0.505,55.9,113.3,40.52478,-3.417169,638.6,3,5,290.7,5.273
56.46,1,0.066,0.033,-0.039,0.08,0.015,-0.033,-1.561,0.051,0.506,55.9,113.3,40.52478,-3.417169,638.6,3,5,290.7,5.273
56.56,1,0.086,0.051,-0.032,0.081,0.034,-0.038,-1.56,0.049,0.507,55.9,113.3,40.52478,-3.417169,638.6,3,5,290.7,5.273
56.66,1,-0.136,-0.018,-0.046,0.001,0.024,-0.038,-1.56,0.052,0.509,55.9,113.3,40.52478,-3.417169,638.6,3,5,290.7,5.273
56.77,1,-0.183,-0.07,-0.045,-0.111,-0.031,-0.045,-1.562,0.055,0.511,55.9,113.3,40.52478,-3.417169,638.6,3,5,290.7,5.273
56.86,1,-0.145,-0.041,-0.046,-0.152,-0.048,-0.05,-1.566,0.053,0.513,55.9,113.3,40.52478,-3.417169,638.6,3,5,290.7,5.273
57.06,1,0.07,-0.011,-0.031,0.014,-0.009,-0.017,-1.562,0.056,0.517,55.9,113.3,40.52478,-3.417169,638.6,3,5,290.7,5.273
57.16,1,0.072,-0.024,-0.015,0.054,-0.015,-0.027,-1.56,0.059,0.519,56.91,113.3,40.524879,-3.417523,637.2,3,5,289.0,4.57
57.26,1,0.02,-0.034,-0.018,0.046,-0.029,-0.012,-1.555,0.062,0.521,56.91,113.3,40.524879,-3.417523,637.2,3,5,289.0,4.57
57.37,1,-0.043,-0.003,-0.025,0.006,-0.017,-0.018,-1.549,0.066,0.522,56.91,113.3,40.524879,-3.417523,637.2,3,5,289.0,4.57
57.46,1,-0.053,-0.003,-0.025,-0.036,-0.004,-0.029,-1.547,0.065,0.523,56.91,113.3,40.524879,-3.417523,637.2,3,5,289.0,4.57
57.57,1,-0.074,0.033,-0.024,-0.054,0.002,-0.024,-1.547,0.061,0.524,56.91,113.3,40.524879,-3.417523,637.2,3,5,289.0,4.57
57.66,1,-0.026,0.006,0.024,-0.035,0.01,0.003,-1.546,0.059,0.525,56.91,113.3,40.524879,-3.417523,637.2,3,5,289.0,4.57
57.76,1,-0.042,0.001,-0.009,-0.051,0.014,-0.006,-1.545,0.061,0.526,56.91,113.3,40.524879,-3.417523,637.2,3,5,289.0,4.57
57.86,1,0.12,0.038,0.009,0.024,0.021,-0.002,-1.542,0.063,0.526,56.91,113.3,40.524879,-3.417523,637.2,3,5,289.0,4.57
57.97,1,-0.007,0.045,-0.036,0.029,0.034,-0.014,-1.534,0.063,0.525,56.91,113.3,40.524879,-3.417523,637.2,3,5,289.0,4.57
58.06,1,0.003,0.023,0.002,0.019,0.028,-0.001,-1.529,0.062,0.524,56.91,113.3,40.524879,-3.417523,637.2,3,5,289.0,4.57
58.18,1,-0.036,0.047,-0.015,-0.012,0.034,-0.015,-1.525,0.058,0.523,57.9,113.3,40.524967,-3.417876,635.6,3,5,286.9,3.867
58.27,1,-0.016,0.069,0.006,-0.009,0.055,-0.001,-1.523,0.056,0.522,57.9,113.3,40.524967,-3.417876,635.6,3,5,286.9,3.867
58.36,1,-0.082,0.057,-0.02,-0.048,0.056,-0.012,-1.522,0.055,0.522,57.9,113.3,40.524967,-3.417876,635.6,3,5,286.9,3.867
58.46,1,-0.073,0.068,-0.021,-0.068,0.063,-0.017,-1.523,0.054,0.521,57.9,113.3,40.524967,-3.417876,635.6,3,5,286.9,3.867
58.56,1,-0.047,0.059,-0.019,-0.061,0.07,-0.02,-1.524,0.053,0.521,57.9,113.3,40.524967,-3.417876,635.6,3,5,286.9,3.867
58.66,1,0.031,0.057,-0.006,-0.025,0.051,-0.013,-1.527,0.052,0.52,57.9,113.3,40.524967,-3.417876,635.6,3,5,286.9,3.867
58.77,1,0.008,0.038,-0.02,0.006,0.049,-0.01,-1.524,0.049,0.518,57.9,113.3,40.524967,-3.417876,635.6,3,5,286.9,3.867
58.86,1,-0.018,0.035,0.006,-0.002,0.042,-0.012,-1.522,0.048,0.517,57.9,113.3,40.524967,-3.417876,635.6,3,5,286.9,3.867
58.96,1,0.041,0.048,-0.004,0.01,0.041,0.002,-1.521,0.045,0.516,57.9,113.3,40.524967,-3.417876,635.6,3,5,286.9,3.867
59.06,1,0.014,0.019,-0.025,0.011,0.038,-0.019,-1.521,0.046,0.515,57.9,113.3,40.524967,-3.417876,635.6,3,5,286.9,3.867
59.16,1,0.031,0.021,-0.002,0.026,0.022,-0.008,-1.518,0.046,0.514,58.9,112.8,40.525055,-3.418241,636.1,3,5,285.8,3.164
59.27,1,-0.024,0.045,-0.01,0.013,0.029,-0.005,-1.517,0.042,0.511,58.9,112.8,40.525055,-3.418241,636.1,3,5,285.8,3.164
59.36,1,-0.106,0.072,-0.024,-0.046,0.054,-0.016,-1.52,0.039,0.509,58.9,112.8,40.525055,-3.418241,636.1,3,5,285.8,3.164
59.48,1,-0.004,0.072,0.014,-0.048,0.065,-0.008,-1.523,0.038,0.507,58.9,112.8,40.525055,-3.418241,636.1,3,5,285.8,3.164
59.56,1,0.013,0.035,0.031,-0.007,0.056,0.016,-1.524,0.037,0.505,58.9,112.8,40.525055,-3.418241,636.1,3,5,285.8,3.164
59.67,1,0.037,0.066,0.013,0.02,0.058,0.016,-1.526,0.04,0.503,58.9,112.8,40.525055,-3.418241,636.1,3,5,285.8,3.164
59.77,1,0.046,0.054,-0.01,0.029,0.054,0.003,-1.525,0.039,0.5,58.9,112.8,40.525055,-3.418241,636.1,3,5,285.8,3.164
59.87,1,-0.031,0.04,0.031,-0.001,0.048,0.012,-1.523,0.037,0.497,58.9,112.8,40.525055,-3.418241,636.1,3,5,285.8,3.164
59.97,1,-0.005,0.06,0.003,-0.001,0.054,0.015,-1.523,0.034,0.494,58.9,112.8,40.525055,-3.418241,636.1,3,5,285.8,3.164
60.07,1,-0.032,0.035,0.014,-0.021,0.045,0.015,-1.524,0.028,0.491,58.9,112.8,40.525055,-3.418241,636.1,3,5,285.8,3.164
60.17,1,0.041,0.036,0.005,0.005,0.04,0.007,-1.522,0.019,0.488,59.91,112.1,40.525131,-3.418595,635.8,3,5,285.5,1.406
60.27,1,-0.003,0.09,-0.008,0.013,0.058,-0.001,-1.52,0.012,0.484,59.91,112.1,40.525131,-3.418595,635.8,3,5,285.5,1.406
60.37,1,-0.04,0.121,-0.014,-0.009,0.092,-0.006,-1.522,0.004,0.481,59.91,112.1,40.525131,-3.418595,635.8,3,5,285.5,1.406
60.47,1,-0.068,0.057,0.005,-0.042,0.088,-0.004,-1.523,0.003,0.478,59.91,112.1,40.525131,-3.418595,635.8,3,5,285.5,1.406
60.57,1,-0.044,0.026,0.016,-0.059,0.05,0.003,-1.526,0.006,0.475,59.91,112.1,40.525131,-3.418595,635.8,3,5,285.5,1.406
60.68,1,0.029,0.027,-0.01,-0.017,0.039,0.006,-1.525,0.009,0.472,59.91,112.1,40.525131,-3.418595,635.8,3,5,285.5,1.406
60.77,1,0.053,0.015,0.008,0.034,0.021,0.004,-1.52,0.009,0.468,59.91,112.1,40.525131,-3.418595,635.8,3,5,285.5,1.406
60.87,1,-0.048,0.038,-0.014,-0.001,0.03,-0.004,-1.517,0.007,0.464,59.91,112.1,40.525131,-3.418595,635.8,3,5,285.5,1.406
60.97,1,0.025,0.032,-0.013,-0.002,0.035,-0.01,-1.517,0.004,0.46,59.91,112.1,40.525131,-3.418595,635.8,3,5,285.5,1.406
61.07,1,-0.076,0.041,-0.01,-0.03,0.033,-0.013,-1.519,0.005,0.457,59.91,112.1,40.525131,-3.418595,635.8,3,5,285.5,1.406
61.17,1,-0.028,0.034,-0.013,-0.039,0.036,-0.013,-1.52,0.006,0.454,60.91,114.2,40.525208,-3.418957,635.0,3,5,285.5,0.352
61.27,1,0.01,0.043,-0.003,-0.016,0.034,-0.005,-1.523,0.006,0.45,60.91,114.2,40.525208,-3.418957,635.0,3,5,285.5,0.352
61.37,1,-0.018,0.044,-0.005,-0.009,0.044,-0.009,-1.521,0.004,0.445,60.91,114.2,40.525208,-3.418957,635.0,3,5,285.5,0.352
61.47,1,-0.006,0.04,0.006,-0.004,0.044,0.001,-1.521,0.001,0.442,60.91,114.2,40.525208,-3.418957,635.0,3,5,285.5,0.352
61.57,1,-0.052,0.039,-0.008,-0.037,0.04,-0.006,-1.52,0.002,0.437,60.91,114.2,40.525208,-3.418957,635.0,3,5,285.5,0.352
61.67,1,0.059,0.046,-0.006,0.003,0.044,-0.006,-1.518,0.001,0.432,60.91,114.2,40.525208,-3.418957,635.0,3,5,285.5,0.352
61.77,1,0.047,0.078,0.009,0.039,0.053,-0.0,-1.514,-0.001,0.427,60.91,114.2,40.525208,-3.418957,635.0,3,5,285.5,0.352
61.88,1,-0.018,0.06,-0.039,0.01,0.064,-0.011,-1.514,-0.003,0.423,60.91,114.2,40.525208,-3.418957,635.0,3,5,285.5,0.352
61.97,1,0.011,0.018,-0.026,0.002,0.043,-0.027,-1.514,-0.002,0.418,60.91,114.2,40.525208,-3.418957,635.0,3,5,285.5,0.352
62.07,1,-0.018,0.044,-0.0,0.012,0.036,-0.009,-1.515,-0.0,0.414,60.91,114.2,40.525208,-3.418957,635.0,3,5,285.5,0.352
62.17,1,-0.146,0.013,-0.04,-0.067,0.034,-0.027,-1.516,0.002,0.41,61.9,112.3,40.525288,-3.419311,634.5,3,5,287.2,1.758
62.27,1,0.002,-0.005,0.005,-0.06,0.01,-0.017,-1.515,0.004,0.406,61.9,112.3,40.525288,-3.419311,634.5,3,5,287.2,1.758
62.38,1,-0.009,0.012,-0.001,-0.023,0.006,-0.004,-1.519,0.004,0.402,61.9,112.3,40.525288,-3.419311,634.5,3,5,287.2,1.758
62.48,1,0.012,0.006,0.003,-0.005,0.013,0.005,-1.518,0.006,0.399,61.9,112.3,40.525288,-3.419311,634.5,3,5,287.2,1.758
62.58,1,0.022,0.028,0.011,0.011,0.014,0.005,-1.518,0.006,0.394,61.9,112.3,40.525288,-3.419311,634.5,3,5,287.2,1.758
62.68,1,-0.063,0.069,-0.023,-0.014,0.04,-0.006,-1.518,0.004,0.389,61.9,112.3,40.525288,-3.419311,634.5,3,5,287.2,1.758
62.77,1,-0.005,0.017,-0.02,-0.038,0.04,-0.013,-1.517,0.003,0.384,61.9,112.3,40.525288,-3.419311,634.5,3,5,287.2,1.758
62.87,1,0.022,0.034,0.018,0.009,0.027,0.002,-1.514,-0.0,0.379,61.9,112.3,40.525288,-3.419311,634.5,3,5,287.2,1.758
62.97,1,-0.119,0.063,-0.049,-0.042,0.044,-0.015,-1.513,-0.004,0.374,61.9,112.3,40.525288,-3.419311,634.5,3,5,287.2,1.758
63.07,1,-0.084,0.057,0.017,-0.095,0.054,-0.02,-1.519,-0.009,0.37,61.9,112.3,40.525288,-3.419311,634.5,3,5,287.2,1.758
63.17,1,0.023,0.026,0.007,-0.033,0.045,0.006,-1.523,-0.008,0.365,62.9,110.2,40.525375,-3.41966,633.9,3,5,288.3,2.812
63.27,1,0.01,0.064,-0.014,0.004,0.05,-0.005,-1.523,-0.007,0.36,62.9,110.2,40.525375,-3.41966,633.9,3,5,288.3,2.812
63.38,1,-0.001,0.063,-0.024,0.01,0.053,-0.013,-1.523,-0.007,0.354,62.9,110.2,40.525375,-3.41966,633.9,3,5,288.3,2.812
63.47,1,-0.066,0.081,-0.035,-0.025,0.067,-0.022,-1.523,-0.008,0.348,62.9,110.2,40.525375,-3.41966,633.9,3,5,288.3,2.812
63.58,1,0.013,0.042,-0.005,-0.013,0.063,-0.022,-1.522,-0.009,0.342,62.9,110.2,40.525375,-3.41966,633.9,3,5,288.3,2.812
63.68,1,-0.083,0.072,-0.011,-0.044,0.063,-0.008,-1.518,-0.009,0.336,62.9,110.2,40.525375,-3.41966,633.9,3,5,288.3,2.812
63.79,1,-0.093,0.045,-0.027,-0.086,0.059,-0.026,-1.515,-0.008,0.33,62.9,110.2,40.525375,-3.41966,633.9,3,5,288.3,2.812
63.89,1,-0.024,0.037,0.038,-0.053,0.044,0.001,-1.515,-0.007,0.324,62.9,110.2,40.525375,-3.41966,633.9,3,5,288.3,2.812
63.98,1,-0.098,0.056,0.004,-0.072,0.048,0.013,-1.516,-0.008,0.318,62.9,110.2,40.525375,-3.41966,633.9,3,5,288.3,2.812
64.08,1,-0.061,0.063,0.006,-0.068,0.059,0.009,-1.517,-0.01,0.312,62.9,110.2,40.525375,-3.41966,633.9,3,5,288.3,2.812
64.18,1,0.021,0.032,0.002,-0.03,0.049,0.002,-1.517,-0.01,0.306,63.91,110.1,40.525467,-3.420006,633.1,3,5,290.0,2.812
64.28,1,0.052,0.032,-0.013,0.011,0.037,-0.002,-1.515,-0.015,0.3,63.91,110.1,40.525467,-3.420006,633.1,3,5,290.0,2.812
64.38,1,0.002,0.009,-0.0,0.026,0.026,-0.006,-1.513,-0.017,0.294,63.91,110.1,40.525467,-3.420006,633.1,3,5,290.0,2.812
64.48,1,-0.054,0.013,-0.005,-0.02,0.015,-0.001,-1.514,-0.02,0.288,63.91,110.1,40.525467,-3.420006,633.1,3,5,290.0,2.812
64.58,1,-0.048,0.045,-0.018,-0.034,0.025,-0.01,-1.515,-0.021,0.283,63.91,110.1,40.525467,-3.420006,633.1,3,5,290.0,2.812
64.68,1,-0.002,-0.001,-0.015,-0.015,0.022,-0.013,-1.517,-0.024,0.278,63.91,110.1,40.525467,-3.420006,633.1,3,5,290.0,2.812
64.79,1,-0.132,0.008,-0.023,-0.063,0.009,-0.019,-1.517,-0.026,0.272,63.91,110.1,40.525467,-3.420006,633.1,3,5,290.0,2.812
64.88,1,-0.052,-0.006,0.011,-0.091,0.007,-0.008,-1.521,-0.025,0.267,63.91,110.1,40.525467,-3.420006,633.1,3,5,290.0,2.812
64.99,1,0.052,-0.008,0.001,-0.017,-0.007,0.0,-1.522,-0.026,0.262,63.91,110.1,40.525467,-3.420006,633.1,3,5,290.0,2.812
65.09,1,-0.019,0.034,-0.032,0.005,0.01,-0.012,-1.518,-0.031,0.256,63.91,110.1,40.525467,-3.420006,633.1,3,5,290.0,2.812
65.18,1,-0.005,0.013,-0.003,-0.018,0.021,-0.017,-1.516,-0.036,0.25,64.9,109.2,40.525566,-3.42034,633.0,3,5,292.1,3.867
65.28,1,-0.007,0.003,-0.009,-0.001,0.008,-0.011,-1.514,-0.037,0.245,64.9,109.2,40.525566,-3.42034,633.0,3,5,292.1,3.867
65.38,1,-0.038,0.047,-0.009,-0.02,0.028,-0.007,-1.514,-0.04,0.239,64.9,109.2,40.525566,-3.42034,633.0,3,5,292.1,3.867
65.48,1,-0.011,-0.005,0.001,-0.013,0.015,-0.002,-1.514,-0.037,0.234,64.9,109.2,40.525566,-3.42034,633.0,3,5,292.1,3.867
65.59,1,-0.018,-0.008,-0.001,-0.025,0.003,-0.005,-1.512,-0.037,0.229,64.9,109.2,40.525566,-3.42034,633.0,3,5,292.1,3.867
65.68,1,0.051,-0.033,-0.004,0.008,-0.013,-0.003,-1.511,-0.037,0.224,64.9,109.2,40.525566,-3.42034,633.0,3,5,292.1,3.867
65.78,1,0.008,-0.001,0.022,0.02,-0.017,0.004,-1.512,-0.036,0.219,64.9,109.2,40.525566,-3.42034,633.0,3,5,292.1,3.867
65.88,1,-0.066,0.044,0.027,-0.021,0.016,0.02,-1.516,-0.038,0.214,64.9,109.2,40.525566,-3.42034,633.0,3,5,292.1,3.867
65.98,1,0.029,-0.013,0.038,-0.018,0.01,0.028,-1.523,-0.041,0.209,64.9,109.2,40.525566,-3.42034,633.0,3,5,292.1,3.867
66.09,1,0.047,0.054,-0.013,0.016,0.017,0.023,-1.527,-0.043,0.203,64.9,109.2,40.525566,-3.42034,633.0,3,5,292.1,3.867
66.18,1,0.104,0.037,0.043,0.073,0.037,0.013,-1.529,-0.043,0.197,65.91,108.5,40.525677,-3.420671,632.0,3,5,294.3,4.219
66.29,1,-0.074,-0.001,0.002,0.024,0.025,0.017,-1.531,-0.044,0.191,65.91,108.5,40.525677,-3.420671,632.0,3,5,294.3,4.219
66.38,1,-0.191,-0.004,-0.022,-0.083,0.008,0.001,-1.534,-0.046,0.185,65.91,108.5,40.525677,-3.420671,632.0,3,5,294.3,4.219
66.48,1,-0.13,0.044,-0.006,-0.138,0.019,-0.013,-1.538,-0.048,0.18,65.91,108.5,40.525677,-3.420671,632.0,3,5,294.3,4.219
66.58,1,-0.02,-0.01,0.042,-0.086,0.021,0.012,-1.542,-0.045,0.175,65.91,108.5,40.525677,-3.420671,632.0,3,5,294.3,4.219
66.68,1,0.116,0.024,0.024,0.022,0.006,0.024,-1.543,-0.043,0.171,65.91,108.5,40.525677,-3.420671,632.0,3,5,294.3,4.219
66.79,1,0.111,0.014,-0.018,0.074,0.014,0.01,-1.543,-0.045,0.165,65.91,108.5,40.525677,-3.420671,632.0,3,5,294.3,4.219
66.89,1,-0.021,0.051,-0.044,0.039,0.024,-0.022,-1.542,-0.049,0.159,65.91,108.5,40.525677,-3.420671,632.0,3,5,294.3,4.219
67.08,1,-0.047,0.105,-0.013,-0.032,0.064,-0.024,-1.542,-0.062,0.144,65.91,108.5,40.525677,-3.420671,632.0,3,5,294.3,4.219
67.19,1,-0.06,0.108,0.008,-0.062,0.094,-0.015,-1.544,-0.063,0.138,65.91,108.5,40.525677,-3.420671,632.0,3,5,294.3,4.219
67.29,1,0.005,0.036,-0.013,-0.019,0.072,-0.005,-1.542,-0.064,0.132,66.9,108.3,40.525799,-3.420986,629.7,3,5,297.4,5.273
67.39,1,-0.005,0.014,-0.027,-0.01,0.038,-0.017,-1.543,-0.063,0.126,66.9,108.3,40.525799,-3.420986,629.7,3,5,297.4,5.273
67.5,1,0.034,0.009,-0.003,0.014,0.02,-0.015,-1.542,-0.063,0.12,66.9,108.3,40.525799,-3.420986,629.7,3,5,297.4,5.273
67.59,1,0.048,0.019,0.006,0.03,0.017,-0.005,-1.542,-0.067,0.114,66.9,108.3,40.525799,-3.420986,629.7,3,5,297.4,5.273
67.69,1,-0.013,0.041,-0.017,0.021,0.028,-0.004,-1.541,-0.07,0.109,66.9,108.3,40.525799,-3.420986,629.7,3,5,297.4,5.273
67.79,1,-0.145,0.034,-0.059,-0.064,0.044,-0.034,-1.542,-0.072,0.103,66.9,108.3,40.525799,-3.420986,629.7,3,5,297.4,5.273
67.89,1,-0.041,0.028,-0.01,-0.085,0.029,-0.028,-1.547,-0.079,0.095,66.9,108.3,40.525799,-3.420986,629.7,3,5,297.4,5.273
67.99,1,-0.022,0.052,-0.018,-0.032,0.04,-0.017,-1.547,-0.085,0.088,66.9,108.3,40.525799,-3.420986,629.7,3,5,297.4,5.273
68.1,1,-0.02,0.066,-0.031,-0.02,0.051,-0.025,-1.545,-0.088,0.081,66.9,108.3,40.525799,-3.420986,629.7,3,5,297.4,5.273
68.2,1,-0.109,0.032,-0.052,-0.052,0.048,-0.034,-1.545,-0.089,0.073,66.9,108.3,40.525799,-3.420986,629.7,3,5,297.4,5.273
68.29,1,0.039,0.053,-0.014,-0.048,0.045,-0.033,-1.547,-0.097,0.066,67.91,108.4,40.525921,-3.421298,630.3,3,5,299.9,5.625
68.39,1,0.126,0.053,0.019,0.053,0.048,-0.012,-1.548,-0.097,0.059,67.91,108.4,40.525921,-3.421298,630.3,3,5,299.9,5.625
68.49,1,-0.061,0.029,-0.048,0.022,0.044,-0.011,-1.548,-0.095,0.052,67.91,108.4,40.525921,-3.421298,630.3,3,5,299.9,5.625
68.59,1,-0.091,0.03,-0.057,-0.047,0.032,-0.043,-1.549,-0.097,0.044,67.91,108.4,40.525921,-3.421298,630.3,3,5,299.9,5.625
68.7,1,0.034,0.08,-0.042,-0.02,0.054,-0.044,-1.546,-0.101,0.035,67.91,108.4,40.525921,-3.421298,630.3,3,5,299.9,5.625
68.79,1,-0.067,0.06,-0.08,-0.016,0.059,-0.056,-1.544,-0.104,0.027,67.91,108.4,40.525921,-3.421298,630.3,3,5,299.9,5.625
68.9,1,-0.026,0.025,-0.035,-0.044,0.044,-0.059,-1.545,-0.104,0.02,67.91,108.4,40.525921,-3.421298,630.3,3,5,299.9,5.625
68.99,1,0.039,0.025,-0.033,0.003,0.032,-0.042,-1.547,-0.105,0.012,67.91,108.4,40.525921,-3.421298,630.3,3,5,299.9,5.625
69.09,1,-0.059,-0.004,-0.061,-0.019,0.019,-0.047,-1.546,-0.106,0.006,67.91,108.4,40.525921,-3.421298,630.3,3,5,299.9,5.625
69.19,1,-0.074,0.01,-0.072,-0.051,0.004,-0.063,-1.545,-0.108,-0.001,67.91,108.4,40.525921,-3.421298,630.3,3,5,299.9,5.625
69.3,1,-0.015,0.034,-0.04,-0.041,0.023,-0.051,-1.542,-0.115,-0.008,68.93,107.4,40.52607,-3.421594,630.9,3,5,303.4,5.977
69.39,1,-0.063,0.033,-0.053,-0.04,0.03,-0.049,-1.538,-0.118,-0.014,68.93,107.4,40.52607,-3.421594,630.9,3,5,303.4,5.977
69.49,1,-0.035,0.025,-0.022,-0.053,0.029,-0.041,-1.54,-0.119,-0.021,68.93,107.4,40.52607,-3.421594,630.9,3,5,303.4,5.977
69.59,1,-0.04,0.017,-0.015,-0.035,0.024,-0.025,-1.54,-0.121,-0.027,68.93,107.4,40.52607,-3.421594,630.9,3,5,303.4,5.977
69.7,1,-0.042,-0.024,-0.063,-0.043,-0.0,-0.032,-1.538,-0.12,-0.034,68.93,107.4,40.52607,-3.421594,630.9,3,5,303.4,5.977
69.8,1,0.039,-0.023,-0.028,-0.005,-0.015,-0.043,-1.54,-0.122,-0.041,68.93,107.4,40.52607,-3.421594,630.9,3,5,303.4,5.977
69.9,1,-0.026,0.027,-0.025,-0.005,-0.003,-0.035,-1.538,-0.125,-0.049,68.93,107.4,40.52607,-3.421594,630.9,3,5,303.4,5.977
70.0,1,-0.014,0.052,-0.056,-0.016,0.03,-0.037,-1.535,-0.129,-0.057,68.93,107.4,40.52607,-3.421594,630.9,3,5,303.4,5.977
70.1,1,-0.004,0.036,-0.055,-0.008,0.035,-0.052,-1.534,-0.13,-0.064,68.93,107.4,40.52607,-3.421594,630.9,3,5,303.4,5.977
70.19,1,-0.058,0.042,-0.056,-0.026,0.042,-0.055,-1.535,-0.128,-0.072,68.93,107.4,40.52607,-3.421594,630.9,3,5,303.4,5.977
70.29,1,-0.057,-0.029,-0.063,-0.054,0.016,-0.058,-1.537,-0.128,-0.079,69.9,106.7,40.526222,-3.421878,630.8,3,5,307.3,7.383
70.39,1,-0.061,-0.03,-0.06,-0.049,-0.013,-0.058,-1.539,-0.126,-0.085,69.9,106.7,40.526222,-3.421878,630.8,3,5,307.3,7.383
70.49,1,-0.06,-0.088,-0.036,-0.061,-0.046,-0.051,-1.538,-0.126,-0.091,69.9,106.7,40.526222,-3.421878,630.8,3,5,307.3,7.383
70.61,1,0.024,-0.068,-0.022,-0.023,-0.067,-0.04,-1.539,-0.13,-0.097,69.9,106.7,40.526222,-3.421878,630.8,3,5,307.3,7.383
70.69,1,-0.033,-0.037,-0.051,-0.016,-0.058,-0.034,-1.539,-0.133,-0.103,69.9,106.7,40.526222,-3.421878,630.8,3,5,307.3,7.383
70.8,1,-0.056,-0.014,-0.041,-0.035,-0.032,-0.045,-1.54,-0.135,-0.109,69.9,106.7,40.526222,-3.421878,630.8,3,5,307.3,7.383
70.9,1,-0.035,-0.026,-0.05,-0.036,-0.024,-0.043,-1.535,-0.133,-0.114,69.9,106.7,40.526222,-3.421878,630.8,3,5,307.3,7.383
71.0,1,-0.058,-0.041,-0.051,-0.046,-0.033,-0.05,-1.532,-0.127,-0.119,69.9,106.7,40.526222,-3.421878,630.8,3,5,307.3,7.383
71.1,1,-0.049,-0.065,-0.03,-0.058,-0.047,-0.042,-1.532,-0.122,-0.124,69.9,106.7,40.526222,-3.421878,630.8,3,5,307.3,7.383
71.2,1,-0.033,-0.042,-0.001,-0.041,-0.054,-0.023,-1.531,-0.116,-0.129,69.9,106.7,40.526222,-3.421878,630.8,3,5,307.3,7.383
71.31,1,-0.028,-0.063,-0.022,-0.034,-0.054,-0.015,-1.529,-0.109,-0.133,70.91,105.3,40.526386,-3.42215,629.4,3,5,310.4,7.031
71.4,1,-0.044,-0.034,-0.005,-0.04,-0.053,-0.017,-1.527,-0.103,-0.139,70.91,105.3,40.526386,-3.42215,629.4,3,5,310.4,7.031
71.5,1,-0.024,-0.016,-0.015,-0.03,-0.031,-0.016,-1.523,-0.099,-0.143,70.91,105.3,40.526386,-3.42215,629.4,3,5,310.4,7.031
71.6,1,-0.09,-0.02,0.001,-0.057,-0.02,-0.009,-1.524,-0.097,-0.148,70.91,105.3,40.526386,-3.42215,629.4,3,5,310.4,7.031
71.7,1,-0.022,-0.041,0.004,-0.056,-0.028,0.001,-1.527,-0.088,-0.152,70.91,105.3,40.526386,-3.42215,629.4,3,5,310.4,7.031
71.8,1,-0.038,-0.052,0.011,-0.033,-0.039,0.006,-1.531,-0.084,-0.157,70.91,105.3,40.526386,-3.42215,629.4,3,5,310.4,7.031
71.9,1,-0.023,-0.059,0.019,-0.039,-0.053,0.012,-1.533,-0.081,-0.162,70.91,105.3,40.526386,-3.42215,629.4,3,5,310.4,7.031
72.0,1,0.036,-0.067,0.028,0.001,-0.06,0.021,-1.536,-0.082,-0.166,70.91,105.3,40.526386,-3.42215,629.4,3,5,310.4,7.031
72.1,1,0.006,-0.025,0.019,0.012,-0.04,0.021,-1.541,-0.083,-0.171,70.91,105.3,40.526386,-3.42215,629.4,3,5,310.4,7.031
72.2,1,-0.005,-0.049,-0.0,0.009,-0.048,0.01,-1.543,-0.081,-0.176,70.91,105.3,40.526386,-3.42215,629.4,3,5,310.4,7.031
72.3,1,-0.01,0.016,-0.02,-0.007,-0.023,-0.004,-1.543,-0.082,-0.181,71.92,104.2,40.526566,-3.422401,629.0,3,5,313.6,6.328
72.41,1,-0.051,0.015,-0.042,-0.025,0.002,-0.017,-1.543,-0.083,-0.187,71.92,104.2,40.526566,-3.422401,629.0,3,5,313.6,6.328
72.51,1,-0.038,-0.016,-0.045,-0.033,0.003,-0.038,-1.543,-0.088,-0.193,71.92,104.2,40.526566,-3.422401,629.0,3,5,313.6,6.328
72.6,1,-0.025,-0.04,-0.026,-0.034,-0.021,-0.035,-1.544,-0.093,-0.198,71.92,104.2,40.526566,-3.422401,629.0,3,5,313.6,6.328
72.7,1,0.007,-0.02,-0.028,-0.018,-0.024,-0.033,-1.544,-0.096,-0.204,71.92,104.2,40.526566,-3.422401,629.0,3,5,313.6,6.328
72.8,1,-0.025,-0.009,-0.054,-0.011,-0.023,-0.034,-1.544,-0.097,-0.209,71.92,104.2,40.526566,-3.422401,629.0,3,5,313.6,6.328
72.9,1,0.009,-0.005,-0.034,-0.005,-0.013,-0.038,-1.541,-0.096,-0.214,71.92,104.2,40.526566,-3.422401,629.0,3,5,313.6,6.328
73.0,1,-0.016,-0.036,-0.058,-0.01,-0.018,-0.048,-1.538,-0.093,-0.22,71.92,104.2,40.526566,-3.422401,629.0,3,5,313.6,6.328
73.1,1,-0.071,-0.028,-0.042,-0.035,-0.026,-0.048,-1.533,-0.091,-0.224,71.92,104.2,40.526566,-3.422401,629.0,3,5,313.6,6.328
73.2,1,-0.019,-0.031,-0.02,-0.038,-0.026,-0.035,-1.529,-0.089,-0.229,71.92,104.2,40.526566,-3.422401,629.0,3,5,313.6,6.328
73.3,1,0.0,0.006,-0.04,-0.017,-0.015,-0.036,-1.527,-0.09,-0.234,72.91,104.3,40.526752,-3.42264,629.2,3,5,316.1,5.625
73.4,1,-0.005,-0.002,-0.031,-0.012,-0.004,-0.035,-1.526,-0.092,-0.239,72.91,104.3,40.526752,-3.42264,629.2,3,5,316.1,5.625
73.51,1,0.017,-0.011,-0.019,0.012,-0.005,-0.024,-1.524,-0.09,-0.244,72.91,104.3,40.526752,-3.42264,629.2,3,5,316.1,5.625
73.61,1,-0.024,-0.044,-0.037,-0.008,-0.021,-0.033,-1.523,-0.088,-0.249,72.91,104.3,40.526752,-3.42264,629.2,3,5,316.1,5.625
73.71,1,-0.0,-0.055,-0.022,-0.011,-0.041,-0.025,-1.523,-0.086,-0.254,72.91,104.3,40.526752,-3.42264,629.2,3,5,316.1,5.625
73.8,1,-0.008,0.026,-0.055,-0.004,-0.017,-0.037,-1.524,-0.087,-0.259,72.91,104.3,40.526752,-3.42264,629.2,3,5,316.1,5.625
73.9,1,-0.048,-0.04,-0.028,-0.019,-0.016,-0.036,-1.525,-0.088,-0.264,72.91,104.3,40.526752,-3.42264,629.2,3,5,316.1,5.625
74.0,1,-0.043,0.001,-0.027,-0.041,-0.017,-0.033,-1.526,-0.089,-0.269,72.91,104.3,40.526752,-3.42264,629.2,3,5,316.1,5.625
74.12,1,-0.003,-0.001,-0.01,-0.026,-0.007,-0.02,-1.527,-0.09,-0.275,72.91,104.3,40.526752,-3.42264,629.2,3,5,316.1,5.625
74.22,1,-0.073,0.008,-0.023,-0.033,-0.001,-0.018,-1.529,-0.09,-0.28,72.91,104.3,40.526752,-3.42264,629.2,3,5,316.1,5.625
74.31,1,-0.048,-0.01,-0.029,-0.057,0.003,-0.027,-1.532,-0.089,-0.286,73.97,102.7,40.526936,-3.422858,629.6,3,5,318.5,4.922
74.41,1,0.014,-0.042,-0.027,-0.017,-0.023,-0.025,-1.531,-0.088,-0.291,73.97,102.7,40.526936,-3.422858,629.6,3,5,318.5,4.922
74.5,1,-0.042,-0.006,-0.018,-0.025,-0.021,-0.025,-1.531,-0.086,-0.297,73.97,102.7,40.526936,-3.422858,629.6,3,5,318.5,4.922
74.61,1,-0.022,-0.018,-0.012,-0.028,-0.015,-0.018,-1.533,-0.089,-0.302,73.97,102.7,40.526936,-3.422858,629.6,3,5,318.5,4.922
74.71,1,-0.006,-0.026,-0.003,-0.016,-0.021,-0.004,-1.536,-0.086,-0.308,73.97,102.7,40.526936,-3.422858,629.6,3,5,318.5,4.922
74.81,1,-0.02,-0.002,-0.015,-0.016,-0.016,-0.017,-1.537,-0.087,-0.313,73.97,102.7,40.526936,-3.422858,629.6,3,5,318.5,4.922
74.92,1,-0.04,-0.034,-0.007,-0.031,-0.018,-0.008,-1.538,-0.089,-0.318,73.97,102.7,40.526936,-3.422858,629.6,3,5,318.5,4.922
75.01,1,0.022,-0.018,0.021,-0.006,-0.02,0.001,-1.54,-0.086,-0.323,73.97,102.7,40.526936,-3.422858,629.6,3,5,318.5,4.922
75.11,1,0.014,-0.019,-0.009,0.007,-0.02,0.003,-1.542,-0.087,-0.327,73.97,102.7,40.526936,-3.422858,629.6,3,5,318.5,4.922
75.21,1,-0.028,-0.018,-0.011,-0.008,-0.022,-0.006,-1.542,-0.083,-0.332,73.97,102.7,40.526936,-3.422858,629.6,3,5,318.5,4.922
75.31,1,-0.031,-0.015,-0.003,-0.019,-0.015,-0.004,-1.542,-0.08,-0.336,74.94,102.1,40.52713,-3.423075,628.3,3,5,321.7,5.625
75.41,1,0.016,-0.018,0.012,-0.0,-0.016,0.003,-1.542,-0.078,-0.34,74.94,102.1,40.52713,-3.423075,628.3,3,5,321.7,5.625
75.52,1,-0.036,0.016,-0.014,-0.016,-0.009,-0.004,-1.543,-0.077,-0.345,74.94,102.1,40.52713,-3.423075,628.3,3,5,321.7,5.625
75.62,1,-0.013,0.004,-0.013,-0.025,0.01,-0.012,-1.542,-0.076,-0.35,74.94,102.1,40.52713,-3.423075,628.3,3,5,321.7,5.625
75.71,1,-0.065,0.002,-0.005,-0.03,0.003,-0.003,-1.546,-0.072,-0.355,74.94,102.1,40.52713,-3.423075,628.3,3,5,321.7,5.625
75.81,1,-0.025,-0.016,0.014,-0.042,-0.005,0.0,-1.549,-0.07,-0.36,74.94,102.1,40.52713,-3.423075,628.3,3,5,321.7,5.625
75.91,1,-0.038,0.002,-0.018,-0.032,-0.007,-0.006,-1.551,-0.067,-0.364,74.94,102.1,40.52713,-3.423075,628.3,3,5,321.7,5.625
76.01,1,-0.036,-0.015,0.018,-0.039,-0.007,0.001,-1.55,-0.066,-0.368,74.94,102.1,40.52713,-3.423075,628.3,3,5,321.7,5.625
76.11,1,-0.025,-0.004,0.005,-0.029,-0.01,0.002,-1.55,-0.065,-0.373,74.94,102.1,40.52713,-3.423075,628.3,3,5,321.7,5.625
76.22,1,0.028,0.028,0.008,-0.009,0.011,0.008,-1.547,-0.065,-0.378,74.94,102.1,40.52713,-3.423075,628.3,3,5,321.7,5.625
76.31,1,-0.007,-0.023,-0.022,0.003,-0.0,0.002,-1.545,-0.062,-0.382,75.93,102.0,40.527328,-3.423277,627.6,3,5,324.1,5.625
76.41,1,-0.086,0.006,-0.034,-0.038,0.0,-0.025,-1.546,-0.062,-0.387,75.93,102.0,40.527328,-3.423277,627.6,3,5,324.1,5.625
76.51,1,-0.086,-0.015,-0.015,-0.073,-0.009,-0.021,-1.547,-0.062,-0.391,75.93,102.0,40.527328,-3.423277,627.6,3,5,324.1,5.625
76.62,1,-0.011,-0.023,0.005,-0.046,-0.017,-0.004,-1.549,-0.062,-0.395,75.93,102.0,40.527328,-3.423277,627.6,3,5,324.1,5.625
76.71,1,-0.008,-0.013,0.008,-0.024,-0.015,0.0,-1.55,-0.066,-0.4,75.93,102.0,40.527328,-3.423277,627.6,3,5,324.1,5.625
76.82,1,0.037,0.007,-0.006,0.008,-0.007,0.0,-1.548,-0.069,-0.404,75.93,102.0,40.527328,-3.423277,627.6,3,5,324.1,5.625
76.91,1,0.011,0.007,-0.022,0.006,-0.004,-0.012,-1.546,-0.071,-0.407,75.93,102.0,40.527328,-3.423277,627.6,3,5,324.1,5.625
77.01,1,0.018,-0.005,-0.023,0.021,0.011,-0.02,-1.546,-0.075,-0.411,75.93,102.0,40.527328,-3.423277,627.6,3,5,324.1,5.625
77.12,1,-0.033,0.015,-0.026,-0.003,0.005,-0.022,-1.546,-0.072,-0.415,75.93,102.0,40.527328,-3.423277,627.6,3,5,324.1,5.625
77.21,1,-0.045,-0.003,-0.028,-0.033,0.003,-0.025,-1.548,-0.07,-0.418,75.93,102.0,40.527328,-3.423277,627.6,3,5,324.1,5.625
77.32,1,-0.036,-0.01,-0.016,-0.036,-0.003,-0.024,-1.548,-0.069,-0.422,76.91,102.3,40.527546,-3.423464,626.2,3,5,326.6,4.922
77.42,1,-0.006,-0.028,-0.01,-0.016,-0.016,-0.015,-1.546,-0.066,-0.425,76.91,102.3,40.527546,-3.423464,626.2,3,5,326.6,4.922
77.52,1,-0.015,-0.014,-0.003,-0.017,-0.019,-0.009,-1.546,-0.066,-0.428,76.91,102.3,40.527546,-3.423464,626.2,3,5,326.6,4.922
77.61,1,-0.02,-0.003,-0.004,-0.017,-0.01,-0.001,-1.543,-0.065,-0.431,76.91,102.3,40.527546,-3.423464,626.2,3,5,326.6,4.922
77.71,1,-0.026,-0.024,0.001,-0.021,-0.014,-0.005,-1.543,-0.063,-0.434,76.91,102.3,40.527546,-3.423464,626.2,3,5,326.6,4.922
77.81,1,-0.029,-0.007,-0.014,-0.031,-0.011,-0.008,-1.542,-0.066,-0.437,76.91,102.3,40.527546,-3.423464,626.2,3,5,326.6,4.922
77.91,1,0.019,-0.02,-0.008,-0.009,-0.013,-0.009,-1.542,-0.065,-0.44,76.91,102.3,40.527546,-3.423464,626.2,3,5,326.6,4.922
78.02,1,-0.008,-0.008,0.005,0.006,-0.013,0.001,-1.543,-0.067,-0.444,76.91,102.3,40.527546,-3.423464,626.2,3,5,326.6,4.922
78.12,1,-0.042,-0.003,-0.016,-0.026,-0.01,-0.006,-1.543,-0.068,-0.447,76.91,102.3,40.527546,-3.423464,626.2,3,5,326.6,4.922
78.22,1,-0.012,-0.026,-0.024,-0.019,-0.017,-0.018,-1.546,-0.066,-0.449,76.91,102.3,40.527546,-3.423464,626.2,3,5,326.6,4.922
78.31,1,0.021,-0.007,-0.008,0.002,-0.014,-0.009,-1.542,-0.066,-0.451,77.94,102.0,40.527763,-3.423641,624.8,3,5,329.4,5.273
78.42,1,-0.038,-0.001,-0.031,-0.008,-0.007,-0.026,-1.539,-0.064,-0.453,77.94,102.0,40.527763,-3.423641,624.8,3,5,329.4,5.273
78.52,1,0.009,-0.027,-0.033,-0.013,-0.013,-0.024,-1.533,-0.063,-0.456,77.94,102.0,40.527763,-3.423641,624.8,3,5,329.4,5.273
78.62,1,-0.052,-0.032,-0.04,-0.017,-0.024,-0.032,-1.53,-0.062,-0.458,77.94,102.0,40.527763,-3.423641,624.8,3,5,329.4,5.273
78.72,1,-0.037,-0.038,-0.026,-0.041,-0.033,-0.039,-1.53,-0.063,-0.46,77.94,102.0,40.527763,-3.423641,624.8,3,5,329.4,5.273
78.82,1,0.019,-0.031,-0.009,-0.017,-0.033,-0.018,-1.528,-0.063,-0.462,77.94,102.0,40.527763,-3.423641,624.8,3,5,329.4,5.273
78.92,1,-0.016,-0.022,-0.037,-0.009,-0.024,-0.025,-1.525,-0.065,-0.464,77.94,102.0,40.527763,-3.423641,624.8,3,5,329.4,5.273
79.02,1,0.009,-0.023,-0.023,-0.001,-0.025,-0.025,-1.524,-0.065,-0.466,77.94,102.0,40.527763,-3.423641,624.8,3,5,329.4,5.273
79.12,1,-0.022,-0.024,-0.022,0.001,-0.029,-0.025,-1.525,-0.067,-0.468,77.94,102.0,40.527763,-3.423641,624.8,3,5,329.4,5.273
79.22,1,-0.073,-0.055,-0.027,-0.042,-0.036,-0.029,-1.523,-0.067,-0.469,77.94,102.0,40.527763,-3.423641,624.8,3,5,329.4,5.273
79.32,1,-0.049,-0.074,-0.026,-0.045,-0.052,-0.025,-1.519,-0.066,-0.471,78.91,101.8,40.527985,-3.423808,624.3,3,5,331.2,4.57
79.42,1,0.011,-0.079,-0.004,-0.03,-0.073,-0.017,-1.519,-0.063,-0.472,78.91,101.8,40.527985,-3.423808,624.3,3,5,331.2,4.57
79.52,1,-0.03,-0.062,-0.026,-0.021,-0.072,-0.023,-1.519,-0.065,-0.473,78.91,101.8,40.527985,-3.423808,624.3,3,5,331.2,4.57
79.62,1,-0.018,-0.075,-0.021,-0.029,-0.068,-0.018,-1.518,-0.064,-0.475,78.91,101.8,40.527985,-3.423808,624.3,3,5,331.2,4.57
79.73,1,0.023,-0.08,-0.009,0.007,-0.074,-0.013,-1.517,-0.062,-0.475,78.91,101.8,40.527985,-3.423808,624.3,3,5,331.2,4.57
79.82,1,-0.056,-0.05,-0.011,-0.01,-0.072,-0.01,-1.515,-0.059,-0.475,78.91,101.8,40.527985,-3.423808,624.3,3,5,331.2,4.57
79.93,1,-0.063,-0.065,-0.009,-0.052,-0.056,-0.014,-1.515,-0.057,-0.475,78.91,101.8,40.527985,-3.423808,624.3,3,5,331.2,4.57
80.02,1,0.008,-0.074,0.002,-0.027,-0.067,-0.002,-1.513,-0.052,-0.475,78.91,101.8,40.527985,-3.423808,624.3,3,5,331.2,4.57
80.12,1,0.008,-0.071,0.011,-0.007,-0.07,0.001,-1.515,-0.054,-0.475,78.91,101.8,40.527985,-3.423808,624.3,3,5,331.2,4.57
80.22,1,-0.011,-0.061,0.002,-0.006,-0.07,0.007,-1.518,-0.054,-0.475,78.91,101.8,40.527985,-3.423808,624.3,3,5,331.2,4.57
80.32,1,-0.014,-0.046,0.026,-0.013,-0.058,0.017,-1.517,-0.051,-0.475,79.91,101.8,40.527985,-3.423808,624.3,3,5,331.2,4.57
80.42,1,0.002,-0.068,0.018,-0.0,-0.059,0.012,-1.518,-0.045,-0.475,79.91,101.8,40.527985,-3.423808,624.3,3,5,331.2,4.57
80.52,1,-0.032,-0.058,0.0,-0.013,-0.059,0.013,-1.519,-0.043,-0.475,79.91,101.8,40.527985,-3.423808,624.3,3,5,331.2,4.57
80.63,1,-0.019,-0.057,-0.025,-0.018,-0.056,-0.004,-1.519,-0.044,-0.475,79.91,101.8,40.527985,-3.423808,624.3,3,5,331.2,4.57
80.72,1,-0.041,-0.015,-0.021,-0.032,-0.042,-0.019,-1.52,-0.047,-0.475,79.91,101.8,40.527985,-3.423808,624.3,3,5,331.2,4.57
80.82,1,-0.006,-0.023,-0.034,-0.025,-0.027,-0.029,-1.519,-0.05,-0.474,79.91,101.8,40.527985,-3.423808,624.3,3,5,331.2,4.57
80.92,1,0.011,-0.012,0.012,0.008,-0.02,-0.008,-1.519,-0.048,-0.474,79.91,101.8,40.527985,-3.423808,624.3,3,5,331.2,4.57
81.02,1,-0.038,-0.016,-0.021,-0.024,-0.015,-0.011,-1.516,-0.048,-0.474,79.91,101.8,40.527985,-3.423808,624.3,3,5,331.2,4.57
81.12,1,0.007,-0.018,-0.017,-0.019,-0.02,-0.014,-1.514,-0.047,-0.475,79.91,101.8,40.527985,-3.423808,624.3,3,5,331.2,4.57
81.22,1,0.005,-0.011,-0.009,0.009,-0.013,-0.012,-1.518,-0.046,-0.475,79.91,101.8,40.527985,-3.423808,624.3,3,5,331.2,4.57
81.32,1,-0.018,-0.025,-0.009,-0.009,-0.015,-0.012,-1.518,-0.044,-0.475,80.91,99.5,40.528431,-3.42412,622.4,3,5,333.3,2.109
81.42,1,-0.09,-0.031,-0.032,-0.045,-0.025,-0.022,-1.517,-0.043,-0.474,80.91,99.5,40.528431,-3.42412,622.4,3,5,333.3,2.109
81.52,1,-0.01,-0.043,0.005,-0.039,-0.036,-0.008,-1.517,-0.044,-0.474,80.91,99.5,40.528431,-3.42412,622.4,3,5,333.3,2.109
81.62,1,-0.03,-0.026,-0.021,-0.027,-0.036,-0.011,-1.516,-0.044,-0.473,80.91,99.5,40.528431,-3.42412,622.4,3,5,333.3,2.109
81.73,1,-0.093,-0.055,-0.014,-0.055,-0.039,-0.016,-1.516,-0.042,-0.472,80.91,99.5,40.528431,-3.42412,622.4,3,5,333.3,2.109
81.83,1,0.003,-0.046,0.014,-0.041,-0.045,-0.002,-1.518,-0.041,-0.471,80.91,99.5,40.528431,-3.42412,622.4,3,5,333.3,2.109
81.93,1,-0.048,-0.032,-0.027,-0.032,-0.036,-0.005,-1.518,-0.04,-0.47,80.91,99.5,40.528431,-3.42412,622.4,3,5,333.3,2.109
82.02,1,-0.023,-0.03,-0.018,-0.039,-0.035,-0.019,-1.513,-0.034,-0.469,80.91,99.5,40.528431,-3.42412,622.4,3,5,333.3,2.109
82.12,1,-0.002,-0.044,-0.022,-0.02,-0.039,-0.018,-1.51,-0.033,-0.467,80.91,99.5,40.528431,-3.42412,622.4,3,5,333.3,2.109
82.22,1,0.025,-0.016,0.003,0.002,-0.029,-0.013,-1.508,-0.031,-0.466,80.91,99.5,40.528431,-3.42412,622.4,3,5,333.3,2.109
82.32,1,-0.029,-0.028,-0.038,-0.0,-0.027,-0.012,-1.507,-0.029,-0.464,81.89,98.4,40.528656,-3.424263,622.2,3,5,333.6,0.703
82.43,1,0.041,-0.039,0.028,0.003,-0.029,-0.007,-1.509,-0.029,-0.462,81.89,98.4,40.528656,-3.424263,622.2,3,5,333.6,0.703
82.53,1,0.033,-0.017,0.011,0.033,-0.028,0.005,-1.509,-0.021,-0.46,81.89,98.4,40.528656,-3.424263,622.2,3,5,333.6,0.703
82.63,1,0.043,-0.021,0.005,0.032,-0.022,0.009,-1.511,-0.017,-0.457,81.89,98.4,40.528656,-3.424263,622.2,3,5,333.6,0.703
82.73,1,-0.016,-0.025,-0.015,0.021,-0.021,-0.001,-1.509,-0.017,-0.455,81.89,98.4,40.528656,-3.424263,622.2,3,5,333.6,0.703
82.83,1,-0.047,-0.012,-0.01,-0.019,-0.023,-0.01,-1.509,-0.013,-0.452,81.89,98.4,40.528656,-3.424263,622.2,3,5,333.6,0.703
82.93,1,-0.049,-0.035,-0.021,-0.034,-0.025,-0.013,-1.51,-0.011,-0.449,81.89,98.4,40.528656,-3.424263,622.2,3,5,333.6,0.703
83.04,1,-0.058,-0.034,-0.015,-0.055,-0.028,-0.017,-1.507,-0.009,-0.446,81.89,98.4,40.528656,-3.424263,622.2,3,5,333.6,0.703
83.14,1,-0.012,-0.044,-0.005,-0.037,-0.041,-0.011,-1.509,-0.007,-0.444,81.89,98.4,40.528656,-3.424263,622.2,3,5,333.6,0.703
83.23,1,0.003,-0.018,-0.008,-0.016,-0.033,-0.01,-1.507,-0.004,-0.441,81.89,98.4,40.528656,-3.424263,622.2,3,5,333.6,0.703
83.33,1,0.028,-0.025,-0.023,0.007,-0.025,-0.011,-1.501,-0.003,-0.439,82.91,96.8,40.528873,-3.424406,620.9,3,5,333.6,0.352
83.44,1,-0.021,0.004,-0.0,0.005,-0.013,-0.009,-1.499,-0.002,-0.436,82.91,96.8,40.528873,-3.424406,620.9,3,5,333.6,0.352
83.53,1,-0.016,-0.013,0.007,-0.016,-0.009,-0.009,-1.498,-0.001,-0.433,82.91,96.8,40.528873,-3.424406,620.9,3,5,333.6,0.352
83.63,1,-0.016,-0.02,0.024,-0.01,-0.012,0.017,-1.493,0.003,-0.431,82.91,96.8,40.528873,-3.424406,620.9,3,5,333.6,0.352
83.74,1,-0.007,-0.037,0.028,-0.014,-0.028,0.021,-1.494,0.003,-0.428,82.91,96.8,40.528873,-3.424406,620.9,3,5,333.6,0.352
83.83,1,-0.001,-0.004,0.014,-0.003,-0.016,0.019,-1.496,0.0,-0.425,82.91,96.8,40.528873,-3.424406,620.9,3,5,333.6,0.352
83.93,1,0.013,-0.007,0.025,0.005,-0.006,0.023,-1.495,-0.001,-0.423,82.91,96.8,40.528873,-3.424406,620.9,3,5,333.6,0.352
84.03,1,0.009,-0.03,-0.0,0.006,-0.024,0.008,-1.496,-0.001,-0.42,82.91,96.8,40.528873,-3.424406,620.9,3,5,333.6,0.352
84.13,1,-0.015,0.01,0.015,-0.003,-0.01,0.011,-1.498,0.0,-0.418,82.91,96.8,40.528873,-3.424406,620.9,3,5,333.6,0.352
84.23,1,-0.056,-0.014,0.004,-0.023,-0.002,0.013,-1.499,-0.003,-0.415,82.91,96.8,40.528873,-3.424406,620.9,3,5,333.6,0.352
84.33,1,-0.02,-0.011,0.005,-0.037,-0.01,0.004,-1.498,-0.003,-0.412,83.91,95.5,40.529087,-3.424557,619.9,3,5,332.9,0.703
84.43,1,-0.022,-0.012,-0.014,-0.021,-0.015,-0.003,-1.498,-0.002,-0.409,83.91,95.5,40.529087,-3.424557,619.9,3,5,332.9,0.703
84.54,1,-0.113,-0.094,-0.063,-0.054,-0.035,-0.025,-1.5,-0.003,-0.406,83.91,95.5,40.529087,-3.424557,619.9,3,5,332.9,0.703
84.63,1,-0.097,0.046,0.066,-0.098,-0.025,-0.003,-1.502,-0.008,-0.403,83.91,95.5,40.529087,-3.424557,619.9,3,5,332.9,0.703
84.74,1,0.056,0.044,0.049,-0.031,0.021,0.04,-1.502,-0.01,-0.401,83.91,95.5,40.529087,-3.424557,619.9,3,5,332.9,0.703
84.83,1,0.115,-0.007,0.011,0.05,0.013,0.028,-1.5,-0.01,-0.397,83.91,95.5,40.529087,-3.424557,619.9,3,5,332.9,0.703
84.94,1,0.112,-0.016,-0.014,0.092,0.003,0.009,-1.497,-0.011,-0.394,83.91,95.5,40.529087,-3.424557,619.9,3,5,332.9,0.703
85.03,1,0.027,-0.02,-0.02,0.071,-0.02,-0.012,-1.496,-0.01,-0.392,83.91,95.5,40.529087,-3.424557,619.9,3,5,332.9,0.703
85.13,1,-0.049,0.01,0.018,0.011,-0.005,-0.0,-1.501,-0.01,-0.389,83.91,95.5,40.529087,-3.424557,619.9,3,5,332.9,0.703
85.23,1,-0.1,0.011,-0.018,-0.052,0.01,0.0,-1.504,-0.011,-0.386,83.91,95.5,40.529087,-3.424557,619.9,3,5,332.9,0.703
85.33,1,0.004,0.003,0.026,-0.05,0.006,-0.002,-1.503,-0.007,-0.383,84.92,94.4,40.529297,-3.424694,619.7,3,5,331.9,1.758
85.43,1,0.083,-0.035,0.017,0.033,-0.013,0.02,-1.504,-0.007,-0.38,84.92,94.4,40.529297,-3.424694,619.7,3,5,331.9,1.758
85.54,1,0.013,-0.003,0.009,0.032,-0.013,0.012,-1.504,-0.008,-0.377,84.92,94.4,40.529297,-3.424694,619.7,3,5,331.9,1.758
85.63,1,0.098,-0.007,0.026,0.059,-0.009,0.019,-1.503,-0.012,-0.375,84.92,94.4,40.529297,-3.424694,619.7,3,5,331.9,1.758
85.73,1,0.036,0.006,0.038,0.058,-0.006,0.027,-1.504,-0.015,-0.372,84.92,94.4,40.529297,-3.424694,619.7,3,5,331.9,1.758
85.83,1,-0.058,0.018,-0.037,0.005,0.012,0.005,-1.502,-0.017,-0.37,84.92,94.4,40.529297,-3.424694,619.7,3,5,331.9,1.758
85.93,1,-0.155,-0.004,-0.004,-0.078,0.002,-0.013,-1.501,-0.016,-0.367,84.92,94.4,40.529297,-3.424694,619.7,3,5,331.9,1.758
86.03,1,-0.284,-0.029,-0.033,-0.171,-0.009,-0.013,-1.507,-0.015,-0.363,84.92,94.4,40.529297,-3.424694,619.7,3,5,331.9,1.758
86.14,1,-0.018,-0.043,0.064,-0.162,-0.026,0.005,-1.514,-0.012,-0.36,84.92,94.4,40.529297,-3.424694,619.7,3,5,331.9,1.758
86.24,1,0.131,-0.156,0.056,-0.002,-0.082,0.047,-1.514,-0.009,-0.354,84.92,94.4,40.529297,-3.424694,619.7,3,5,331.9,1.758
86.34,1,0.126,-0.071,0.01,0.086,-0.096,0.032,-1.511,-0.008,-0.348,85.91,93.7,40.529507,-3.424836,620.0,3,5,331.2,1.758
86.43,1,0.118,-0.03,0.042,0.112,-0.056,0.041,-1.507,-0.009,-0.343,85.91,93.7,40.529507,-3.424836,620.0,3,5,331.2,1.758
86.54,1,0.082,-0.01,0.036,0.108,-0.038,0.033,-1.504,-0.01,-0.34,85.91,93.7,40.529507,-3.424836,620.0,3,5,331.2,1.758
86.64,1,-0.048,0.03,-0.025,0.041,-0.011,0.009,-1.496,-0.012,-0.338,85.91,93.7,40.529507,-3.424836,620.0,3,5,331.2,1.758
86.74,1,-0.094,0.135,0.006,-0.039,0.055,-0.001,-1.493,-0.017,-0.339,85.91,93.7,40.529507,-3.424836,620.0,3,5,331.2,1.758
86.84,1,-0.081,0.129,-0.003,-0.07,0.116,0.002,-1.494,-0.017,-0.34,85.91,93.7,40.529507,-3.424836,620.0,3,5,331.2,1.758
87.04,1,0.051,0.027,0.032,-0.002,0.058,0.014,-1.497,-0.026,-0.341,85.91,93.7,40.529507,-3.424836,620.0,3,5,331.2,1.758
87.14,1,-0.023,-0.002,0.008,0.008,0.027,0.02,-1.499,-0.027,-0.34,85.91,93.7,40.529507,-3.424836,620.0,3,5,331.2,1.758
87.24,1,0.025,0.022,0.026,0.01,0.018,0.021,-1.503,-0.027,-0.338,85.91,93.7,40.529507,-3.424836,620.0,3,5,331.2,1.758
87.34,1,-0.076,-0.008,-0.003,-0.017,0.004,0.01,-1.502,-0.024,-0.336,85.91,93.7,40.529507,-3.424836,620.0,3,5,331.2,1.758
87.45,1,-0.123,-0.057,0.014,-0.084,-0.02,0.01,-1.502,-0.016,-0.333,86.91,93.2,40.529709,-3.424986,621.1,3,5,329.4,2.461
87.54,1,-0.054,-0.056,0.044,-0.081,-0.047,0.023,-1.51,-0.011,-0.329,86.91,93.2,40.529709,-3.424986,621.1,3,5,329.4,2.461
87.64,1,-0.024,-0.015,0.053,-0.051,-0.038,0.039,-1.517,-0.004,-0.324,86.91,93.2,40.529709,-3.424986,621.1,3,5,329.4,2.461
87.74,1,0.025,-0.039,0.007,-0.013,-0.031,0.026,-1.52,-0.002,-0.32,86.91,93.2,40.529709,-3.424986,621.1,3,5,329.4,2.461
87.85,1,0.05,-0.044,0.034,0.022,-0.037,0.031,-1.519,-0.001,-0.316,86.91,93.2,40.529709,-3.424986,621.1,3,5,329.4,2.461
87.94,1,0.018,-0.015,-0.005,0.028,-0.034,0.016,-1.518,0.002,-0.312,86.91,93.2,40.529709,-3.424986,621.1,3,5,329.4,2.461
88.05,1,0.034,-0.009,0.012,0.026,-0.013,0.013,-1.516,0.002,-0.308,86.91,93.2,40.529709,-3.424986,621.1,3,5,329.4,2.461
88.15,1,0.001,-0.042,-0.008,0.02,-0.026,-0.001,-1.518,0.004,-0.304,86.91,93.2,40.529709,-3.424986,621.1,3,5,329.4,2.461
88.24,1,-0.031,-0.03,0.021,-0.005,-0.031,0.014,-1.513,0.01,-0.3,86.91,93.2,40.529709,-3.424986,621.1,3,5,329.4,2.461
88.34,1,0.004,0.022,-0.014,-0.008,-0.012,0.001,-1.509,0.013,-0.296,86.91,93.2,40.529709,-3.424986,621.1,3,5,329.4,2.461
88.44,1,-0.008,0.011,-0.02,-0.005,0.004,-0.009,-1.507,0.013,-0.293,87.92,92.6,40.529911,-3.42514,619.5,3,5,329.4,1.758
88.54,1,-0.008,0.029,-0.025,-0.005,0.022,-0.017,-1.507,0.012,-0.29,87.92,92.6,40.529911,-3.42514,619.5,3,5,329.4,1.758
88.64,1,-0.032,-0.002,0.003,-0.022,0.011,-0.016,-1.51,0.007,-0.287,87.92,92.6,40.529911,-3.42514,619.5,3,5,329.4,1.758
88.74,1,-0.059,-0.008,-0.017,-0.041,0.005,0.001,-1.514,0.006,-0.284,87.92,92.6,40.529911,-3.42514,619.5,3,5,329.4,1.758
88.84,1,-0.196,0.056,-0.004,-0.1,0.014,-0.025,-1.515,0.004,-0.281,87.92,92.6,40.529911,-3.42514,619.5,3,5,329.4,1.758
88.94,1,-0.131,-0.034,-0.003,-0.132,0.001,-0.005,-1.519,0.003,-0.279,87.92,92.6,40.529911,-3.42514,619.5,3,5,329.4,1.758
89.04,1,-0.071,0.09,0.03,-0.116,0.036,0.012,-1.523,-0.0,-0.277,87.92,92.6,40.529911,-3.42514,619.5,3,5,329.4,1.758
89.14,1,-0.021,0.069,0.018,-0.068,0.064,0.02,-1.523,-0.001,-0.275,87.92,92.6,40.529911,-3.42514,619.5,3,5,329.4,1.758
89.24,1,0.049,0.013,0.019,-0.005,0.046,0.015,-1.521,0.001,-0.272,87.92,92.6,40.529911,-3.42514,619.5,3,5,329.4,1.758
89.35,1,0.053,0.005,0.027,0.028,0.019,0.024,-1.52,0.001,-0.27,87.92,92.6,40.529911,-3.42514,619.5,3,5,329.4,1.758
89.44,1,0.062,0.031,0.005,0.049,0.018,0.014,-1.515,-0.002,-0.267,88.92,92.1,40.530106,-3.425299,617.2,3,5,327.7,1.758
89.55,1,0.047,-0.004,-0.042,0.062,0.016,-0.01,-1.511,-0.003,-0.265,88.92,92.1,40.530106,-3.425299,617.2,3,5,327.7,1.758
89.64,1,0.018,0.009,-0.052,0.036,0.011,-0.033,-1.506,-0.001,-0.262,88.92,92.1,40.530106,-3.425299,617.2,3,5,327.7,1.758
89.76,1,-0.053,-0.005,-0.029,-0.007,0.001,-0.044,-1.506,0.001,-0.259,88.92,92.1,40.530106,-3.425299,617.2,3,5,327.7,1.758
89.85,1,-0.083,0.006,0.045,-0.049,0.002,0.004,-1.51,0.001,-0.255,88.92,92.1,40.530106,-3.425299,617.2,3,5,327.7,1.758
89.94,1,-0.039,-0.049,0.058,-0.048,-0.018,0.035,-1.513,0.004,-0.251,88.92,92.1,40.530106,-3.425299,617.2,3,5,327.7,1.758
90.04,1,-0.108,-0.076,0.046,-0.072,-0.05,0.046,-1.52,0.011,-0.245,88.92,92.1,40.530106,-3.425299,617.2,3,5,327.7,1.758
90.14,1,-0.014,-0.053,0.062,-0.059,-0.057,0.05,-1.526,0.015,-0.239,88.92,92.1,40.530106,-3.425299,617.2,3,5,327.7,1.758
90.24,1,0.026,-0.041,0.087,-0.02,-0.047,0.07,-1.532,0.021,-0.233,88.92,92.1,40.530106,-3.425299,617.2,3,5,327.7,1.758
90.35,1,0.059,-0.021,0.068,0.029,-0.036,0.069,-1.537,0.029,-0.228,88.92,92.1,40.530106,-3.425299,617.2,3,5,327.7,1.758
90.45,1,0.034,-0.022,0.051,0.035,-0.026,0.062,-1.535,0.036,-0.222,89.9,91.4,40.530304,-3.425455,617.3,3,5,327.0,2.461
90.56,1,-0.006,-0.033,0.055,0.02,-0.029,0.056,-1.534,0.034,-0.216,89.9,91.4,40.530304,-3.425455,617.3,3,5,327.0,2.461
90.65,1,0.033,-0.009,0.082,0.017,-0.022,0.068,-1.537,0.031,-0.211,89.9,91.4,40.530304,-3.425455,617.3,3,5,327.0,2.461
90.75,1,0.031,-0.001,0.064,0.026,-0.01,0.07,-1.542,0.033,-0.206,89.9,91.4,40.530304,-3.425455,617.3,3,5,327.0,2.461
90.85,1,-0.002,0.016,0.049,0.015,0.007,0.06,-1.548,0.031,-0.2,89.9,91.4,40.530304,-3.425455,617.3,3,5,327.0,2.461
90.95,1,-0.082,0.004,0.021,-0.031,0.006,0.04,-1.552,0.029,-0.195,89.9,91.4,40.530304,-3.425455,617.3,3,5,327.0,2.461
91.05,1,-0.097,-0.003,0.057,-0.066,0.002,0.043,-1.556,0.029,-0.19,89.9,91.4,40.530304,-3.425455,617.3,3,5,327.0,2.461
91.16,1,-0.012,0.002,0.101,-0.053,-0.002,0.069,-1.565,0.029,-0.185,89.9,91.4,40.530304,-3.425455,617.3,3,5,327.0,2.461
91.26,1,0.03,-0.009,0.065,-0.007,-0.002,0.077,-1.572,0.032,-0.18,89.9,91.4,40.530304,-3.425455,617.3,3,5,327.0,2.461
91.35,1,0.046,-0.011,0.077,0.022,-0.012,0.07,-1.577,0.035,-0.176,89.9,91.4,40.530304,-3.425455,617.3,3,5,327.0,2.461
91.45,1,0.04,0.011,0.078,0.037,0.001,0.08,-1.577,0.032,-0.171,90.91,92.1,40.530479,-3.425627,618.0,3,5,324.1,3.516
91.55,1,-0.03,-0.014,0.019,0.019,0.0,0.054,-1.575,0.033,-0.166,90.91,92.1,40.530479,-3.425627,618.0,3,5,324.1,3.516
91.66,1,-0.066,-0.026,0.013,-0.029,-0.012,0.025,-1.575,0.031,-0.162,90.91,92.1,40.530479,-3.425627,618.0,3,5,324.1,3.516
91.75,1,-0.081,-0.048,0.027,-0.067,-0.039,0.027,-1.575,0.029,-0.157,90.91,92.1,40.530479,-3.425627,618.0,3,5,324.1,3.516
91.85,1,-0.051,-0.023,0.033,-0.063,-0.042,0.031,-1.579,0.028,-0.153,90.91,92.1,40.530479,-3.425627,618.0,3,5,324.1,3.516
91.95,1,-0.012,0.023,0.066,-0.047,-0.002,0.037,-1.581,0.025,-0.149,90.91,92.1,40.530479,-3.425627,618.0,3,5,324.1,3.516
92.05,1,0.032,0.104,0.022,-0.003,0.053,0.046,-1.582,0.024,-0.146,90.91,92.1,40.530479,-3.425627,618.0,3,5,324.1,3.516
92.15,1,-0.012,0.088,0.043,0.004,0.073,0.035,-1.582,0.024,-0.143,90.91,92.1,40.530479,-3.425627,618.0,3,5,324.1,3.516
92.26,1,0.07,0.029,0.071,0.029,0.062,0.05,-1.581,0.024,-0.139,90.91,92.1,40.530479,-3.425627,618.0,3,5,324.1,3.516
92.36,1,0.04,0.069,0.023,0.046,0.055,0.047,-1.58,0.024,-0.137,90.91,92.1,40.530479,-3.425627,618.0,3,5,324.1,3.516
92.46,1,-0.045,0.069,0.027,0.007,0.061,0.036,-1.582,0.021,-0.135,91.92,94.9,40.530663,-3.425807,617.6,3,5,322.0,4.922
92.55,1,-0.074,0.05,0.044,-0.043,0.061,0.031,-1.59,0.021,-0.132,91.92,94.9,40.530663,-3.425807,617.6,3,5,322.0,4.922
92.65,1,-0.085,0.045,0.007,-0.064,0.048,0.03,-1.591,0.02,-0.129,91.92,94.9,40.530663,-3.425807,617.6,3,5,322.0,4.922
92.75,1,-0.021,0.003,0.04,-0.053,0.029,0.025,-1.592,0.02,-0.126,91.92,94.9,40.530663,-3.425807,617.6,3,5,322.0,4.922
92.86,1,-0.033,0.041,0.024,-0.039,0.032,0.026,-1.593,0.021,-0.123,91.92,94.9,40.530663,-3.425807,617.6,3,5,322.0,4.922
92.96,1,0.051,0.009,0.052,-0.002,0.025,0.042,-1.594,0.02,-0.12,91.92,94.9,40.530663,-3.425807,617.6,3,5,322.0,4.922
93.06,1,-0.005,0.005,0.031,0.017,0.016,0.034,-1.596,0.019,-0.116,91.92,94.9,40.530663,-3.425807,617.6,3,5,322.0,4.922
93.15,1,-0.033,-0.008,0.018,-0.015,-0.0,0.031,-1.598,0.017,-0.113,91.92,94.9,40.530663,-3.425807,617.6,3,5,322.0,4.922
93.25,1,-0.038,0.015,0.036,-0.023,0.005,0.029,-1.603,0.017,-0.109,91.92,94.9,40.530663,-3.425807,617.6,3,5,322.0,4.922
93.35,1,-0.052,-0.001,0.015,-0.042,0.003,0.025,-1.606,0.017,-0.105,91.92,94.9,40.530663,-3.425807,617.6,3,5,322.0,4.922
93.45,1,-0.048,-0.023,0.03,-0.05,-0.001,0.024,-1.606,0.017,-0.101,92.92,98.0,40.530853,-3.426009,616.9,3,5,320.6,3.516
93.55,1,-0.026,0.023,0.01,-0.04,-0.009,0.023,-1.606,0.018,-0.097,92.92,98.0,40.530853,-3.426009,616.9,3,5,320.6,3.516
93.66,1,-0.01,0.018,-0.004,-0.023,0.018,0.01,-1.607,0.02,-0.094,92.92,98.0,40.530853,-3.426009,616.9,3,5,320.6,3.516
93.75,1,-0.002,0.068,-0.006,-0.0,0.04,-0.005,-1.608,0.021,-0.09,92.92,98.0,40.530853,-3.426009,616.9,3,5,320.6,3.516
93.85,1,-0.031,0.033,0.022,-0.018,0.041,0.013,-1.609,0.02,-0.087,92.92,98.0,40.530853,-3.426009,616.9,3,5,320.6,3.516
93.95,1,-0.05,0.048,-0.021,-0.036,0.045,0.002,-1.609,0.019,-0.084,92.92,98.0,40.530853,-3.426009,616.9,3,5,320.6,3.516
94.06,1,-0.018,0.015,-0.008,-0.034,0.031,-0.011,-1.61,0.019,-0.081,92.92,98.0,40.530853,-3.426009,616.9,3,5,320.6,3.516
94.16,1,-0.062,-0.003,-0.042,-0.035,0.019,-0.021,-1.61,0.02,-0.077,92.92,98.0,40.530853,-3.426009,616.9,3,5,320.6,3.516
94.26,1,-0.012,-0.026,-0.0,-0.042,-0.009,-0.023,-1.608,0.015,-0.075,92.92,98.0,40.530853,-3.426009,616.9,3,5,320.6,3.516
94.36,1,0.03,-0.032,0.002,-0.001,-0.021,-0.006,-1.608,0.01,-0.072,92.92,98.0,40.530853,-3.426009,616.9,3,5,320.6,3.516
94.46,1,-0.017,-0.03,-0.013,0.002,-0.028,-0.001,-1.603,0.009,-0.068,93.94,100.6,40.531048,-3.426213,617.0,3,5,318.9,3.164
94.56,1,-0.045,-0.023,-0.043,-0.023,-0.028,-0.02,-1.602,0.009,-0.065,93.94,100.6,40.531048,-3.426213,617.0,3,5,318.9,3.164
94.66,1,-0.061,-0.005,-0.068,-0.048,-0.013,-0.055,-1.593,0.007,-0.062,93.94,100.6,40.531048,-3.426213,617.0,3,5,318.9,3.164
94.76,1,-0.089,-0.033,-0.038,-0.061,-0.019,-0.048,-1.581,0.012,-0.058,93.94,100.6,40.531048,-3.426213,617.0,3,5,318.9,3.164
94.86,1,-0.102,-0.033,-0.04,-0.091,-0.032,-0.039,-1.579,0.009,-0.055,93.94,100.6,40.531048,-3.426213,617.0,3,5,318.9,3.164
94.96,1,-0.04,-0.008,-0.021,-0.073,-0.022,-0.03,-1.581,0.01,-0.052,93.94,100.6,40.531048,-3.426213,617.0,3,5,318.9,3.164
95.06,1,-0.007,-0.015,-0.028,-0.037,-0.017,-0.032,-1.582,0.011,-0.049,93.94,100.6,40.531048,-3.426213,617.0,3,5,318.9,3.164
95.16,1,-0.011,0.002,-0.022,-0.019,-0.008,-0.024,-1.582,0.011,-0.046,93.94,100.6,40.531048,-3.426213,617.0,3,5,318.9,3.164
95.26,1,-0.014,0.047,-0.05,-0.014,0.012,-0.035,-1.573,0.007,-0.044,93.94,100.6,40.531048,-3.426213,617.0,3,5,318.9,3.164
95.36,1,-0.005,0.054,-0.042,-0.011,0.041,-0.042,-1.57,0.007,-0.042,93.94,100.6,40.531048,-3.426213,617.0,3,5,318.9,3.164
95.46,1,0.007,0.028,-0.021,-0.002,0.041,-0.033,-1.57,0.008,-0.04,94.99,102.2,40.531235,-3.426439,616.5,3,5,317.1,3.516
95.57,1,-0.03,0.016,-0.045,-0.011,0.024,-0.032,-1.573,0.013,-0.037,94.99,102.2,40.531235,-3.426439,616.5,3,5,317.1,3.516
95.66,1,-0.007,0.021,-0.057,-0.015,0.023,-0.049,-1.569,0.008,-0.034,94.99,102.2,40.531235,-3.426439,616.5,3,5,317.1,3.516
95.76,1,-0.018,-0.003,-0.025,-0.008,0.011,-0.042,-1.568,0.005,-0.031,94.99,102.2,40.531235,-3.426439,616.5,3,5,317.1,3.516
95.86,1,-0.038,-0.036,-0.055,-0.024,-0.011,-0.043,-1.568,0.005,-0.028,94.99,102.2,40.531235,-3.426439,616.5,3,5,317.1,3.516
95.96,1,-0.127,-0.037,-0.072,-0.065,-0.028,-0.056,-1.567,0.005,-0.025,94.99,102.2,40.531235,-3.426439,616.5,3,5,317.1,3.516
96.06,1,-0.23,0.019,-0.063,-0.149,-0.007,-0.063,-1.572,0.006,-0.021,94.99,102.2,40.531235,-3.426439,616.5,3,5,317.1,3.516
96.16,1,-0.078,-0.024,0.033,-0.146,-0.006,-0.022,-1.581,0.01,-0.018,94.99,102.2,40.531235,-3.426439,616.5,3,5,317.1,3.516
96.26,1,0.077,-0.056,-0.032,-0.041,-0.035,-0.011,-1.579,0.013,-0.014,94.99,102.2,40.531235,-3.426439,616.5,3,5,317.1,3.516
96.36,1,0.095,-0.04,-0.019,0.049,-0.046,-0.02,-1.571,0.012,-0.011,94.99,102.2,40.531235,-3.426439,616.5,3,5,317.1,3.516
96.46,1,0.004,0.01,-0.066,0.041,-0.017,-0.04,-1.565,0.01,-0.009,95.95,101.8,40.531418,-3.426665,616.4,3,5,315.7,3.164
96.56,1,-0.016,0.022,-0.034,0.01,0.002,-0.043,-1.561,0.009,-0.006,95.95,101.8,40.531418,-3.426665,616.4,3,5,315.7,3.164
96.66,1,-0.075,0.006,-0.043,-0.026,0.011,-0.045,-1.554,0.006,-0.004,95.95,101.8,40.531418,-3.426665,616.4,3,5,315.7,3.164
96.77,1,-0.084,0.013,-0.028,-0.069,0.008,-0.034,-1.548,0.004,-0.002,95.95,101.8,40.531418,-3.426665,616.4,3,5,315.7,3.164
96.86,1,-0.083,-0.012,-0.004,-0.082,0.004,-0.025,-1.549,0.005,-0.0,95.95,101.8,40.531418,-3.426665,616.4,3,5,315.7,3.164
96.96,1,-0.038,0.015,-0.022,-0.06,0.005,-0.012,-1.552,0.004,0.002,95.95,101.8,40.531418,-3.426665,616.4,3,5,315.7,3.164
97.06,1,-0.042,0.015,0.019,-0.046,0.015,-0.006,-1.553,0.005,0.003,95.95,101.8,40.531418,-3.426665,616.4,3,5,315.7,3.164
97.16,1,-0.032,0.023,-0.009,-0.039,0.013,-0.003,-1.554,0.006,0.005,95.95,101.8,40.531418,-3.426665,616.4,3,5,315.7,3.164
97.27,1,-0.046,-0.017,0.003,-0.04,0.005,-0.004,-1.555,0.007,0.008,95.95,101.8,40.531418,-3.426665,616.4,3,5,315.7,3.164
97.36,1,-0.073,-0.025,0.025,-0.054,-0.015,0.012,-1.56,0.011,0.012,95.95,101.8,40.531418,-3.426665,616.4,3,5,315.7,3.164
97.46,1,-0.101,-0.027,0.021,-0.078,-0.019,0.022,-1.561,0.016,0.015,96.99,101.2,40.531597,-3.426912,615.1,3,5,313.9,3.164
97.56,1,-0.016,-0.054,0.027,-0.064,-0.038,0.022,-1.564,0.015,0.018,96.99,101.2,40.531597,-3.426912,615.1,3,5,313.9,3.164
97.66,1,-0.011,-0.014,0.009,-0.019,-0.034,0.021,-1.564,0.014,0.021,96.99,101.2,40.531597,-3.426912,615.1,3,5,313.9,3.164
97.77,1,-0.084,-0.011,0.012,-0.05,-0.021,0.013,-1.565,0.014,0.024,96.99,101.2,40.531597,-3.426912,615.1,3,5,313.9,3.164
97.86,1,-0.007,-0.026,0.053,-0.047,-0.013,0.021,-1.563,0.015,0.027,96.99,101.2,40.531597,-3.426912,615.1,3,5,313.9,3.164
97.98,1,-0.036,-0.021,0.004,-0.028,-0.025,0.034,-1.564,0.02,0.03,96.99,101.2,40.531597,-3.426912,615.1,3,5,313.9,3.164
98.06,1,-0.084,-0.001,-0.003,-0.053,-0.01,0.005,-1.565,0.02,0.033,96.99,101.2,40.531597,-3.426912,615.1,3,5,313.9,3.164
98.16,1,-0.015,-0.037,0.042,-0.044,-0.019,0.022,-1.566,0.02,0.036,96.99,101.2,40.531597,-3.426912,615.1,3,5,313.9,3.164
98.27,1,-0.063,0.006,0.001,-0.043,-0.017,0.011,-1.568,0.02,0.039,96.99,101.2,40.531597,-3.426912,615.1,3,5,313.9,3.164
98.37,1,-0.055,0.018,-0.015,-0.067,0.002,-0.0,-1.568,0.021,0.042,96.99,101.2,40.531597,-3.426912,615.1,3,5,313.9,3.164
98.47,1,0.016,-0.001,-0.036,-0.021,0.002,-0.016,-1.565,0.019,0.045,97.92,100.2,40.531773,-3.427157,615.1,3,5,312.2,3.516
98.57,1,0.003,0.012,-0.038,-0.004,0.009,-0.031,-1.557,0.017,0.048,97.92,100.2,40.531773,-3.427157,615.1,3,5,312.2,3.516
98.67,1,-0.0,0.037,-0.036,-0.0,0.019,-0.033,-1.55,0.018,0.05,97.92,100.2,40.531773,-3.427157,615.1,3,5,312.2,3.516
98.78,1,-0.049,0.022,-0.053,-0.018,0.024,-0.046,-1.55,0.012,0.052,97.92,100.2,40.531773,-3.427157,615.1,3,5,312.2,3.516
98.87,1,-0.051,0.01,-0.059,-0.039,0.022,-0.048,-1.555,0.006,0.055,97.92,100.2,40.531773,-3.427157,615.1,3,5,312.2,3.516
98.97,1,-0.041,0.013,-0.044,-0.041,0.016,-0.051,-1.556,0.005,0.057,97.92,100.2,40.531773,-3.427157,615.1,3,5,312.2,3.516
99.07,1,0.002,0.023,-0.034,-0.024,0.018,-0.046,-1.552,0.006,0.059,97.92,100.2,40.531773,-3.427157,615.1,3,5,312.2,3.516
99.17,1,-0.021,0.004,-0.032,-0.009,0.013,-0.033,-1.55,0.01,0.061,97.92,100.2,40.531773,-3.427157,615.1,3,5,312.2,3.516
99.27,1,-0.041,0.036,-0.041,-0.036,0.015,-0.039,-1.549,0.011,0.063,97.92,100.2,40.531773,-3.427157,615.1,3,5,312.2,3.516
99.37,1,-0.015,0.023,-0.02,-0.029,0.026,-0.026,-1.549,0.012,0.065,97.92,100.2,40.531773,-3.427157,615.1,3,5,312.2,3.516
99.47,1,-0.015,0.02,-0.003,-0.017,0.021,-0.018,-1.55,0.011,0.067,98.96,99.6,40.531921,-3.427403,615.7,3,5,310.1,3.867
99.57,1,-0.071,-0.007,-0.015,-0.041,0.012,-0.016,-1.55,0.013,0.07,98.96,99.6,40.531921,-3.427403,615.7,3,5,310.1,3.867
99.68,1,-0.07,0.002,-0.02,-0.063,0.005,-0.021,-1.552,0.015,0.073,98.96,99.6,40.531921,-3.427403,615.7,3,5,310.1,3.867
99.78,1,-0.025,-0.017,0.008,-0.046,-0.01,0.001,-1.555,0.017,0.076,98.96,99.6,40.531921,-3.427403,615.7,3,5,310.1,3.867
99.89,1,-0.061,-0.026,0.024,-0.045,-0.016,0.004,-1.555,0.015,0.079,98.96,99.6,40.531921,-3.427403,615.7,3,5,310.1,3.867
99.97,1,0.006,-0.023,0.015,-0.031,-0.021,0.017,-1.558,0.015,0.082,98.96,99.6,40.531921,-3.427403,615.7,3,5,310.1,3.867
100.07,1,-0.007,-0.023,0.008,-0.012,-0.019,0.007,-1.562,0.017,0.085,98.96,99.6,40.531921,-3.427403,615.7,3,5,310.1,3.867
100.17,1,-0.069,-0.02,0.008,-0.03,-0.02,0.013,-1.562,0.018,0.087,98.96,99.6,40.531921,-3.427403,615.7,3,5,310.1,3.867
100.27,1,0.013,0.018,0.01,-0.014,-0.004,0.01,-1.563,0.021,0.09,98.96,99.6,40.531921,-3.427403,615.7,3,5,310.1,3.867
100.38,1,-0.035,0.0,0.04,-0.022,0.001,0.026,-1.562,0.021,0.092,98.96,99.6,40.531921,-3.427403,615.7,3,5,310.1,3.867
100.47,1,-0.052,0.024,0.026,-0.041,0.005,0.026,-1.564,0.021,0.094,99.95,97.8,40.532082,-3.427661,616.3,3,5,308.7,3.516
100.57,1,0.017,0.016,0.048,-0.025,0.019,0.03,-1.566,0.023,0.096,99.95,97.8,40.532082,-3.427661,616.3,3,5,308.7,3.516
100.67,1,0.004,0.031,0.017,0.009,0.021,0.039,-1.564,0.024,0.098,99.95,97.8,40.532082,-3.427661,616.3,3,5,308.7,3.516
100.77,1,-0.045,0.04,0.015,-0.027,0.03,0.022,-1.562,0.024,0.1,99.95,97.8,40.532082,-3.427661,616.3,3,5,308.7,3.516
100.87,1,-0.014,0.032,0.026,-0.02,0.034,0.017,-1.562,0.023,0.102,99.95,97.8,40.532082,-3.427661,616.3,3,5,308.7,3.516
100.97,1,-0.044,0.028,0.006,-0.03,0.028,0.021,-1.564,0.019,0.103,99.95,97.8,40.532082,-3.427661,616.3,3,5,308.7,3.516
101.08,1,0.014,0.054,0.012,-0.011,0.039,0.013,-1.563,0.017,0.104,99.95,97.8,40.532082,-3.427661,616.3,3,5,308.7,3.516
101.18,1,-0.019,0.064,0.007,-0.011,0.057,0.01,-1.564,0.014,0.104,99.95,97.8,40.532082,-3.427661,616.3,3,5,308.7,3.516
101.27,1,-0.038,0.06,-0.029,-0.027,0.057,-0.006,-1.565,0.012,0.105,99.95,97.8,40.532082,-3.427661,616.3,3,5,308.7,3.516
101.37,1,-0.011,0.034,-0.017,-0.019,0.05,-0.018,-1.564,0.005,0.106,99.95,97.8,40.532082,-3.427661,616.3,3,5,308.7,3.516
101.48,1,-0.058,0.043,-0.065,-0.038,0.046,-0.04,-1.563,0.005,0.106,100.91,97.6,40.53223,-3.427914,615.9,3,5,306.6,3.516
101.58,1,-0.048,0.042,-0.044,-0.041,0.038,-0.041,-1.56,0.003,0.107,100.91,97.6,40.53223,-3.427914,615.9,3,5,306.6,3.516
101.68,1,-0.04,0.028,-0.029,-0.049,0.033,-0.041,-1.557,0.002,0.107,100.91,97.6,40.53223,-3.427914,615.9,3,5,306.6,3.516
101.78,1,0.006,0.008,-0.036,-0.019,0.029,-0.036,-1.554,0.003,0.108,100.91,97.6,40.53223,-3.427914,615.9,3,5,306.6,3.516
101.89,1,-0.048,0.021,-0.053,-0.023,0.02,-0.042,-1.554,0.006,0.109,100.91,97.6,40.53223,-3.427914,615.9,3,5,306.6,3.516
101.97,1,-0.087,0.015,-0.04,-0.062,0.021,-0.046,-1.556,0.01,0.112,100.91,97.6,40.53223,-3.427914,615.9,3,5,306.6,3.516
102.08,1,0.006,-0.049,-0.033,-0.038,-0.009,-0.032,-1.557,0.017,0.115,100.91,97.6,40.53223,-3.427914,615.9,3,5,306.6,3.516
102.18,1,-0.009,-0.03,-0.041,-0.009,-0.032,-0.04,-1.557,0.022,0.118,100.91,97.6,40.53223,-3.427914,615.9,3,5,306.6,3.516
102.28,1,-0.042,-0.018,-0.04,-0.028,-0.023,-0.042,-1.553,0.025,0.122,100.91,97.6,40.53223,-3.427914,615.9,3,5,306.6,3.516
102.39,1,0.006,-0.034,-0.029,-0.018,-0.029,-0.035,-1.547,0.03,0.125,100.91,97.6,40.53223,-3.427914,615.9,3,5,306.6,3.516
102.48,1,-0.023,-0.029,-0.032,-0.008,-0.029,-0.035,-1.544,0.032,0.128,101.9,96.1,40.532372,-3.428162,617.1,3,5,306.2,2.461
102.58,1,-0.071,-0.044,-0.029,-0.04,-0.032,-0.024,-1.541,0.034,0.132,101.9,96.1,40.532372,-3.428162,617.1,3,5,306.2,2.461
102.68,1,-0.046,-0.026,-0.012,-0.046,-0.033,-0.027,-1.54,0.035,0.135,101.9,96.1,40.532372,-3.428162,617.1,3,5,306.2,2.461
102.79,1,-0.026,-0.012,0.012,-0.041,-0.024,-0.007,-1.54,0.038,0.139,101.9,96.1,40.532372,-3.428162,617.1,3,5,306.2,2.461
102.88,1,-0.015,-0.024,0.009,-0.029,-0.023,0.008,-1.54,0.037,0.143,101.9,96.1,40.532372,-3.428162,617.1,3,5,306.2,2.461
102.99,1,-0.026,-0.012,0.029,-0.02,-0.016,0.016,-1.539,0.041,0.146,101.9,96.1,40.532372,-3.428162,617.1,3,5,306.2,2.461
103.09,1,-0.061,-0.015,-0.002,-0.041,-0.016,0.009,-1.539,0.042,0.15,101.9,96.1,40.532372,-3.428162,617.1,3,5,306.2,2.461
103.19,1,-0.004,0.013,0.024,-0.037,-0.007,0.014,-1.539,0.04,0.152,101.9,96.1,40.532372,-3.428162,617.1,3,5,306.2,2.461
103.28,1,-0.011,0.038,0.015,-0.018,0.016,0.014,-1.539,0.038,0.155,101.9,96.1,40.532372,-3.428162,617.1,3,5,306.2,2.461
103.38,1,-0.025,0.028,0.029,-0.006,0.025,0.022,-1.542,0.036,0.157,101.9,96.1,40.532372,-3.428162,617.1,3,5,306.2,2.461
103.48,1,-0.005,0.037,0.015,-0.02,0.034,0.017,-1.545,0.035,0.159,102.9,93.3,40.532505,-3.428411,617.6,3,5,303.8,2.812
103.58,1,0.007,0.048,0.022,-0.002,0.038,0.024,-1.55,0.026,0.159,102.9,93.3,40.532505,-3.428411,617.6,3,5,303.8,2.812
103.68,1,0.02,0.057,0.012,0.005,0.049,0.021,-1.553,0.02,0.16,102.9,93.3,40.532505,-3.428411,617.6,3,5,303.8,2.812
103.78,1,-0.001,0.042,0.025,0.007,0.051,0.013,-1.556,0.016,0.161,102.9,93.3,40.532505,-3.428411,617.6,3,5,303.8,2.812
103.88,1,-0.052,0.056,0.01,-0.025,0.048,0.019,-1.56,0.014,0.163,102.9,93.3,40.532505,-3.428411,617.6,3,5,303.8,2.812
103.98,1,-0.012,0.019,0.056,-0.028,0.033,0.03,-1.561,0.012,0.164,102.9,93.3,40.532505,-3.428411,617.6,3,5,303.8,2.812
104.09,1,0.021,0.022,0.039,0.004,0.028,0.038,-1.563,0.008,0.165,102.9,93.3,40.532505,-3.428411,617.6,3,5,303.8,2.812
104.19,1,0.005,0.044,0.028,0.005,0.032,0.036,-1.566,0.007,0.166,102.9,93.3,40.532505,-3.428411,617.6,3,5,303.8,2.812
104.29,1,-0.001,0.046,0.027,0.009,0.043,0.028,-1.571,0.003,0.167,102.9,93.3,40.532505,-3.428411,617.6,3,5,303.8,2.812
104.39,1,0.0,0.052,0.057,0.002,0.049,0.041,-1.574,-0.001,0.168,102.9,93.3,40.532505,-3.428411,617.6,3,5,303.8,2.812
104.48,1,-0.022,0.009,0.023,-0.008,0.035,0.043,-1.576,-0.004,0.168,103.9,91.3,40.532627,-3.428666,618.5,3,5,301.6,4.57
104.58,1,-0.026,0.028,0.044,-0.019,0.024,0.032,-1.577,-0.004,0.169,103.9,91.3,40.532627,-3.428666,618.5,3,5,301.6,4.57
104.69,1,-0.011,0.029,0.05,-0.016,0.024,0.046,-1.578,-0.004,0.17,103.9,91.3,40.532627,-3.428666,618.5,3,5,301.6,4.57
104.78,1,0.012,0.008,0.045,-0.009,0.024,0.047,-1.582,-0.002,0.171,103.9,91.3,40.532627,-3.428666,618.5,3,5,301.6,4.57
104.89,1,0.028,0.012,0.041,0.018,0.012,0.044,-1.591,-0.005,0.172,103.9,91.3,40.532627,-3.428666,618.5,3,5,301.6,4.57
104.99,1,-0.006,-0.017,0.014,0.008,-0.002,0.03,-1.594,-0.002,0.174,103.9,91.3,40.532627,-3.428666,618.5,3,5,301.6,4.57
105.08,1,-0.066,-0.024,-0.022,-0.023,-0.012,0.009,-1.59,-0.003,0.176,103.9,91.3,40.532627,-3.428666,618.5,3,5,301.6,4.57
105.18,1,-0.008,0.018,0.002,-0.024,-0.006,-0.004,-1.587,-0.002,0.177,103.9,91.3,40.532627,-3.428666,618.5,3,5,301.6,4.57
105.29,1,0.039,0.022,0.017,0.0,0.016,0.004,-1.584,-0.002,0.178,103.9,91.3,40.532627,-3.428666,618.5,3,5,301.6,4.57
105.38,1,-0.03,0.03,-0.017,0.008,0.018,0.002,-1.582,0.001,0.18,103.9,91.3,40.532627,-3.428666,618.5,3,5,301.6,4.57
105.5,1,-0.057,0.02,-0.023,-0.04,0.026,-0.012,-1.583,0.004,0.182,104.94,90.2,40.532742,-3.428923,620.9,3,5,301.3,2.461
105.59,1,0.021,0.006,0.011,-0.021,0.018,-0.013,-1.584,0.003,0.183,104.94,90.2,40.532742,-3.428923,620.9,3,5,301.3,2.461
105.68,1,0.018,0.01,0.006,0.006,0.009,0.006,-1.584,0.004,0.184,104.94,90.2,40.532742,-3.428923,620.9,3,5,301.3,2.461
105.78,1,0.018,0.007,0.014,0.017,0.008,0.008,-1.58,0.003,0.186,104.94,90.2,40.532742,-3.428923,620.9,3,5,301.3,2.461
105.89,1,-0.021,0.027,-0.01,0.0,0.02,-0.003,-1.578,0.002,0.187,104.94,90.2,40.532742,-3.428923,620.9,3,5,301.3,2.461
105.99,1,0.004,0.025,0.004,-0.005,0.023,0.003,-1.578,0.001,0.189,104.94,90.2,40.532742,-3.428923,620.9,3,5,301.3,2.461
106.1,1,-0.008,0.004,-0.0,-0.0,0.015,-0.001,-1.577,-0.0,0.191,104.94,90.2,40.532742,-3.428923,620.9,3,5,301.3,2.461
106.2,1,-0.003,0.015,-0.015,-0.007,0.012,-0.001,-1.579,0.002,0.192,104.94,90.2,40.532742,-3.428923,620.9,3,5,301.3,2.461
106.29,1,-0.042,0.022,-0.02,-0.011,0.011,-0.013,-1.579,-0.0,0.193,104.94,90.2,40.532742,-3.428923,620.9,3,5,301.3,2.461
106.39,1,-0.048,0.03,-0.014,-0.04,0.022,-0.014,-1.579,-0.003,0.194,104.94,90.2,40.532742,-3.428923,620.9,3,5,301.3,2.461
106.49,1,-0.047,0.019,-0.024,-0.046,0.023,-0.02,-1.58,-0.003,0.196,105.89,90.3,40.53286,-3.429184,621.3,3,5,298.8,2.812
106.59,1,-0.058,0.007,0.005,-0.049,0.011,-0.01,-1.58,-0.0,0.197,105.89,90.3,40.53286,-3.429184,621.3,3,5,298.8,2.812
106.69,1,0.016,0.025,-0.002,-0.029,0.019,-0.006,-1.579,-0.001,0.198,105.89,90.3,40.53286,-3.429184,621.3,3,5,298.8,2.812
106.79,1,0.019,0.022,0.007,0.009,0.024,0.002,-1.578,-0.002,0.2,105.89,90.3,40.53286,-3.429184,621.3,3,5,298.8,2.812
106.89,1,-0.024,0.022,0.007,-0.003,0.025,0.007,-1.579,-0.004,0.201,105.89,90.3,40.53286,-3.429184,621.3,3,5,298.8,2.812
107.09,1,-0.058,-0.001,0.016,-0.032,0.0,0.015,-1.583,-0.003,0.204,105.89,90.3,40.53286,-3.429184,621.3,3,5,298.8,2.812
107.19,1,0.013,-0.022,0.005,-0.027,-0.007,0.013,-1.588,-0.004,0.205,105.89,90.3,40.53286,-3.429184,621.3,3,5,298.8,2.812
107.29,1,0.018,0.008,0.015,0.011,-0.003,0.018,-1.591,-0.006,0.207,105.89,90.3,40.53286,-3.429184,621.3,3,5,298.8,2.812
107.39,1,0.001,-0.005,0.021,0.003,-0.002,0.012,-1.594,-0.007,0.208,105.89,90.3,40.53286,-3.429184,621.3,3,5,298.8,2.812
107.49,1,-0.013,-0.003,0.049,0.0,-0.009,0.028,-1.596,-0.005,0.209,105.89,90.3,40.53286,-3.429184,621.3,3,5,298.8,2.812
107.59,1,-0.042,-0.014,-0.002,-0.017,-0.01,0.021,-1.596,-0.006,0.21,106.94,89.9,40.532974,-3.429456,622.5,3,5,297.1,4.219
107.69,1,0.033,0.006,0.033,-0.003,0.002,0.026,-1.597,-0.011,0.21,106.94,89.9,40.532974,-3.429456,622.5,3,5,297.1,4.219
107.79,1,0.022,0.007,0.033,0.017,0.005,0.031,-1.599,-0.014,0.211,106.94,89.9,40.532974,-3.429456,622.5,3,5,297.1,4.219
107.9,1,-0.021,-0.002,0.044,-0.002,0.004,0.033,-1.603,-0.016,0.212,106.94,89.9,40.532974,-3.429456,622.5,3,5,297.1,4.219
108.0,1,-0.006,0.01,0.051,-0.009,0.002,0.041,-1.606,-0.013,0.213,106.94,89.9,40.532974,-3.429456,622.5,3,5,297.1,4.219
108.09,1,-0.035,-0.026,0.032,-0.013,-0.005,0.041,-1.61,-0.009,0.214,106.94,89.9,40.532974,-3.429456,622.5,3,5,297.1,4.219
108.19,1,-0.027,0.001,0.066,-0.035,-0.01,0.047,-1.614,-0.009,0.214,106.94,89.9,40.532974,-3.429456,622.5,3,5,297.1,4.219
108.29,1,-0.059,0.055,0.016,-0.04,0.023,0.036,-1.617,-0.008,0.215,106.94,89.9,40.532974,-3.429456,622.5,3,5,297.1,4.219
108.39,1,-0.018,0.047,0.03,-0.041,0.037,0.032,-1.618,-0.007,0.215,106.94,89.9,40.532974,-3.429456,622.5,3,5,297.1,4.219
108.49,1,0.035,0.018,0.05,0.003,0.03,0.038,-1.621,-0.005,0.216,106.94,89.9,40.532974,-3.429456,622.5,3,5,297.1,4.219
108.6,1,0.017,0.034,0.023,0.02,0.031,0.04,-1.626,-0.009,0.216,107.94,89.4,40.533077,-3.429726,622.8,3,5,295.3,3.516
108.69,1,0.014,0.018,0.032,0.017,0.025,0.03,-1.625,-0.011,0.217,107.94,89.4,40.533077,-3.429726,622.8,3,5,295.3,3.516
108.79,1,-0.048,0.008,0.001,-0.012,0.016,0.02,-1.627,-0.009,0.218,107.94,89.4,40.533077,-3.429726,622.8,3,5,295.3,3.516
108.89,1,-0.082,0.008,0.007,-0.05,0.01,0.006,-1.628,-0.007,0.219,107.94,89.4,40.533077,-3.429726,622.8,3,5,295.3,3.516
108.99,1,0.018,-0.028,0.023,-0.028,-0.005,0.018,-1.631,-0.007,0.221,107.94,89.4,40.533077,-3.429726,622.8,3,5,295.3,3.516
109.09,1,-0.005,-0.02,0.006,-0.006,-0.019,0.009,-1.631,-0.002,0.223,107.94,89.4,40.533077,-3.429726,622.8,3,5,295.3,3.516
109.2,1,-0.02,-0.021,-0.015,-0.015,-0.017,0.005,-1.63,0.004,0.225,107.94,89.4,40.533077,-3.429726,622.8,3,5,295.3,3.516
109.3,1,-0.008,-0.015,0.005,-0.018,-0.014,-0.004,-1.628,0.007,0.226,107.94,89.4,40.533077,-3.429726,622.8,3,5,295.3,3.516
109.39,1,-0.005,-0.02,0.015,-0.002,-0.017,0.007,-1.628,0.005,0.228,107.94,89.4,40.533077,-3.429726,622.8,3,5,295.3,3.516
109.49,1,-0.046,-0.01,0.007,-0.03,-0.017,0.009,-1.627,0.003,0.23,107.94,89.4,40.533077,-3.429726,622.8,3,5,295.3,3.516
109.59,1,0.064,-0.004,0.03,0.018,-0.01,0.02,-1.627,0.002,0.231,108.91,90.4,40.533176,-3.430004,625.4,3,5,293.9,3.164
109.69,1,0.033,-0.014,-0.002,0.024,-0.011,0.009,-1.626,0.001,0.232,108.91,90.4,40.533176,-3.430004,625.4,3,5,293.9,3.164
109.79,1,0.011,0.015,0.005,0.023,-0.001,0.012,-1.626,-0.001,0.233,108.91,90.4,40.533176,-3.430004,625.4,3,5,293.9,3.164
109.9,1,-0.048,0.053,-0.036,-0.011,0.024,-0.013,-1.621,-0.005,0.232,108.91,90.4,40.533176,-3.430004,625.4,3,5,293.9,3.164
110.0,1,-0.029,0.072,-0.063,-0.021,0.05,-0.037,-1.615,-0.008,0.232,108.91,90.4,40.533176,-3.430004,625.4,3,5,293.9,3.164
110.1,1,0.049,0.019,-0.06,0.012,0.044,-0.051,-1.61,-0.011,0.231,108.91,90.4,40.533176,-3.430004,625.4,3,5,293.9,3.164
110.2,1,-0.05,0.023,-0.092,-0.006,0.034,-0.07,-1.606,-0.012,0.231,108.91,90.4,40.533176,-3.430004,625.4,3,5,293.9,3.164
110.31,1,-0.037,0.012,-0.07,-0.035,0.023,-0.076,-1.6,-0.012,0.231,108.91,90.4,40.533176,-3.430004,625.4,3,5,293.9,3.164
110.4,1,-0.04,-0.034,-0.054,-0.036,-0.003,-0.069,-1.594,-0.012,0.232,108.91,90.4,40.533176,-3.430004,625.4,3,5,293.9,3.164
110.51,1,-0.036,-0.048,-0.034,-0.042,-0.03,-0.052,-1.592,-0.004,0.234,108.91,90.4,40.533176,-3.430004,625.4,3,5,293.9,3.164
110.6,1,0.005,-0.031,-0.027,-0.017,-0.038,-0.034,-1.592,-0.002,0.236,109.9,91.4,40.533257,-3.430276,627.3,3,5,292.5,2.812
110.7,1,0.004,0.004,-0.034,-0.006,-0.014,-0.034,-1.593,-0.002,0.237,109.9,91.4,40.533257,-3.430276,627.3,3,5,292.5,2.812
110.8,1,0.004,0.009,0.003,0.003,0.0,-0.02,-1.594,-0.0,0.239,109.9,91.4,40.533257,-3.430276,627.3,3,5,292.5,2.812
110.9,1,-0.018,0.002,-0.025,-0.007,0.002,-0.013,-1.594,0.001,0.24,109.9,91.4,40.533257,-3.430276,627.3,3,5,292.5,2.812
111.0,1,0.01,0.006,-0.001,-0.006,0.002,-0.014,-1.593,0.002,0.241,109.9,91.4,40.533257,-3.430276,627.3,3,5,292.5,2.812
111.11,1,-0.006,0.009,0.013,0.003,0.003,-0.001,-1.592,-0.001,0.242,109.9,91.4,40.533257,-3.430276,627.3,3,5,292.5,2.812
111.21,1,-0.021,0.02,0.033,-0.012,0.014,0.018,-1.594,-0.004,0.242,109.9,91.4,40.533257,-3.430276,627.3,3,5,292.5,2.812
111.3,1,0.016,-0.002,0.011,-0.003,0.006,0.015,-1.592,-0.004,0.243,109.9,91.4,40.533257,-3.430276,627.3,3,5,292.5,2.812
111.4,1,-0.003,-0.004,0.027,0.0,0.003,0.026,-1.594,-0.004,0.244,109.9,91.4,40.533257,-3.430276,627.3,3,5,292.5,2.812
111.5,1,0.003,-0.003,0.004,0.007,-0.001,0.012,-1.595,-0.005,0.245,109.9,91.4,40.533257,-3.430276,627.3,3,5,292.5,2.812
111.6,1,-0.007,0.019,0.021,-0.004,0.006,0.013,-1.598,-0.003,0.246,110.9,89.7,40.533337,-3.430558,629.1,3,5,290.7,3.164
111.7,1,0.014,0.002,0.035,0.002,0.007,0.024,-1.601,-0.002,0.247,110.9,89.7,40.533337,-3.430558,629.1,3,5,290.7,3.164
111.8,1,0.008,0.033,0.008,0.011,0.019,0.022,-1.605,-0.002,0.248,110.9,89.7,40.533337,-3.430558,629.1,3,5,290.7,3.164
111.91,1,-0.026,0.0,0.022,-0.005,0.014,0.018,-1.609,-0.003,0.248,110.9,89.7,40.533337,-3.430558,629.1,3,5,290.7,3.164
112.0,1,-0.008,-0.022,0.036,-0.012,-0.005,0.031,-1.612,-0.007,0.248,110.9,89.7,40.533337,-3.430558,629.1,3,5,290.7,3.164
112.1,1,-0.032,0.007,0.033,-0.02,-0.003,0.025,-1.613,-0.006,0.249,110.9,89.7,40.533337,-3.430558,629.1,3,5,290.7,3.164
112.22,1,-0.077,-0.008,0.022,-0.044,-0.001,0.029,-1.619,-0.003,0.25,110.9,89.7,40.533337,-3.430558,629.1,3,5,290.7,3.164
112.3,1,-0.043,-0.012,0.033,-0.055,-0.014,0.025,-1.622,-0.004,0.251,110.9,89.7,40.533337,-3.430558,629.1,3,5,290.7,3.164
112.4,1,0.01,-0.001,0.016,-0.024,-0.006,0.028,-1.623,-0.004,0.252,110.9,89.7,40.533337,-3.430558,629.1,3,5,290.7,3.164
112.5,1,0.005,0.008,-0.022,-0.001,0.003,0.008,-1.624,-0.002,0.253,110.9,89.7,40.533337,-3.430558,629.1,3,5,290.7,3.164
112.6,1,-0.01,0.02,-0.007,-0.004,0.012,-0.012,-1.623,-0.004,0.254,111.9,87.2,40.533413,-3.43083,629.1,3,5,291.1,1.406
112.7,1,-0.002,-0.024,-0.024,-0.007,-0.002,-0.015,-1.619,0.001,0.255,111.9,87.2,40.533413,-3.43083,629.1,3,5,291.1,1.406
112.8,1,-0.048,-0.003,-0.035,-0.016,-0.011,-0.024,-1.614,0.003,0.256,111.9,87.2,40.533413,-3.43083,629.1,3,5,291.1,1.406
112.9,1,-0.043,-0.016,-0.008,-0.042,-0.008,-0.021,-1.614,0.002,0.257,111.9,87.2,40.533413,-3.43083,629.1,3,5,291.1,1.406
113.0,1,-0.076,-0.023,0.004,-0.049,-0.015,-0.007,-1.615,0.001,0.259,111.9,87.2,40.533413,-3.43083,629.1,3,5,291.1,1.406
113.1,1,-0.032,0.013,0.01,-0.06,-0.011,0.002,-1.616,-0.0,0.26,111.9,87.2,40.533413,-3.43083,629.1,3,5,291.1,1.406
113.2,1,0.044,0.009,0.024,-0.008,0.007,0.014,-1.617,-0.0,0.261,111.9,87.2,40.533413,-3.43083,629.1,3,5,291.1,1.406
113.3,1,0.002,0.006,0.013,0.009,0.006,0.013,-1.615,0.001,0.263,111.9,87.2,40.533413,-3.43083,629.1,3,5,291.1,1.406
113.4,1,0.036,-0.015,0.012,0.017,-0.004,0.015,-1.613,0.005,0.264,111.9,87.2,40.533413,-3.43083,629.1,3,5,291.1,1.406
113.51,1,-0.011,-0.008,0.025,0.017,-0.008,0.018,-1.613,0.006,0.265,111.9,87.2,40.533413,-3.43083,629.1,3,5,291.1,1.406
113.61,1,-0.051,0.013,0.021,-0.018,0.001,0.021,-1.615,0.006,0.266,112.9,89.7,40.533489,-3.431099,629.8,3,5,288.3,2.812
113.71,1,-0.069,0.014,0.015,-0.05,0.01,0.02,-1.619,0.009,0.268,112.9,89.7,40.533489,-3.431099,629.8,3,5,288.3,2.812
113.8,1,-0.07,-0.028,-0.017,-0.065,-0.005,0.003,-1.62,0.012,0.27,112.9,89.7,40.533489,-3.431099,629.8,3,5,288.3,2.812
113.91,1,0.029,-0.012,-0.002,-0.031,-0.015,-0.006,-1.621,0.017,0.271,112.9,89.7,40.533489,-3.431099,629.8,3,5,288.3,2.812
114.01,1,-0.009,0.017,-0.024,-0.003,-0.004,-0.01,-1.615,0.017,0.273,112.9,89.7,40.533489,-3.431099,629.8,3,5,288.3,2.812
114.11,1,0.055,-0.023,-0.043,0.012,-0.002,-0.032,-1.61,0.016,0.274,112.9,89.7,40.533489,-3.431099,629.8,3,5,288.3,2.812
114.21,1,0.025,0.003,-0.055,0.04,-0.009,-0.041,-1.605,0.019,0.275,112.9,89.7,40.533489,-3.431099,629.8,3,5,288.3,2.812
114.31,1,-0.027,0.031,-0.07,0.002,0.014,-0.058,-1.6,0.015,0.275,112.9,89.7,40.533489,-3.431099,629.8,3,5,288.3,2.812
114.41,1,-0.066,0.038,-0.05,-0.027,0.026,-0.053,-1.595,0.01,0.275,112.9,89.7,40.533489,-3.431099,629.8,3,5,288.3,2.812
114.51,1,-0.029,0.061,-0.017,-0.043,0.047,-0.044,-1.592,0.005,0.274,112.9,89.7,40.533489,-3.431099,629.8,3,5,288.3,2.812
114.62,1,-0.011,0.041,-0.057,-0.024,0.047,-0.035,-1.589,0.003,0.275,113.92,90.7,40.533562,-3.43139,630.9,3,5,286.2,4.922
114.71,1,-0.024,0.039,-0.068,-0.021,0.039,-0.058,-1.583,0.002,0.275,113.92,90.7,40.533562,-3.43139,630.9,3,5,286.2,4.922
114.82,1,-0.009,0.017,-0.018,-0.016,0.03,-0.041,-1.58,0.001,0.275,113.92,90.7,40.533562,-3.43139,630.9,3,5,286.2,4.922
114.91,1,-0.019,0.025,-0.044,-0.016,0.026,-0.04,-1.577,0.0,0.275,113.92,90.7,40.533562,-3.43139,630.9,3,5,286.2,4.922
115.01,1,-0.011,0.03,-0.019,-0.017,0.027,-0.032,-1.573,-0.0,0.275,113.92,90.7,40.533562,-3.43139,630.9,3,5,286.2,4.922
115.11,1,-0.049,0.025,-0.026,-0.029,0.03,-0.026,-1.574,0.0,0.276,113.92,90.7,40.533562,-3.43139,630.9,3,5,286.2,4.922
115.21,1,-0.037,-0.002,-0.013,-0.032,0.018,-0.021,-1.576,0.003,0.277,113.92,90.7,40.533562,-3.43139,630.9,3,5,286.2,4.922
115.32,1,0.028,-0.038,0.032,-0.006,-0.016,0.006,-1.578,0.007,0.278,113.92,90.7,40.533562,-3.43139,630.9,3,5,286.2,4.922
115.41,1,-0.002,-0.012,-0.017,-0.004,-0.018,0.002,-1.576,0.01,0.28,113.92,90.7,40.533562,-3.43139,630.9,3,5,286.2,4.922
115.53,1,-0.001,0.005,-0.004,0.001,-0.011,-0.005,-1.576,0.01,0.281,113.92,90.7,40.533562,-3.43139,630.9,3,5,286.2,4.922
115.61,1,-0.034,0.004,-0.012,-0.016,0.004,-0.013,-1.574,0.007,0.282,114.94,90.3,40.533623,-3.431679,631.5,4,5,284.8,3.516
115.71,1,0.023,0.018,0.046,-0.007,0.009,0.014,-1.577,0.005,0.283,114.94,90.3,40.533623,-3.431679,631.5,4,5,284.8,3.516
115.81,1,0.001,-0.012,0.01,0.009,0.001,0.019,-1.581,0.007,0.284,114.94,90.3,40.533623,-3.431679,631.5,4,5,284.8,3.516
115.91,1,-0.048,-0.033,0.027,-0.017,-0.013,0.021,-1.585,0.005,0.285,114.94,90.3,40.533623,-3.431679,631.5,4,5,284.8,3.516
116.01,1,-0.037,-0.032,0.029,-0.032,-0.021,0.027,-1.586,0.003,0.286,114.94,90.3,40.533623,-3.431679,631.5,4,5,284.8,3.516
116.11,1,0.005,0.015,0.049,-0.021,-0.016,0.033,-1.589,0.006,0.287,114.94,90.3,40.533623,-3.431679,631.5,4,5,284.8,3.516
116.21,1,-0.026,0.03,0.025,-0.012,0.011,0.039,-1.589,0.006,0.288,114.94,90.3,40.533623,-3.431679,631.5,4,5,284.8,3.516
116.31,1,-0.012,0.013,0.031,-0.023,0.019,0.026,-1.592,0.006,0.289,114.94,90.3,40.533623,-3.431679,631.5,4,5,284.8,3.516
116.41,1,0.01,-0.013,0.043,0.004,0.001,0.042,-1.597,0.008,0.291,114.94,90.3,40.533623,-3.431679,631.5,4,5,284.8,3.516
116.51,1,-0.02,0.009,0.02,-0.011,0.0,0.032,-1.598,0.007,0.293,114.94,90.3,40.533623,-3.431679,631.5,4,5,284.8,3.516
116.61,1,0.027,0.016,0.032,-0.0,0.013,0.028,-1.6,0.004,0.294,115.9,87.7,40.533669,-3.431957,633.0,3,5,282.7,3.516
116.72,1,-0.013,0.007,0.045,0.004,0.007,0.035,-1.603,-0.002,0.294,115.9,87.7,40.533669,-3.431957,633.0,3,5,282.7,3.516
116.82,1,-0.007,0.004,0.057,-0.005,0.009,0.043,-1.607,-0.001,0.295,115.9,87.7,40.533669,-3.431957,633.0,3,5,282.7,3.516
117.01,1,0.012,0.04,0.046,-0.015,0.021,0.039,-1.615,0.002,0.296,115.9,87.7,40.533669,-3.431957,633.0,3,5,282.7,3.516
117.11,1,0.022,0.011,0.042,0.013,0.022,0.042,-1.617,-0.001,0.297,115.9,87.7,40.533669,-3.431957,633.0,3,5,282.7,3.516
117.21,1,0.001,0.022,0.014,0.009,0.018,0.034,-1.619,0.001,0.297,115.9,87.7,40.533669,-3.431957,633.0,3,5,282.7,3.516
117.32,1,-0.011,0.014,0.01,-0.005,0.025,0.018,-1.619,0.002,0.297,115.9,87.7,40.533669,-3.431957,633.0,3,5,282.7,3.516
117.41,1,-0.038,0.011,0.009,-0.014,0.013,0.014,-1.623,0.003,0.298,115.9,87.7,40.533669,-3.431957,633.0,3,5,282.7,3.516
117.52,1,-0.071,-0.01,0.024,-0.043,0.005,0.017,-1.624,0.002,0.298,115.9,87.7,40.533669,-3.431957,633.0,3,5,282.7,3.516
117.62,1,-0.041,-0.022,0.002,-0.055,-0.012,0.007,-1.626,0.001,0.298,115.9,87.7,40.533669,-3.431957,633.0,3,5,282.7,3.516
117.72,1,0.008,0.023,0.078,-0.029,0.001,0.044,-1.626,-0.001,0.298,116.9,87.7,40.533726,-3.43223,634.8,4,5,281.2,3.516
117.82,1,0.058,0.014,0.018,0.019,0.014,0.037,-1.625,-0.003,0.299,116.9,87.7,40.533726,-3.43223,634.8,4,5,281.2,3.516
117.92,1,0.023,0.077,-0.004,0.03,0.033,0.016,-1.624,-0.005,0.299,116.9,87.7,40.533726,-3.43223,634.8,4,5,281.2,3.516
118.02,1,-0.001,0.028,0.038,0.024,0.043,0.021,-1.625,-0.006,0.3,116.9,87.7,40.533726,-3.43223,634.8,4,5,281.2,3.516
118.12,1,-0.036,0.044,0.017,-0.014,0.037,0.021,-1.628,-0.006,0.301,116.9,87.7,40.533726,-3.43223,634.8,4,5,281.2,3.516
118.22,1,-0.013,0.036,0.023,-0.027,0.042,0.021,-1.627,-0.005,0.301,116.9,87.7,40.533726,-3.43223,634.8,4,5,281.2,3.516
118.32,1,0.017,0.012,0.028,0.004,0.029,0.026,-1.627,-0.003,0.301,116.9,87.7,40.533726,-3.43223,634.8,4,5,281.2,3.516
118.42,1,-0.018,0.014,-0.021,0.002,0.022,0.003,-1.626,-0.005,0.301,116.9,87.7,40.533726,-3.43223,634.8,4,5,281.2,3.516
118.52,1,-0.012,-0.023,0.017,-0.013,-0.001,0.004,-1.628,-0.008,0.301,116.9,87.7,40.533726,-3.43223,634.8,4,5,281.2,3.516
118.63,1,-0.018,-0.025,-0.002,-0.012,-0.016,0.008,-1.628,-0.007,0.301,116.9,87.7,40.533726,-3.43223,634.8,4,5,281.2,3.516
118.73,1,-0.073,0.018,-0.015,-0.04,-0.003,-0.006,-1.627,-0.007,0.302,117.9,88.9,40.53376,-3.432511,636.0,4,5,279.8,2.812
