Timestamp_Accel,SystemActivated,accelerometerXAxis,accelerometerYAxis,accelerometerZAxis,AccelX_KF,AccelY_KF,AccelZ_KF,gyroscopeXAxis,gyroscopeYAxis,gyroscopeZAxis,Timestamp_GPS,Speed,latitude,longitude,Altitude,VerticalAccuracy,HorizontalAccuracy,Course,Difcourse
17.42,1,-0.013,0.053,-0.022,0.018,0.003,-0.018,-1.566,-0.034,0.056,17.41,68.2,40.516781,-3.407968,619.2,3,5,325.9,0.703
17.52,1,0.013,0.008,-0.024,0.02,0.019,-0.016,-1.565,-0.035,0.057,17.41,68.2,40.516781,-3.407968,619.2,3,5,325.9,0.703
17.62,1,0.005,-0.014,-0.047,0.008,-0.003,-0.034,-1.566,-0.035,0.056,17.41,68.2,40.516781,-3.407968,619.2,3,5,325.9,0.703
17.72,1,0.005,0.015,0.0,0.004,0.003,-0.026,-1.568,-0.034,0.057,17.41,68.2,40.516781,-3.407968,619.2,3,5,325.9,0.703
17.82,1,-0.021,0.021,-0.036,-0.001,0.016,-0.017,-1.567,-0.033,0.057,17.41,68.2,40.516781,-3.407968,619.2,3,5,325.9,0.703
17.92,1,0.009,0.006,-0.023,-0.009,0.005,-0.032,-1.567,-0.031,0.057,17.41,68.2,40.516781,-3.407968,619.2,3,5,325.9,0.703
18.02,1,-0.009,0.017,-0.008,-0.003,0.02,-0.013,-1.566,-0.031,0.057,17.41,68.2,40.516781,-3.407968,619.2,3,5,325.9,0.703
18.12,1,0.02,-0.037,-0.031,0.016,-0.011,-0.023,-1.563,-0.038,0.057,17.41,68.2,40.516781,-3.407968,619.2,3,5,325.9,0.703
18.22,1,-0.017,0.005,-0.014,-0.013,-0.004,-0.023,-1.564,-0.041,0.057,17.41,68.2,40.516781,-3.407968,619.2,3,5,325.9,0.703
18.32,1,0.066,-0.022,0.01,0.021,-0.013,-0.005,-1.569,-0.039,0.056,17.41,68.2,40.516781,-3.407968,619.2,3,5,325.9,0.703
18.43,1,-0.068,-0.006,-0.024,-0.001,-0.011,-0.012,-1.563,-0.04,0.056,18.42,68.3,40.516933,-3.408077,619.4,3,5,325.5,0.352
18.52,1,-0.016,-0.018,-0.006,-0.032,-0.01,-0.009,-1.557,-0.043,0.056,18.42,68.3,40.516933,-3.408077,619.4,3,5,325.5,0.352
18.63,1,0.002,-0.004,-0.005,-0.002,-0.017,-0.005,-1.558,-0.033,0.056,18.42,68.3,40.516933,-3.408077,619.4,3,5,325.5,0.352
18.72,1,-0.004,0.037,-0.0,-0.01,0.015,-0.007,-1.556,-0.035,0.056,18.42,68.3,40.516933,-3.408077,619.4,3,5,325.5,0.352
18.82,1,-0.002,-0.013,0.004,0.002,0.005,0.003,-1.558,-0.033,0.056,18.42,68.3,40.516933,-3.408077,619.4,3,5,325.5,0.352
18.92,1,-0.05,-0.017,-0.011,-0.027,-0.006,-0.005,-1.557,-0.03,0.056,18.42,68.3,40.516933,-3.408077,619.4,3,5,325.5,0.352
19.02,1,-0.008,0.008,-0.004,-0.028,-0.003,-0.007,-1.554,-0.031,0.056,18.42,68.3,40.516933,-3.408077,619.4,3,5,325.5,0.352
19.12,1,0.032,0.005,0.008,0.009,0.006,0.003,-1.554,-0.031,0.056,18.42,68.3,40.516933,-3.408077,619.4,3,5,325.5,0.352
19.22,1,-0.018,0.005,-0.019,0.002,-0.003,-0.008,-1.553,-0.033,0.056,18.42,68.3,40.516933,-3.408077,619.4,3,5,325.5,0.352
19.32,1,0.013,0.048,0.006,0.004,0.026,-0.002,-1.555,-0.035,0.056,18.42,68.3,40.516933,-3.408077,619.4,3,5,325.5,0.352
19.42,1,-0.02,-0.06,-0.014,-0.004,-0.006,-0.006,-1.554,-0.035,0.056,19.37,68.5,40.517075,-3.408206,619.3,3,5,325.9,0.352
19.52,1,-0.017,0.005,-0.008,-0.015,-0.014,-0.01,-1.555,-0.034,0.055,19.37,68.5,40.517075,-3.408206,619.3,3,5,325.9,0.352
19.63,1,0.066,0.03,0.017,0.017,0.008,0.004,-1.556,-0.034,0.056,19.37,68.5,40.517075,-3.408206,619.3,3,5,325.9,0.352
19.73,1,-0.024,-0.009,-0.022,0.011,0.011,-0.006,-1.554,-0.034,0.056,19.37,68.5,40.517075,-3.408206,619.3,3,5,325.9,0.352
19.83,1,0.013,-0.016,0.009,0.008,-0.011,0.001,-1.555,-0.037,0.056,19.37,68.5,40.517075,-3.408206,619.3,3,5,325.9,0.352
19.92,1,-0.024,-0.023,-0.036,-0.006,-0.011,-0.015,-1.553,-0.036,0.056,19.37,68.5,40.517075,-3.408206,619.3,3,5,325.9,0.352
20.02,1,0.04,-0.018,0.017,0.017,-0.026,-0.004,-1.554,-0.034,0.056,19.37,68.5,40.517075,-3.408206,619.3,3,5,325.9,0.352
20.13,1,-0.015,0.072,-0.012,-0.001,0.026,-0.006,-1.554,-0.033,0.058,19.37,68.5,40.517075,-3.408206,619.3,3,5,325.9,0.352
20.23,1,-0.008,-0.034,0.007,-0.004,0.01,0.003,-1.554,-0.033,0.058,19.37,68.5,40.517075,-3.408206,619.3,3,5,325.9,0.352
20.34,1,0.035,-0.007,-0.016,0.009,-0.012,-0.008,-1.554,-0.032,0.058,19.37,68.5,40.517075,-3.408206,619.3,3,5,325.9,0.352
20.44,1,0.019,0.02,0.0,0.006,0.017,-0.009,-1.554,-0.032,0.059,20.36,68.0,40.517216,-3.408337,619.5,3,5,325.9,0.352
20.53,1,-0.021,0.01,0.001,0.021,-0.004,0.003,-1.555,-0.031,0.059,20.36,68.0,40.517216,-3.408337,619.5,3,5,325.9,0.352
20.63,1,-0.01,-0.053,0.001,-0.018,-0.008,-0.004,-1.555,-0.038,0.06,20.36,68.0,40.517216,-3.408337,619.5,3,5,325.9,0.352
20.73,1,-0.004,-0.022,0.01,-0.004,-0.026,0.007,-1.555,-0.039,0.06,20.36,68.0,40.517216,-3.408337,619.5,3,5,325.9,0.352
20.83,1,-0.046,0.024,-0.006,-0.023,-0.004,0.003,-1.554,-0.04,0.061,20.36,68.0,40.517216,-3.408337,619.5,3,5,325.9,0.352
20.93,1,0.005,0.044,-0.008,-0.02,0.025,-0.005,-1.553,-0.041,0.062,20.36,68.0,40.517216,-3.408337,619.5,3,5,325.9,0.352
21.03,1,-0.021,-0.066,-0.018,-0.005,-0.019,-0.01,-1.553,-0.04,0.063,20.36,68.0,40.517216,-3.408337,619.5,3,5,325.9,0.352
21.13,1,-0.007,0.001,0.027,-0.013,-0.021,0.002,-1.553,-0.04,0.063,20.36,68.0,40.517216,-3.408337,619.5,3,5,325.9,0.352
21.23,1,0.009,-0.042,-0.006,-0.002,-0.021,0.003,-1.552,-0.037,0.065,20.36,68.0,40.517216,-3.408337,619.5,3,5,325.9,0.352
21.33,1,-0.046,0.017,-0.007,-0.02,-0.017,-0.004,-1.552,-0.034,0.065,20.36,68.0,40.517216,-3.408337,619.5,3,5,325.9,0.352
21.43,1,-0.005,-0.044,0.0,-0.02,-0.008,0.003,-1.553,-0.036,0.066,21.37,68.4,40.517357,-3.408457,621.4,3,5,325.9,0.0
21.54,1,-0.019,-0.035,-0.01,-0.016,-0.031,-0.008,-1.55,-0.04,0.066,21.37,68.4,40.517357,-3.408457,621.4,3,5,325.9,0.0
21.64,1,-0.008,-0.016,0.005,-0.005,-0.03,0.002,-1.55,-0.042,0.068,21.37,68.4,40.517357,-3.408457,621.4,3,5,325.9,0.0
21.73,1,0.002,-0.013,-0.007,-0.017,-0.013,-0.008,-1.554,-0.038,0.069,21.37,68.4,40.517357,-3.408457,621.4,3,5,325.9,0.0
21.83,1,0.001,-0.018,-0.01,0.011,-0.022,-0.005,-1.555,-0.034,0.07,21.37,68.4,40.517357,-3.408457,621.4,3,5,325.9,0.0
21.93,1,-0.007,0.004,0.016,-0.013,-0.008,-0.002,-1.555,-0.031,0.071,21.37,68.4,40.517357,-3.408457,621.4,3,5,325.9,0.0
22.03,1,0.049,-0.027,0.02,0.026,-0.013,0.014,-1.554,-0.029,0.072,21.37,68.4,40.517357,-3.408457,621.4,3,5,325.9,0.0
22.14,1,0.008,-0.022,-0.004,0.019,-0.019,0.012,-1.549,-0.028,0.073,21.37,68.4,40.517357,-3.408457,621.4,3,5,325.9,0.0
22.23,1,0.012,-0.007,-0.01,0.006,-0.015,-0.005,-1.541,-0.025,0.074,21.37,68.4,40.517357,-3.408457,621.4,3,5,325.9,0.0
22.33,1,0.019,-0.011,0.022,0.035,-0.008,0.008,-1.54,-0.023,0.074,21.37,68.4,40.517357,-3.408457,621.4,3,5,325.9,0.0
22.43,1,-0.02,-0.009,0.022,-0.022,-0.016,0.012,-1.54,-0.02,0.075,22.36,68.2,40.517494,-3.408591,620.7,3,5,324.8,1.055
22.53,1,-0.026,0.037,0.008,0.0,0.016,0.017,-1.54,-0.017,0.076,22.36,68.2,40.517494,-3.408591,620.7,3,5,324.8,1.055
22.64,1,-0.03,0.028,0.022,-0.033,0.024,0.012,-1.54,-0.013,0.076,22.36,68.2,40.517494,-3.408591,620.7,3,5,324.8,1.055
22.75,1,-0.002,0.004,0.026,-0.01,0.012,0.027,-1.544,-0.011,0.077,22.36,68.2,40.517494,-3.408591,620.7,3,5,324.8,1.055
22.84,1,-0.062,0.019,-0.007,-0.037,0.009,0.008,-1.546,-0.014,0.078,22.36,68.2,40.517494,-3.408591,620.7,3,5,324.8,1.055
22.94,1,0.016,-0.045,0.022,-0.026,-0.012,0.004,-1.549,-0.019,0.078,22.36,68.2,40.517494,-3.408591,620.7,3,5,324.8,1.055
23.04,1,0.009,0.028,0.002,0.02,-0.005,0.018,-1.549,-0.019,0.079,22.36,68.2,40.517494,-3.408591,620.7,3,5,324.8,1.055
23.14,1,0.019,-0.02,-0.019,0.002,0.004,-0.008,-1.547,-0.02,0.079,22.36,68.2,40.517494,-3.408591,620.7,3,5,324.8,1.055
23.24,1,-0.005,0.012,0.019,0.005,-0.001,0.005,-1.548,-0.02,0.08,22.36,68.2,40.517494,-3.408591,620.7,3,5,324.8,1.055
23.34,1,-0.026,0.008,-0.015,-0.008,0.01,0.002,-1.548,-0.02,0.08,22.36,68.2,40.517494,-3.408591,620.7,3,5,324.8,1.055
23.44,1,-0.018,0.025,-0.016,-0.019,0.02,-0.012,-1.549,-0.02,0.08,23.36,67.8,40.517635,-3.408721,620.7,3,5,325.2,0.703
23.54,1,0.026,-0.002,0.04,0.003,0.007,0.011,-1.55,-0.02,0.079,23.36,67.8,40.517635,-3.408721,620.7,3,5,325.2,0.703
23.64,1,-0.036,0.033,0.004,-0.014,0.02,0.013,-1.55,-0.02,0.08,23.36,67.8,40.517635,-3.408721,620.7,3,5,325.2,0.703
23.74,1,0.011,0.01,0.01,-0.006,0.016,0.01,-1.55,-0.02,0.079,23.36,67.8,40.517635,-3.408721,620.7,3,5,325.2,0.703
23.84,1,0.003,0.038,0.036,0.003,0.021,0.021,-1.55,-0.019,0.079,23.36,67.8,40.517635,-3.408721,620.7,3,5,325.2,0.703
23.94,1,0.006,-0.027,0.003,0.005,0.009,0.017,-1.548,-0.019,0.078,23.36,67.8,40.517635,-3.408721,620.7,3,5,325.2,0.703
24.04,1,-0.008,0.047,0.013,0.001,0.003,0.007,-1.548,-0.019,0.078,23.36,67.8,40.517635,-3.408721,620.7,3,5,325.2,0.703
24.14,1,0.014,0.022,0.044,0.003,0.04,0.027,-1.548,-0.019,0.078,23.36,67.8,40.517635,-3.408721,620.7,3,5,325.2,0.703
24.24,1,-0.007,-0.006,-0.011,0.006,-0.004,0.017,-1.546,-0.02,0.078,23.36,67.8,40.517635,-3.408721,620.7,3,5,325.2,0.703
24.34,1,0.008,0.028,0.015,-0.015,0.03,0.006,-1.546,-0.019,0.078,23.36,67.8,40.517635,-3.408721,620.7,3,5,325.2,0.703
24.45,1,0.013,0.034,0.032,0.019,0.019,0.023,-1.547,-0.017,0.079,24.39,67.9,40.517765,-3.408847,620.9,3,5,324.8,0.352
24.55,1,0.002,-0.068,0.008,0.011,-0.014,0.02,-1.547,-0.015,0.08,24.39,67.9,40.517765,-3.408847,620.9,3,5,324.8,0.352
24.64,1,0.07,0.02,0.039,0.025,-0.009,0.02,-1.548,-0.014,0.081,24.39,67.9,40.517765,-3.408847,620.9,3,5,324.8,0.352
24.74,1,-0.031,-0.011,0.02,0.014,-0.005,0.026,-1.549,-0.013,0.081,24.39,67.9,40.517765,-3.408847,620.9,3,5,324.8,0.352
24.84,1,-0.001,0.044,0.035,0.002,0.014,0.033,-1.549,-0.019,0.081,24.39,67.9,40.517765,-3.408847,620.9,3,5,324.8,0.352
24.94,1,0.012,-0.025,-0.006,0.005,0.011,0.013,-1.548,-0.027,0.081,24.39,67.9,40.517765,-3.408847,620.9,3,5,324.8,0.352
25.05,1,-0.049,0.007,0.015,-0.014,-0.004,0.01,-1.549,-0.023,0.082,24.39,67.9,40.517765,-3.408847,620.9,3,5,324.8,0.352
25.14,1,0.02,-0.043,0.005,-0.005,-0.018,0.013,-1.549,-0.025,0.082,24.39,67.9,40.517765,-3.408847,620.9,3,5,324.8,0.352
25.25,1,-0.025,-0.001,0.002,-0.008,-0.024,0.002,-1.55,-0.018,0.081,24.39,67.9,40.517765,-3.408847,620.9,3,5,324.8,0.352
25.35,1,0.009,0.003,0.029,-0.016,0.004,0.011,-1.551,-0.017,0.082,24.39,67.9,40.517765,-3.408847,620.9,3,5,324.8,0.352
25.45,1,-0.014,0.015,0.015,0.002,0.012,0.025,-1.55,-0.015,0.082,25.44,66.1,40.517902,-3.408976,621.0,3,5,325.2,0.352
25.55,1,-0.009,0.012,0.007,-0.008,0.01,0.008,-1.551,-0.01,0.082,25.44,66.1,40.517902,-3.408976,621.0,3,5,325.2,0.352
25.65,1,0.007,-0.001,0.013,-0.006,0.003,0.016,-1.554,-0.004,0.083,25.44,66.1,40.517902,-3.408976,621.0,3,5,325.2,0.352
25.75,1,-0.01,0.042,0.007,0.005,0.012,0.009,-1.555,0.004,0.083,25.44,66.1,40.517902,-3.408976,621.0,3,5,325.2,0.352
25.85,1,0.004,0.098,-0.004,-0.013,0.06,0.002,-1.554,0.007,0.083,25.44,66.1,40.517902,-3.408976,621.0,3,5,325.2,0.352
25.95,1,-0.048,0.014,0.006,-0.012,0.049,0.002,-1.555,0.011,0.083,25.44,66.1,40.517902,-3.408976,621.0,3,5,325.2,0.352
26.05,1,-0.016,0.0,0.02,-0.03,0.018,0.013,-1.556,0.013,0.082,25.44,66.1,40.517902,-3.408976,621.0,3,5,325.2,0.352
26.15,1,-0.053,0.005,-0.022,-0.03,0.012,-0.001,-1.556,0.009,0.082,25.44,66.1,40.517902,-3.408976,621.0,3,5,325.2,0.352
26.26,1,-0.003,0.012,0.011,-0.035,0.004,-0.006,-1.557,0.01,0.082,25.44,66.1,40.517902,-3.408976,621.0,3,5,325.2,0.352
26.35,1,0.002,0.047,0.012,-0.006,0.028,0.01,-1.562,0.006,0.082,25.44,66.1,40.517902,-3.408976,621.0,3,5,325.2,0.352
26.55,1,-0.044,0.043,-0.014,-0.012,0.037,-0.0,-1.558,0.002,0.082,26.37,68.2,40.518024,-3.4091,621.3,3,5,324.5,0.703
26.65,1,0.041,-0.048,0.017,-0.005,-0.002,0.001,-1.556,-0.004,0.082,26.37,68.2,40.518024,-3.4091,621.3,3,5,324.5,0.703
26.75,1,0.008,0.014,0.005,0.016,-0.012,0.008,-1.556,-0.002,0.081,26.37,68.2,40.518024,-3.4091,621.3,3,5,324.5,0.703
26.85,1,0.008,0.01,0.031,-0.005,0.021,0.011,-1.556,0.0,0.081,26.37,68.2,40.518024,-3.4091,621.3,3,5,324.5,0.703
26.95,1,0.011,-0.018,0.007,0.017,-0.009,0.02,-1.556,0.003,0.082,26.37,68.2,40.518024,-3.4091,621.3,3,5,324.5,0.703
27.05,1,-0.047,-0.001,-0.005,-0.031,0.006,-0.003,-1.556,0.006,0.083,26.37,68.2,40.518024,-3.4091,621.3,3,5,324.5,0.703
27.15,1,0.033,-0.05,0.038,0.013,-0.031,0.022,-1.556,0.008,0.084,26.37,68.2,40.518024,-3.4091,621.3,3,5,324.5,0.703
27.26,1,0.004,-0.029,-0.006,0.012,-0.035,0.014,-1.555,0.009,0.084,26.37,68.2,40.518024,-3.4091,621.3,3,5,324.5,0.703
27.36,1,-0.018,-0.004,-0.016,-0.006,-0.016,-0.004,-1.554,0.009,0.085,26.37,68.2,40.518024,-3.4091,621.3,3,5,324.5,0.703
27.46,1,-0.014,-0.009,-0.008,-0.005,-0.013,-0.005,-1.554,0.009,0.086,26.37,68.2,40.518024,-3.4091,621.3,3,5,324.5,0.703
27.55,1,-0.043,-0.005,-0.007,-0.021,-0.013,-0.008,-1.554,0.009,0.087,27.41,69.0,40.518169,-3.409222,621.1,3,5,325.2,0.703
27.66,1,0.04,-0.034,0.02,0.006,-0.026,0.006,-1.555,0.011,0.087,27.41,69.0,40.518169,-3.409222,621.1,3,5,325.2,0.703
27.76,1,-0.058,0.046,-0.002,-0.034,0.022,-0.004,-1.554,0.02,0.088,27.41,69.0,40.518169,-3.409222,621.1,3,5,325.2,0.703
27.86,1,0.002,-0.014,0.013,-0.002,-0.012,0.016,-1.555,0.021,0.089,27.41,69.0,40.518169,-3.409222,621.1,3,5,325.2,0.703
27.96,1,-0.037,0.01,0.01,-0.035,0.017,0.007,-1.555,0.023,0.09,27.41,69.0,40.518169,-3.409222,621.1,3,5,325.2,0.703
28.06,1,-0.01,-0.019,-0.005,-0.002,-0.016,0.005,-1.554,0.024,0.09,27.41,69.0,40.518169,-3.409222,621.1,3,5,325.2,0.703
28.16,1,-0.077,0.015,-0.026,-0.048,0.005,-0.01,-1.553,0.024,0.091,27.41,69.0,40.518169,-3.409222,621.1,3,5,325.2,0.703
28.26,1,-0.063,0.033,-0.022,-0.052,0.013,-0.02,-1.551,0.023,0.091,27.41,69.0,40.518169,-3.409222,621.1,3,5,325.2,0.703
28.37,1,0.065,-0.032,0.014,-0.021,0.008,-0.009,-1.552,0.023,0.092,27.41,69.0,40.518169,-3.409222,621.1,3,5,325.2,0.703
28.46,1,-0.052,0.016,-0.004,-0.003,-0.006,0.003,-1.552,0.022,0.093,27.41,69.0,40.518169,-3.409222,621.1,3,5,325.2,0.703
28.56,1,0.026,-0.027,-0.004,-0.018,-0.0,-0.008,-1.551,0.019,0.093,28.39,68.8,40.518311,-3.409349,621.3,3,5,324.5,0.703
28.66,1,0.044,-0.05,0.017,0.023,-0.027,0.005,-1.552,0.019,0.093,28.39,68.8,40.518311,-3.409349,621.3,3,5,324.5,0.703
28.76,1,-0.021,0.001,-0.023,0.002,-0.023,-0.001,-1.552,0.017,0.094,28.39,68.8,40.518311,-3.409349,621.3,3,5,324.5,0.703
28.86,1,0.016,0.008,-0.004,0.024,-0.009,-0.009,-1.552,0.019,0.094,28.39,68.8,40.518311,-3.409349,621.3,3,5,324.5,0.703
28.98,1,-0.05,0.05,-0.04,-0.022,0.029,-0.019,-1.55,0.021,0.094,28.39,68.8,40.518311,-3.409349,621.3,3,5,324.5,0.703
29.06,1,-0.029,-0.037,-0.031,-0.022,0.001,-0.03,-1.548,0.029,0.095,28.39,68.8,40.518311,-3.409349,621.3,3,5,324.5,0.703
29.16,1,-0.051,0.007,-0.013,-0.039,-0.005,-0.025,-1.547,0.034,0.094,28.39,68.8,40.518311,-3.409349,621.3,3,5,324.5,0.703
29.27,1,-0.033,0.003,0.003,-0.044,0.005,-0.007,-1.547,0.035,0.094,28.39,68.8,40.518311,-3.409349,621.3,3,5,324.5,0.703
29.36,1,0.015,0.011,-0.023,-0.014,-0.001,-0.014,-1.545,0.036,0.094,28.39,68.8,40.518311,-3.409349,621.3,3,5,324.5,0.703
29.46,1,-0.008,0.037,-0.017,-0.012,0.02,-0.02,-1.541,0.028,0.093,28.39,68.8,40.518311,-3.409349,621.3,3,5,324.5,0.703
29.56,1,-0.001,0.037,-0.002,0.004,0.031,-0.01,-1.541,0.026,0.092,29.41,69.4,40.518459,-3.409487,621.6,3,5,324.1,1.055
29.67,1,0.005,0.034,0.009,-0.007,0.034,-0.001,-1.539,0.02,0.092,29.41,69.4,40.518459,-3.409487,621.6,3,5,324.1,1.055
29.76,1,-0.045,0.052,-0.002,-0.015,0.033,0.003,-1.54,0.016,0.091,29.41,69.4,40.518459,-3.409487,621.6,3,5,324.1,1.055
29.87,1,0.03,0.005,0.031,-0.012,0.039,0.01,-1.541,0.013,0.09,29.41,69.4,40.518459,-3.409487,621.6,3,5,324.1,1.055
29.97,1,-0.0,0.008,0.025,0.02,0.011,0.028,-1.544,0.013,0.089,29.41,69.4,40.518459,-3.409487,621.6,3,5,324.1,1.055
30.06,1,-0.006,-0.048,0.007,-0.009,-0.009,0.013,-1.543,0.017,0.088,29.41,69.4,40.518459,-3.409487,621.6,3,5,324.1,1.055
30.17,1,-0.041,0.061,0.002,-0.014,0.004,0.009,-1.543,0.02,0.088,29.41,69.4,40.518459,-3.409487,621.6,3,5,324.1,1.055
30.27,1,-0.027,0.0,0.002,-0.028,0.018,0.002,-1.544,0.021,0.087,29.41,69.4,40.518459,-3.409487,621.6,3,5,324.1,1.055
30.37,1,-0.016,0.011,0.029,-0.022,0.014,0.013,-1.546,0.02,0.086,29.41,69.4,40.518459,-3.409487,621.6,3,5,324.1,1.055
30.47,1,0.046,-0.009,0.029,-0.007,0.012,0.023,-1.544,0.016,0.085,29.41,69.4,40.518459,-3.409487,621.6,3,5,324.1,1.055
30.57,1,-0.003,-0.008,-0.021,0.016,-0.014,0.006,-1.541,0.007,0.084,30.36,69.5,40.518604,-3.409623,622.0,3,5,324.5,0.352
30.68,1,-0.002,0.042,0.001,0.003,0.012,-0.003,-1.542,0.007,0.084,30.36,69.5,40.518604,-3.409623,622.0,3,5,324.5,0.352
30.77,1,0.061,-0.018,0.021,0.026,0.007,0.011,-1.543,0.007,0.083,30.36,69.5,40.518604,-3.409623,622.0,3,5,324.5,0.352
30.88,1,-0.034,0.065,0.022,0.012,0.02,0.014,-1.545,0.0,0.082,30.36,69.5,40.518604,-3.409623,622.0,3,5,324.5,0.352
30.97,1,-0.028,-0.002,0.003,-0.021,0.041,0.015,-1.545,-0.001,0.082,30.36,69.5,40.518604,-3.409623,622.0,3,5,324.5,0.352
31.07,1,0.02,-0.061,0.027,0.002,-0.026,0.015,-1.544,-0.0,0.081,30.36,69.5,40.518604,-3.409623,622.0,3,5,324.5,0.352
31.17,1,-0.062,-0.001,-0.006,-0.01,-0.025,0.01,-1.544,0.002,0.08,30.36,69.5,40.518604,-3.409623,622.0,3,5,324.5,0.352
31.28,1,-0.011,-0.037,0.033,-0.031,-0.028,0.014,-1.546,0.004,0.08,30.36,69.5,40.518604,-3.409623,622.0,3,5,324.5,0.352
31.38,1,-0.055,0.016,0.006,-0.033,-0.008,0.018,-1.547,0.005,0.079,30.36,69.5,40.518604,-3.409623,622.0,3,5,324.5,0.352
31.47,1,0.065,-0.006,0.037,-0.007,0.007,0.019,-1.548,0.006,0.079,30.36,69.5,40.518604,-3.409623,622.0,3,5,324.5,0.352
31.57,1,-0.002,0.007,0.021,0.031,-0.013,0.03,-1.546,0.008,0.078,31.36,69.1,40.518745,-3.40975,622.0,3,5,324.5,0.352
31.67,1,0.02,-0.05,-0.015,-0.014,-0.002,0.007,-1.545,0.01,0.079,31.36,69.1,40.518745,-3.40975,622.0,3,5,324.5,0.352
31.77,1,0.02,-0.004,0.011,0.036,-0.034,-0.001,-1.546,0.01,0.078,31.36,69.1,40.518745,-3.40975,622.0,3,5,324.5,0.352
31.89,1,0.053,0.021,0.064,0.027,0.011,0.035,-1.545,0.01,0.079,31.36,69.1,40.518745,-3.40975,622.0,3,5,324.5,0.352
31.97,1,-0.022,-0.009,-0.026,0.026,-0.005,0.015,-1.542,0.008,0.079,31.36,69.1,40.518745,-3.40975,622.0,3,5,324.5,0.352
32.08,1,0.045,0.012,0.057,0.007,0.01,0.018,-1.545,0.017,0.079,31.36,69.1,40.518745,-3.40975,622.0,3,5,324.5,0.352
32.17,1,-0.058,-0.07,-0.007,0.003,-0.027,0.026,-1.544,0.018,0.08,31.36,69.1,40.518745,-3.40975,622.0,3,5,324.5,0.352
32.27,1,-0.027,-0.015,0.008,-0.045,-0.025,0.003,-1.545,0.018,0.082,31.36,69.1,40.518745,-3.40975,622.0,3,5,324.5,0.352
32.37,1,0.018,-0.051,0.048,-0.006,-0.035,0.025,-1.55,0.024,0.084,31.36,69.1,40.518745,-3.40975,622.0,3,5,324.5,0.352
32.48,1,-0.048,-0.065,0.007,-0.01,-0.061,0.025,-1.556,0.02,0.086,31.36,69.1,40.518745,-3.40975,622.0,3,5,324.5,0.352
32.58,1,0.06,-0.03,-0.003,-0.0,-0.045,0.01,-1.552,0.019,0.089,32.36,69.5,40.518894,-3.409885,622.1,3,5,325.2,0.703
32.68,1,-0.06,0.005,0.004,-0.009,-0.024,0.003,-1.551,0.018,0.091,32.36,69.5,40.518894,-3.409885,622.1,3,5,325.2,0.703
32.78,1,0.007,-0.035,0.018,-0.012,-0.021,0.01,-1.552,0.02,0.093,32.36,69.5,40.518894,-3.409885,622.1,3,5,325.2,0.703
32.88,1,-0.047,-0.032,0.024,-0.037,-0.026,0.011,-1.554,0.023,0.095,32.36,69.5,40.518894,-3.409885,622.1,3,5,325.2,0.703
32.98,1,-0.053,-0.033,-0.011,-0.033,-0.032,0.008,-1.554,0.026,0.097,32.36,69.5,40.518894,-3.409885,622.1,3,5,325.2,0.703
33.09,1,0.015,-0.039,0.007,-0.016,-0.033,0.004,-1.557,0.03,0.099,32.36,69.5,40.518894,-3.409885,622.1,3,5,325.2,0.703
33.19,1,-0.042,-0.035,-0.012,-0.025,-0.035,0.001,-1.557,0.029,0.1,32.36,69.5,40.518894,-3.409885,622.1,3,5,325.2,0.703
33.28,1,-0.037,0.064,-0.03,-0.01,-0.002,-0.015,-1.557,0.034,0.1,32.36,69.5,40.518894,-3.409885,622.1,3,5,325.2,0.703
33.38,1,-0.021,0.046,0.036,-0.045,0.043,-0.003,-1.56,0.035,0.1,32.36,69.5,40.518894,-3.409885,622.1,3,5,325.2,0.703
33.48,1,0.021,0.024,0.037,0.006,0.025,0.035,-1.56,0.034,0.099,32.36,69.5,40.518894,-3.409885,622.1,3,5,325.2,0.703
33.58,1,-0.055,0.03,-0.046,-0.05,0.037,-0.011,-1.556,0.039,0.099,33.36,68.2,40.519005,-3.410006,622.5,3,5,324.5,0.703
33.68,1,0.106,-0.004,0.05,0.032,0.014,0.011,-1.559,0.049,0.098,33.36,68.2,40.519005,-3.410006,622.5,3,5,324.5,0.703
33.79,1,-0.02,0.066,-0.008,0.027,0.03,0.011,-1.558,0.047,0.097,33.36,68.2,40.519005,-3.410006,622.5,3,5,324.5,0.703
33.88,1,0.016,0.057,-0.014,0.03,0.043,-0.003,-1.558,0.046,0.096,33.36,68.2,40.519005,-3.410006,622.5,3,5,324.5,0.703
33.98,1,0.008,0.062,0.014,-0.007,0.072,-0.001,-1.558,0.039,0.095,33.36,68.2,40.519005,-3.410006,622.5,3,5,324.5,0.703
34.08,1,0.009,0.088,0.005,0.016,0.066,0.007,-1.557,0.029,0.093,33.36,68.2,40.519005,-3.410006,622.5,3,5,324.5,0.703
34.18,1,-0.078,0.079,-0.048,-0.031,0.082,-0.014,-1.554,0.025,0.093,33.36,68.2,40.519005,-3.410006,622.5,3,5,324.5,0.703
34.28,1,0.048,0.019,0.02,-0.017,0.053,-0.014,-1.553,0.02,0.091,33.36,68.2,40.519005,-3.410006,622.5,3,5,324.5,0.703
34.38,1,-0.045,0.078,0.038,-0.001,0.051,0.022,-1.556,0.013,0.09,33.36,68.2,40.519005,-3.410006,622.5,3,5,324.5,0.703
34.48,1,-0.003,-0.022,-0.008,-0.022,0.035,0.01,-1.556,0.005,0.089,33.36,68.2,40.519005,-3.410006,622.5,3,5,324.5,0.703
34.59,1,-0.063,0.014,0.001,-0.038,0.015,-0.001,-1.558,0.004,0.087,34.36,70.9,40.519146,-3.410138,622.6,3,5,324.1,1.055
34.69,1,0.039,-0.033,0.043,-0.003,-0.011,0.019,-1.558,0.002,0.087,34.36,70.9,40.519146,-3.410138,622.6,3,5,324.1,1.055
34.78,1,-0.039,0.042,-0.013,-0.006,0.004,0.013,-1.557,0.002,0.086,34.36,70.9,40.519146,-3.410138,622.6,3,5,324.1,1.055
34.88,1,-0.021,0.021,-0.016,-0.025,0.025,-0.008,-1.556,0.002,0.085,34.36,70.9,40.519146,-3.410138,622.6,3,5,324.1,1.055
35.0,1,-0.007,0.031,0.014,-0.007,0.019,0.0,-1.554,0.002,0.085,34.36,70.9,40.519146,-3.410138,622.6,3,5,324.1,1.055
35.09,1,0.023,0.029,0.012,0.007,0.025,0.012,-1.554,0.0,0.084,34.36,70.9,40.519146,-3.410138,622.6,3,5,324.1,1.055
35.19,1,0.072,-0.04,0.004,0.035,0.0,0.006,-1.552,0.001,0.083,34.36,70.9,40.519146,-3.410138,622.6,3,5,324.1,1.055
35.29,1,-0.067,0.036,-0.011,-0.005,0.007,-0.001,-1.552,0.002,0.083,34.36,70.9,40.519146,-3.410138,622.6,3,5,324.1,1.055
35.39,1,-0.011,-0.059,0.01,-0.01,-0.019,0.004,-1.554,0.002,0.082,34.36,70.9,40.519146,-3.410138,622.6,3,5,324.1,1.055
35.49,1,-0.01,0.016,0.004,-0.028,-0.011,0.002,-1.556,0.001,0.082,34.36,70.9,40.519146,-3.410138,622.6,3,5,324.1,1.055
35.59,1,-0.051,0.004,0.005,-0.018,0.003,0.007,-1.556,0.001,0.081,35.36,69.9,40.519295,-3.410269,622.8,3,5,324.5,0.352
35.69,1,-0.03,0.033,0.009,-0.041,0.02,0.0,-1.556,-0.006,0.081,35.36,69.9,40.519295,-3.410269,622.8,3,5,324.5,0.352
35.79,1,-0.027,-0.013,0.005,-0.028,0.007,0.006,-1.556,-0.009,0.08,35.36,69.9,40.519295,-3.410269,622.8,3,5,324.5,0.352
35.89,1,0.025,0.016,0.035,-0.011,0.01,0.018,-1.556,-0.007,0.08,35.36,69.9,40.519295,-3.410269,622.8,3,5,324.5,0.352
35.99,1,-0.004,-0.029,-0.003,0.001,-0.012,0.016,-1.554,-0.007,0.079,35.36,69.9,40.519295,-3.410269,622.8,3,5,324.5,0.352
36.09,1,-0.004,-0.002,-0.016,0.001,-0.009,-0.001,-1.554,-0.001,0.079,35.36,69.9,40.519295,-3.410269,622.8,3,5,324.5,0.352
36.19,1,-0.033,-0.08,-0.001,-0.012,-0.03,-0.007,-1.554,-0.002,0.08,35.36,69.9,40.519295,-3.410269,622.8,3,5,324.5,0.352
36.29,1,-0.07,-0.058,-0.002,-0.043,-0.06,-0.002,-1.555,-0.001,0.08,35.36,69.9,40.519295,-3.410269,622.8,3,5,324.5,0.352
36.5,1,-0.016,-0.009,0.02,-0.02,-0.025,0.011,-1.556,-0.001,0.08,35.36,69.9,40.519295,-3.410269,622.8,3,5,324.5,0.352
36.59,1,-0.024,0.009,0.002,-0.013,-0.011,0.01,-1.556,0.001,0.081,35.36,69.9,40.519295,-3.410269,622.8,3,5,324.5,0.352
36.69,1,0.039,-0.011,0.015,0.001,-0.005,0.011,-1.555,0.005,0.082,36.36,70.6,40.519436,-3.410403,623.1,3,5,324.8,0.703
36.8,1,-0.004,-0.023,-0.001,-0.004,-0.016,0.004,-1.555,0.003,0.083,36.36,70.6,40.519436,-3.410403,623.1,3,5,324.8,0.703
36.89,1,-0.054,-0.028,-0.021,-0.013,-0.017,-0.001,-1.556,-0.002,0.083,36.36,70.6,40.519436,-3.410403,623.1,3,5,324.8,0.703
36.99,1,0.008,-0.077,0.003,-0.018,-0.043,-0.011,-1.556,-0.006,0.084,36.36,70.6,40.519436,-3.410403,623.1,3,5,324.8,0.703
37.09,1,-0.007,-0.005,0.033,-0.008,-0.035,0.012,-1.558,-0.007,0.084,36.36,70.6,40.519436,-3.410403,623.1,3,5,324.8,0.703
37.19,1,0.001,-0.016,-0.002,0.003,-0.029,0.016,-1.557,-0.009,0.084,36.36,70.6,40.519436,-3.410403,623.1,3,5,324.8,0.703
37.3,1,-0.021,-0.017,-0.013,-0.012,-0.014,-0.0,-1.557,-0.005,0.084,36.36,70.6,40.519436,-3.410403,623.1,3,5,324.8,0.703
37.4,1,0.003,0.012,0.0,0.002,-0.013,-0.007,-1.559,-0.005,0.084,36.36,70.6,40.519436,-3.410403,623.1,3,5,324.8,0.703
37.5,1,-0.001,-0.015,0.009,-0.011,0.004,0.004,-1.562,-0.005,0.085,36.36,70.6,40.519436,-3.410403,623.1,3,5,324.8,0.703
37.6,1,-0.019,0.007,0.002,-0.009,-0.006,0.003,-1.563,-0.002,0.085,36.36,70.6,40.519436,-3.410403,623.1,3,5,324.8,0.703
37.7,1,-0.057,-0.004,-0.026,-0.041,0.005,-0.012,-1.561,0.0,0.085,37.39,70.6,40.519581,-3.410536,623.1,3,5,324.8,0.352
37.81,1,0.012,-0.01,0.026,-0.01,-0.013,0.004,-1.564,-0.004,0.084,37.39,70.6,40.519581,-3.410536,623.1,3,5,324.8,0.352
37.9,1,0.016,-0.018,0.009,0.002,-0.013,0.015,-1.568,-0.004,0.084,37.39,70.6,40.519581,-3.410536,623.1,3,5,324.8,0.352
38.0,1,-0.059,0.041,-0.041,-0.018,0.008,-0.012,-1.567,-0.006,0.083,37.39,70.6,40.519581,-3.410536,623.1,3,5,324.8,0.352
38.1,1,-0.0,0.041,0.019,-0.025,0.04,-0.006,-1.565,-0.004,0.083,37.39,70.6,40.519581,-3.410536,623.1,3,5,324.8,0.352
38.2,1,-0.028,-0.032,-0.032,-0.006,0.006,-0.008,-1.563,-0.004,0.083,37.39,70.6,40.519581,-3.410536,623.1,3,5,324.8,0.352
38.3,1,0.01,-0.066,-0.015,-0.023,-0.033,-0.019,-1.562,-0.004,0.083,37.39,70.6,40.519581,-3.410536,623.1,3,5,324.8,0.352
38.41,1,-0.007,0.006,-0.017,0.002,-0.037,-0.015,-1.562,-0.005,0.082,37.39,70.6,40.519581,-3.410536,623.1,3,5,324.8,0.352
38.51,1,-0.002,0.027,0.011,-0.003,0.017,-0.011,-1.564,-0.006,0.082,37.39,70.6,40.519581,-3.410536,623.1,3,5,324.8,0.352
38.6,1,-0.019,0.01,0.028,-0.014,0.009,0.013,-1.565,-0.006,0.081,37.39,70.6,40.519581,-3.410536,623.1,3,5,324.8,0.352
38.7,1,-0.014,0.042,-0.003,-0.013,0.02,0.012,-1.564,-0.006,0.081,38.4,73.6,40.519737,-3.410683,623.6,3,5,323.8,1.055
38.8,1,0.036,-0.013,-0.012,0.009,0.008,-0.002,-1.562,-0.007,0.081,38.4,73.6,40.519737,-3.410683,623.6,3,5,323.8,1.055
38.91,1,-0.042,0.009,-0.047,-0.003,-0.0,-0.021,-1.561,-0.008,0.08,38.4,73.6,40.519737,-3.410683,623.6,3,5,323.8,1.055
39.0,1,0.012,0.007,0.006,-0.01,0.012,-0.022,-1.563,-0.009,0.08,38.4,73.6,40.519737,-3.410683,623.6,3,5,323.8,1.055
39.1,1,0.006,0.035,0.014,0.0,0.024,0.005,-1.568,-0.011,0.079,38.4,73.6,40.519737,-3.410683,623.6,3,5,323.8,1.055
39.2,1,-0.019,-0.028,-0.03,-0.001,0.006,-0.008,-1.566,-0.011,0.079,38.4,73.6,40.519737,-3.410683,623.6,3,5,323.8,1.055
39.3,1,0.016,0.015,-0.032,-0.001,0.0,-0.027,-1.566,-0.011,0.078,38.4,73.6,40.519737,-3.410683,623.6,3,5,323.8,1.055
39.41,1,0.002,0.014,0.005,0.002,0.005,-0.015,-1.567,-0.013,0.078,38.4,73.6,40.519737,-3.410683,623.6,3,5,323.8,1.055
39.51,1,0.006,0.015,0.006,0.006,0.019,0.003,-1.567,-0.012,0.077,38.4,73.6,40.519737,-3.410683,623.6,3,5,323.8,1.055
39.62,1,-0.04,-0.023,-0.044,-0.013,-0.007,-0.018,-1.567,-0.014,0.077,38.4,73.6,40.519737,-3.410683,623.6,3,5,323.8,1.055
39.72,1,0.011,0.013,-0.008,-0.018,0.004,-0.025,-1.569,-0.013,0.077,39.37,70.3,40.519878,-3.410823,623.8,3,5,324.1,0.703
39.83,1,0.014,-0.024,0.02,0.015,-0.004,0.005,-1.571,-0.01,0.077,39.37,70.3,40.519878,-3.410823,623.8,3,5,324.1,0.703
39.91,1,-0.041,0.005,-0.05,-0.004,-0.006,-0.016,-1.568,-0.011,0.077,39.37,70.3,40.519878,-3.410823,623.8,3,5,324.1,0.703
40.01,1,-0.011,0.03,-0.002,-0.019,0.005,-0.02,-1.566,-0.01,0.077,39.37,70.3,40.519878,-3.410823,623.8,3,5,324.1,0.703
40.11,1,0.048,-0.054,0.006,0.004,-0.014,-0.004,-1.569,-0.01,0.077,39.37,70.3,40.519878,-3.410823,623.8,3,5,324.1,0.703
40.21,1,-0.028,0.004,-0.023,-0.0,-0.013,-0.014,-1.566,-0.008,0.077,39.37,70.3,40.519878,-3.410823,623.8,3,5,324.1,0.703
40.31,1,0.033,0.003,0.002,0.009,-0.003,-0.005,-1.566,-0.007,0.077,39.37,70.3,40.519878,-3.410823,623.8,3,5,324.1,0.703
40.41,1,0.008,-0.029,0.004,0.002,-0.013,-0.005,-1.566,-0.002,0.078,39.37,70.3,40.519878,-3.410823,623.8,3,5,324.1,0.703
40.51,1,0.003,-0.034,-0.029,0.021,-0.026,-0.002,-1.565,0.006,0.078,39.37,70.3,40.519878,-3.410823,623.8,3,5,324.1,0.703
40.62,1,-0.04,-0.036,-0.033,-0.018,-0.03,-0.032,-1.563,0.004,0.078,39.37,70.3,40.519878,-3.410823,623.8,3,5,324.1,0.703
40.71,1,0.033,-0.004,0.034,-0.006,-0.028,-0.001,-1.564,0.003,0.078,40.38,69.8,40.52002,-3.410966,624.4,3,5,324.5,0.703
40.82,1,0.015,0.022,-0.008,0.025,0.001,0.008,-1.562,0.001,0.078,40.38,69.8,40.52002,-3.410966,624.4,3,5,324.5,0.703
40.91,1,0.08,0.003,0.015,0.034,0.013,0.0,-1.561,0.0,0.078,40.38,69.8,40.52002,-3.410966,624.4,3,5,324.5,0.703
41.01,1,-0.043,0.027,-0.036,0.021,0.014,-0.005,-1.56,-0.0,0.078,40.38,69.8,40.52002,-3.410966,624.4,3,5,324.5,0.703
41.11,1,0.007,-0.012,0.002,-0.004,0.006,-0.015,-1.56,0.006,0.078,40.38,69.8,40.52002,-3.410966,624.4,3,5,324.5,0.703
41.22,1,0.019,-0.0,-0.008,0.011,0.001,-0.002,-1.56,0.006,0.078,40.38,69.8,40.52002,-3.410966,624.4,3,5,324.5,0.703
41.32,1,-0.05,0.032,-0.02,-0.012,0.01,-0.014,-1.56,0.007,0.079,40.38,69.8,40.52002,-3.410966,624.4,3,5,324.5,0.703
41.41,1,-0.019,0.027,0.021,-0.018,0.038,0.003,-1.561,0.011,0.079,40.38,69.8,40.52002,-3.410966,624.4,3,5,324.5,0.703
41.51,1,-0.042,-0.049,0.004,-0.032,-0.015,0.004,-1.563,0.011,0.079,40.38,69.8,40.52002,-3.410966,624.4,3,5,324.5,0.703
41.61,1,-0.069,0.02,-0.004,-0.048,-0.004,0.003,-1.563,0.01,0.079,40.38,69.8,40.52002,-3.410966,624.4,3,5,324.5,0.703
41.71,1,-0.084,-0.037,-0.037,-0.077,-0.016,-0.022,-1.564,0.011,0.078,41.38,70.4,40.520176,-3.411093,624.5,3,5,324.5,0.352
41.81,1,0.003,0.035,0.047,-0.036,-0.001,0.009,-1.565,0.01,0.079,41.38,70.4,40.520176,-3.411093,624.5,3,5,324.5,0.352
41.91,1,0.025,-0.008,-0.021,-0.002,0.005,0.007,-1.561,0.011,0.078,41.38,70.4,40.520176,-3.411093,624.5,3,5,324.5,0.352
42.01,1,-0.038,-0.022,-0.1,-0.018,-0.015,-0.043,-1.558,0.013,0.078,41.38,70.4,40.520176,-3.411093,624.5,3,5,324.5,0.352
42.12,1,0.033,0.038,0.009,-0.004,0.014,-0.047,-1.563,0.015,0.079,41.38,70.4,40.520176,-3.411093,624.5,3,5,324.5,0.352
42.22,1,-0.024,0.031,0.041,-0.008,0.035,0.011,-1.567,0.015,0.079,41.38,70.4,40.520176,-3.411093,624.5,3,5,324.5,0.352
42.32,1,0.036,-0.005,0.022,0.016,0.004,0.022,-1.564,0.015,0.079,41.38,70.4,40.520176,-3.411093,624.5,3,5,324.5,0.352
42.42,1,0.053,0.01,-0.025,0.038,0.003,0.007,-1.558,0.015,0.079,41.38,70.4,40.520176,-3.411093,624.5,3,5,324.5,0.352
42.52,1,0.011,0.029,-0.047,0.025,0.023,-0.028,-1.556,0.015,0.079,41.38,70.4,40.520176,-3.411093,624.5,3,5,324.5,0.352
42.62,1,0.041,0.034,0.009,0.031,0.027,-0.018,-1.558,0.016,0.08,41.38,70.4,40.520176,-3.411093,624.5,3,5,324.5,0.352
42.72,1,-0.028,0.005,-0.014,0.011,0.022,-0.007,-1.558,0.018,0.079,42.36,70.7,40.520325,-3.41123,624.8,3,5,324.5,0.0
42.82,1,0.007,0.002,0.011,-0.004,0.005,-0.002,-1.556,0.011,0.079,42.36,70.7,40.520325,-3.41123,624.8,3,5,324.5,0.0
42.92,1,-0.04,-0.007,-0.027,-0.016,-0.001,-0.009,-1.557,0.006,0.079,42.36,70.7,40.520325,-3.41123,624.8,3,5,324.5,0.0
43.02,1,-0.026,0.001,-0.009,-0.019,-0.013,-0.01,-1.558,0.01,0.079,42.36,70.7,40.520325,-3.41123,624.8,3,5,324.5,0.0
43.12,1,-0.008,-0.003,0.006,-0.024,0.006,-0.007,-1.56,0.008,0.079,42.36,70.7,40.520325,-3.41123,624.8,3,5,324.5,0.0
43.22,1,-0.014,0.082,0.032,-0.016,0.027,0.013,-1.563,0.006,0.079,42.36,70.7,40.520325,-3.41123,624.8,3,5,324.5,0.0
43.32,1,0.019,0.103,-0.002,0.001,0.082,0.01,-1.561,0.009,0.079,42.36,70.7,40.520325,-3.41123,624.8,3,5,324.5,0.0
43.42,1,0.028,0.014,-0.003,0.013,0.051,-0.001,-1.559,0.009,0.077,42.36,70.7,40.520325,-3.41123,624.8,3,5,324.5,0.0
43.52,1,-0.013,-0.008,-0.016,0.006,0.015,-0.004,-1.558,0.009,0.076,42.36,70.7,40.520325,-3.41123,624.8,3,5,324.5,0.0
43.62,1,-0.061,0.052,-0.027,-0.022,0.024,-0.019,-1.559,0.007,0.074,42.36,70.7,40.520325,-3.41123,624.8,3,5,324.5,0.0
43.72,1,-0.064,0.066,0.003,-0.049,0.053,-0.012,-1.564,0.005,0.073,43.38,69.9,40.52047,-3.411363,625.1,3,5,324.1,0.352
43.82,1,-0.011,0.048,0.044,-0.034,0.057,0.018,-1.568,0.004,0.071,43.38,69.9,40.52047,-3.411363,625.1,3,5,324.1,0.352
43.92,1,-0.026,0.064,0.001,-0.03,0.055,0.018,-1.568,0.0,0.07,43.38,69.9,40.52047,-3.411363,625.1,3,5,324.1,0.352
44.02,1,0.079,0.05,0.004,0.013,0.057,0.005,-1.565,-0.003,0.069,43.38,69.9,40.52047,-3.411363,625.1,3,5,324.1,0.352
44.12,1,-0.008,0.048,-0.016,0.029,0.055,-0.001,-1.563,-0.003,0.068,43.38,69.9,40.52047,-3.411363,625.1,3,5,324.1,0.352
44.22,1,0.11,-0.034,0.031,0.057,0.012,0.007,-1.56,-0.003,0.067,43.38,69.9,40.52047,-3.411363,625.1,3,5,324.1,0.352
44.34,1,0.004,-0.013,-0.018,0.042,-0.004,0.007,-1.56,-0.004,0.067,43.38,69.9,40.52047,-3.411363,625.1,3,5,324.1,0.352
44.43,1,-0.002,-0.013,-0.032,0.012,-0.008,-0.022,-1.557,-0.001,0.067,43.38,69.9,40.52047,-3.411363,625.1,3,5,324.1,0.352
44.53,1,-0.015,-0.006,0.031,0.001,-0.014,0.0,-1.561,0.002,0.066,43.38,69.9,40.52047,-3.411363,625.1,3,5,324.1,0.352
44.63,1,-0.015,-0.034,0.001,-0.008,-0.021,0.009,-1.564,0.002,0.066,43.38,69.9,40.52047,-3.411363,625.1,3,5,324.1,0.352
44.73,1,-0.017,0.007,-0.002,-0.016,-0.012,0.001,-1.563,-0.0,0.066,44.37,69.8,40.520615,-3.411509,625.5,3,5,324.5,0.352
44.83,1,-0.022,0.0,-0.003,-0.021,0.002,-0.0,-1.563,-0.002,0.066,44.37,69.8,40.520615,-3.411509,625.5,3,5,324.5,0.352
44.93,1,0.02,-0.002,0.018,-0.006,-0.007,0.005,-1.563,-0.003,0.066,44.37,69.8,40.520615,-3.411509,625.5,3,5,324.5,0.352
45.03,1,-0.02,0.037,-0.018,-0.001,0.017,0.001,-1.563,-0.003,0.066,44.37,69.8,40.520615,-3.411509,625.5,3,5,324.5,0.352
45.13,1,-0.02,-0.002,0.003,-0.012,0.013,-0.003,-1.563,-0.002,0.066,44.37,69.8,40.520615,-3.411509,625.5,3,5,324.5,0.352
45.24,1,-0.06,-0.038,-0.029,-0.033,-0.006,-0.013,-1.562,-0.001,0.066,44.37,69.8,40.520615,-3.411509,625.5,3,5,324.5,0.352
45.33,1,0.03,-0.012,0.023,-0.021,-0.028,-0.004,-1.561,-0.004,0.067,44.37,69.8,40.520615,-3.411509,625.5,3,5,324.5,0.352
45.44,1,-0.055,0.006,-0.021,-0.015,0.0,0.001,-1.56,-0.005,0.068,44.37,69.8,40.520615,-3.411509,625.5,3,5,324.5,0.352
45.53,1,-0.012,-0.057,-0.019,-0.03,-0.022,-0.02,-1.559,-0.003,0.068,44.37,69.8,40.520615,-3.411509,625.5,3,5,324.5,0.352
45.63,1,0.026,-0.046,0.03,0.005,-0.039,0.01,-1.563,-0.003,0.069,44.37,69.8,40.520615,-3.411509,625.5,3,5,324.5,0.352
45.73,1,-0.066,-0.082,-0.036,-0.033,-0.06,-0.013,-1.561,-0.002,0.07,45.38,70.5,40.520756,-3.411641,625.5,3,5,325.2,1.055
45.83,1,0.0,-0.02,0.009,-0.009,-0.051,-0.009,-1.562,-0.002,0.071,45.38,70.5,40.520756,-3.411641,625.5,3,5,325.2,1.055
45.93,1,0.019,0.002,0.016,-0.002,-0.03,0.011,-1.562,-0.002,0.071,45.38,70.5,40.520756,-3.411641,625.5,3,5,325.2,1.055
46.04,1,-0.025,0.007,-0.023,-0.009,0.005,-0.007,-1.559,0.004,0.072,45.38,70.5,40.520756,-3.411641,625.5,3,5,325.2,1.055
46.13,1,-0.02,-0.002,-0.015,-0.009,-0.004,-0.007,-1.559,0.005,0.073,45.38,70.5,40.520756,-3.411641,625.5,3,5,325.2,1.055
46.23,1,-0.034,0.023,-0.01,-0.029,0.006,-0.013,-1.56,0.004,0.074,45.38,70.5,40.520756,-3.411641,625.5,3,5,325.2,1.055
46.33,1,-0.053,0.005,-0.029,-0.041,0.001,-0.014,-1.562,0.002,0.074,45.38,70.5,40.520756,-3.411641,625.5,3,5,325.2,1.055
46.44,1,-0.033,-0.011,-0.005,-0.033,0.005,-0.019,-1.563,0.001,0.075,45.38,70.5,40.520756,-3.411641,625.5,3,5,325.2,1.055
46.53,1,0.038,-0.002,0.022,-0.01,0.005,0.002,-1.564,0.002,0.076,45.38,70.5,40.520756,-3.411641,625.5,3,5,325.2,1.055
46.63,1,-0.007,0.017,-0.002,-0.009,0.016,0.0,-1.564,0.004,0.077,45.38,70.5,40.520756,-3.411641,625.5,3,5,325.2,1.055
46.73,1,0.016,-0.017,-0.011,0.011,-0.009,0.003,-1.564,0.005,0.077,46.37,70.4,40.520893,-3.411773,625.6,3,5,325.2,0.703
46.84,1,-0.044,-0.009,-0.024,-0.005,-0.009,-0.015,-1.56,0.012,0.078,46.37,70.4,40.520893,-3.411773,625.6,3,5,325.2,0.703
46.94,1,0.005,-0.047,-0.004,-0.017,-0.024,-0.013,-1.561,0.011,0.077,46.37,70.4,40.520893,-3.411773,625.6,3,5,325.2,0.703
47.05,1,-0.027,-0.025,-0.003,-0.017,-0.031,-0.008,-1.561,0.011,0.077,46.37,70.4,40.520893,-3.411773,625.6,3,5,325.2,0.703
47.14,1,0.019,0.077,0.005,-0.002,0.013,0.002,-1.561,0.011,0.078,46.37,70.4,40.520893,-3.411773,625.6,3,5,325.2,0.703
47.24,1,0.075,0.01,0.033,0.041,0.039,0.018,-1.559,0.014,0.078,46.37,70.4,40.520893,-3.411773,625.6,3,5,325.2,0.703
47.34,1,-0.063,0.049,-0.065,-0.003,0.031,-0.017,-1.557,0.015,0.078,46.37,70.4,40.520893,-3.411773,625.6,3,5,325.2,0.703
47.44,1,0.036,-0.008,0.043,0.0,0.019,-0.003,-1.56,0.017,0.078,46.37,70.4,40.520893,-3.411773,625.6,3,5,325.2,0.703
47.54,1,-0.001,-0.05,-0.0,0.006,-0.018,0.006,-1.561,0.022,0.078,46.37,70.4,40.520893,-3.411773,625.6,3,5,325.2,0.703
47.64,1,0.041,-0.021,0.042,0.018,-0.026,0.018,-1.56,0.024,0.077,46.37,70.4,40.520893,-3.411773,625.6,3,5,325.2,0.703
47.75,1,0.011,0.045,-0.022,0.026,0.003,0.012,-1.556,0.023,0.077,47.37,70.5,40.521034,-3.411904,626.0,3,5,324.5,0.703
47.84,1,-0.052,0.021,-0.049,-0.007,0.019,-0.023,-1.55,0.023,0.076,47.37,70.5,40.521034,-3.411904,626.0,3,5,324.5,0.703
47.94,1,-0.014,0.025,0.013,-0.03,0.02,-0.021,-1.551,0.022,0.076,47.37,70.5,40.521034,-3.411904,626.0,3,5,324.5,0.703
48.04,1,-0.064,0.031,0.012,-0.035,0.03,0.014,-1.553,0.021,0.076,47.37,70.5,40.521034,-3.411904,626.0,3,5,324.5,0.703
48.14,1,-0.064,0.021,-0.001,-0.058,0.027,-0.004,-1.553,0.022,0.076,47.37,70.5,40.521034,-3.411904,626.0,3,5,324.5,0.703
48.24,1,-0.045,0.009,0.013,-0.05,0.02,0.005,-1.556,0.024,0.076,47.37,70.5,40.521034,-3.411904,626.0,3,5,324.5,0.703
48.35,1,0.024,-0.006,0.016,-0.021,0.001,0.011,-1.557,0.02,0.076,47.37,70.5,40.521034,-3.411904,626.0,3,5,324.5,0.703
48.44,1,0.034,0.009,0.005,0.012,0.003,0.009,-1.557,0.014,0.076,47.37,70.5,40.521034,-3.411904,626.0,3,5,324.5,0.703
48.54,1,-0.001,0.074,-0.016,0.015,0.036,0.003,-1.555,0.015,0.075,47.37,70.5,40.521034,-3.411904,626.0,3,5,324.5,0.703
48.64,1,-0.048,0.026,-0.017,-0.018,0.039,-0.016,-1.554,0.014,0.075,47.37,70.5,40.521034,-3.411904,626.0,3,5,324.5,0.703
48.75,1,-0.013,0.028,0.02,-0.02,0.032,0.004,-1.558,0.012,0.074,48.37,69.9,40.521168,-3.412037,626.7,3,5,324.1,1.055
48.84,1,-0.024,0.002,0.015,-0.018,0.018,0.009,-1.56,0.01,0.074,48.37,69.9,40.521168,-3.412037,626.7,3,5,324.1,1.055
48.96,1,-0.035,0.015,-0.013,-0.029,0.009,0.005,-1.559,0.011,0.073,48.37,69.9,40.521168,-3.412037,626.7,3,5,324.1,1.055
49.04,1,0.02,-0.003,0.03,-0.012,0.014,0.006,-1.558,0.011,0.073,48.37,69.9,40.521168,-3.412037,626.7,3,5,324.1,1.055
49.15,1,0.0,0.034,0.006,0.002,0.013,0.015,-1.558,0.01,0.072,48.37,69.9,40.521168,-3.412037,626.7,3,5,324.1,1.055
49.25,1,0.028,-0.025,0.006,0.011,0.006,0.008,-1.556,0.007,0.072,48.37,69.9,40.521168,-3.412037,626.7,3,5,324.1,1.055
49.35,1,0.023,0.004,0.002,0.025,-0.002,0.007,-1.555,0.002,0.071,48.37,69.9,40.521168,-3.412037,626.7,3,5,324.1,1.055
49.45,1,-0.042,0.03,-0.019,-0.003,0.018,-0.007,-1.556,0.002,0.071,48.37,69.9,40.521168,-3.412037,626.7,3,5,324.1,1.055
49.55,1,-0.029,-0.006,0.016,-0.03,-0.006,-0.006,-1.559,0.002,0.07,48.37,69.9,40.521168,-3.412037,626.7,3,5,324.1,1.055
49.65,1,-0.034,0.071,0.05,-0.021,0.035,0.033,-1.561,0.003,0.069,48.37,69.9,40.521168,-3.412037,626.7,3,5,324.1,1.055
49.75,1,0.022,-0.018,-0.003,-0.009,0.018,0.02,-1.559,0.004,0.068,49.37,69.4,40.521313,-3.412164,626.9,3,5,324.5,0.352
49.86,1,0.009,-0.002,-0.013,-0.001,0.005,-0.003,-1.558,0.005,0.068,49.37,69.4,40.521313,-3.412164,626.9,3,5,324.5,0.352
49.95,1,0.053,0.013,0.024,0.029,0.004,0.01,-1.559,0.005,0.067,49.37,69.4,40.521313,-3.412164,626.9,3,5,324.5,0.352
50.06,1,0.023,0.003,0.003,0.033,-0.001,0.009,-1.559,-0.002,0.067,49.37,69.4,40.521313,-3.412164,626.9,3,5,324.5,0.352
50.16,1,-0.034,0.049,0.009,0.005,0.035,0.007,-1.56,-0.003,0.067,49.37,69.4,40.521313,-3.412164,626.9,3,5,324.5,0.352
50.25,1,-0.003,-0.006,0.016,-0.01,0.014,0.01,-1.56,-0.003,0.067,49.37,69.4,40.521313,-3.412164,626.9,3,5,324.5,0.352
50.35,1,-0.037,-0.044,-0.005,-0.023,-0.009,0.005,-1.559,0.001,0.067,49.37,69.4,40.521313,-3.412164,626.9,3,5,324.5,0.352
50.45,1,0.055,-0.056,0.004,0.007,-0.047,0.005,-1.558,0.01,0.068,49.37,69.4,40.521313,-3.412164,626.9,3,5,324.5,0.352
50.55,1,-0.016,0.007,-0.029,0.004,-0.017,-0.008,-1.557,0.01,0.069,49.37,69.4,40.521313,-3.412164,626.9,3,5,324.5,0.352
50.66,1,0.003,0.02,0.006,0.003,-0.002,-0.014,-1.559,0.011,0.07,49.37,69.4,40.521313,-3.412164,626.9,3,5,324.5,0.352
50.75,1,-0.032,0.026,0.021,-0.011,0.024,0.012,-1.561,0.013,0.071,50.39,69.6,40.521454,-3.412293,627.1,3,5,325.2,1.055
50.85,1,-0.006,-0.035,0.034,-0.004,-0.01,0.022,-1.561,0.012,0.071,50.39,69.6,40.521454,-3.412293,627.1,3,5,325.2,1.055
50.95,1,-0.061,-0.065,-0.018,-0.044,-0.03,0.01,-1.56,0.012,0.072,50.39,69.6,40.521454,-3.412293,627.1,3,5,325.2,1.055
51.06,1,0.015,-0.066,0.003,-0.012,-0.061,-0.003,-1.56,0.012,0.073,50.39,69.6,40.521454,-3.412293,627.1,3,5,325.2,1.055
51.15,1,-0.015,-0.011,0.01,-0.008,-0.033,0.006,-1.56,0.013,0.075,50.39,69.6,40.521454,-3.412293,627.1,3,5,325.2,1.055
51.25,1,0.035,-0.046,0.027,0.007,-0.036,0.013,-1.56,0.013,0.077,50.39,69.6,40.521454,-3.412293,627.1,3,5,325.2,1.055
51.35,1,-0.007,0.009,-0.002,0.004,-0.025,0.009,-1.557,0.018,0.078,50.39,69.6,40.521454,-3.412293,627.1,3,5,325.2,1.055
51.45,1,-0.008,-0.041,0.011,0.002,-0.014,0.007,-1.56,0.017,0.08,50.39,69.6,40.521454,-3.412293,627.1,3,5,325.2,1.055
51.56,1,-0.076,-0.05,-0.015,-0.027,-0.042,0.002,-1.562,0.016,0.082,50.39,69.6,40.521454,-3.412293,627.1,3,5,325.2,1.055
51.66,1,0.04,-0.044,0.024,-0.025,-0.043,0.007,-1.565,0.016,0.083,50.39,69.6,40.521454,-3.412293,627.1,3,5,325.2,1.055
51.77,1,-0.058,0.024,-0.035,-0.017,-0.018,-0.006,-1.564,0.021,0.084,51.37,69.8,40.521599,-3.412426,627.3,3,5,325.2,0.703
51.87,1,0.028,-0.003,0.023,-0.013,0.0,-0.007,-1.567,0.018,0.085,51.37,69.8,40.521599,-3.412426,627.3,3,5,325.2,0.703
51.96,1,0.047,0.066,0.019,0.028,0.022,0.02,-1.568,0.016,0.085,51.37,69.8,40.521599,-3.412426,627.3,3,5,325.2,0.703
52.06,1,0.009,0.028,0.011,0.024,0.04,0.011,-1.567,0.023,0.085,51.37,69.8,40.521599,-3.412426,627.3,3,5,325.2,0.703
52.16,1,-0.025,0.012,-0.022,-0.004,0.021,-0.002,-1.565,0.024,0.084,51.37,69.8,40.521599,-3.412426,627.3,3,5,325.2,0.703
52.26,1,-0.01,0.022,0.003,-0.013,0.013,-0.007,-1.566,0.023,0.084,51.37,69.8,40.521599,-3.412426,627.3,3,5,325.2,0.703
52.36,1,0.009,0.051,0.008,-0.004,0.041,-0.0,-1.567,0.023,0.084,51.37,69.8,40.521599,-3.412426,627.3,3,5,325.2,0.703
52.46,1,-0.017,0.028,0.008,0.001,0.037,0.011,-1.567,0.022,0.083,51.37,69.8,40.521599,-3.412426,627.3,3,5,325.2,0.703
52.56,1,-0.056,0.059,-0.03,-0.033,0.038,-0.009,-1.568,0.023,0.083,51.37,69.8,40.521599,-3.412426,627.3,3,5,325.2,0.703
52.66,1,-0.031,0.021,0.009,-0.021,0.037,-0.002,-1.57,0.02,0.083,51.37,69.8,40.521599,-3.412426,627.3,3,5,325.2,0.703
52.76,1,0.036,0.019,0.011,-0.012,0.028,0.001,-1.573,0.019,0.082,52.37,69.3,40.52174,-3.412556,627.8,3,5,324.5,0.703
52.86,1,-0.015,-0.011,-0.017,0.003,0.01,-0.001,-1.571,0.019,0.082,52.37,69.3,40.52174,-3.412556,627.8,3,5,324.5,0.703
52.97,1,0.008,0.015,-0.023,0.001,0.007,-0.016,-1.567,0.021,0.081,52.37,69.3,40.52174,-3.412556,627.8,3,5,324.5,0.703
53.07,1,0.007,0.052,0.008,-0.001,0.035,-0.014,-1.572,0.023,0.081,52.37,69.3,40.52174,-3.412556,627.8,3,5,324.5,0.703
53.16,1,0.023,0.013,0.029,0.009,0.026,0.015,-1.575,0.021,0.081,52.37,69.3,40.52174,-3.412556,627.8,3,5,324.5,0.703
53.26,1,-0.022,0.05,-0.026,0.013,0.035,0.005,-1.572,0.02,0.08,52.37,69.3,40.52174,-3.412556,627.8,3,5,324.5,0.703
53.36,1,0.02,-0.001,-0.018,-0.008,0.022,-0.019,-1.569,0.018,0.08,52.37,69.3,40.52174,-3.412556,627.8,3,5,324.5,0.703
53.46,1,-0.022,0.051,0.017,-0.003,0.025,0.001,-1.571,0.018,0.079,52.37,69.3,40.52174,-3.412556,627.8,3,5,324.5,0.703
53.56,1,0.011,-0.015,0.018,0.0,0.016,0.012,-1.572,0.019,0.079,52.37,69.3,40.52174,-3.412556,627.8,3,5,324.5,0.703
53.66,1,-0.071,0.053,-0.015,-0.022,0.018,0.002,-1.572,0.019,0.078,52.37,69.3,40.52174,-3.412556,627.8,3,5,324.5,0.703
53.76,1,-0.08,0.067,-0.029,-0.065,0.05,-0.015,-1.571,0.019,0.078,53.39,69.4,40.521881,-3.412693,628.2,3,5,324.5,0.703
53.87,1,0.015,-0.004,0.021,-0.025,0.031,-0.004,-1.572,0.019,0.078,53.39,69.4,40.521881,-3.412693,628.2,3,5,324.5,0.703
53.97,1,-0.031,0.042,-0.026,-0.012,0.035,-0.006,-1.571,0.018,0.078,53.39,69.4,40.521881,-3.412693,628.2,3,5,324.5,0.703
54.07,1,-0.001,-0.005,0.004,-0.027,0.017,-0.01,-1.573,0.022,0.077,53.39,69.4,40.521881,-3.412693,628.2,3,5,324.5,0.703
54.17,1,-0.052,0.044,-0.013,-0.022,0.021,-0.005,-1.573,0.02,0.077,53.39,69.4,40.521881,-3.412693,628.2,3,5,324.5,0.703
54.27,1,0.007,-0.016,0.004,-0.028,0.021,-0.005,-1.572,0.016,0.076,53.39,69.4,40.521881,-3.412693,628.2,3,5,324.5,0.703
54.37,1,-0.009,0.021,-0.016,-0.003,-0.001,-0.006,-1.571,0.009,0.076,53.39,69.4,40.521881,-3.412693,628.2,3,5,324.5,0.703
54.47,1,0.009,0.028,-0.008,-0.013,0.025,-0.01,-1.571,0.008,0.076,53.39,69.4,40.521881,-3.412693,628.2,3,5,324.5,0.703
54.57,1,-0.015,0.072,0.002,0.011,0.029,-0.003,-1.571,0.004,0.075,53.39,69.4,40.521881,-3.412693,628.2,3,5,324.5,0.703
54.67,1,-0.001,-0.051,-0.007,-0.019,0.018,-0.008,-1.571,-0.004,0.075,53.39,69.4,40.521881,-3.412693,628.2,3,5,324.5,0.703
54.77,1,0.017,-0.018,0.037,0.016,-0.025,0.016,-1.571,-0.008,0.075,54.41,69.1,40.522022,-3.412824,628.4,3,5,324.5,0.0
54.87,1,-0.027,0.003,-0.013,-0.02,0.006,0.005,-1.569,-0.008,0.075,54.41,69.1,40.522022,-3.412824,628.4,3,5,324.5,0.0
54.97,1,0.054,-0.045,-0.022,0.015,-0.022,-0.012,-1.568,-0.007,0.075,54.41,69.1,40.522022,-3.412824,628.4,3,5,324.5,0.0
55.07,1,0.0,0.029,-0.003,0.027,-0.013,-0.012,-1.571,-0.004,0.075,54.41,69.1,40.522022,-3.412824,628.4,3,5,324.5,0.0
55.17,1,0.011,-0.033,0.014,-0.001,0.001,0.005,-1.576,-0.003,0.076,54.41,69.1,40.522022,-3.412824,628.4,3,5,324.5,0.0
55.28,1,-0.016,-0.023,-0.023,0.008,-0.024,-0.001,-1.577,0.001,0.076,54.41,69.1,40.522022,-3.412824,628.4,3,5,324.5,0.0
55.37,1,-0.053,-0.023,-0.05,-0.031,-0.02,-0.029,-1.576,0.004,0.077,54.41,69.1,40.522022,-3.412824,628.4,3,5,324.5,0.0
55.47,1,-0.005,-0.061,0.015,-0.026,-0.038,-0.019,-1.579,0.007,0.078,54.41,69.1,40.522022,-3.412824,628.4,3,5,324.5,0.0
55.57,1,0.015,-0.014,0.0,-0.011,-0.034,0.001,-1.582,0.008,0.078,54.41,69.1,40.522022,-3.412824,628.4,3,5,324.5,0.0
55.68,1,-0.021,-0.033,-0.02,-0.006,-0.027,-0.008,-1.578,0.006,0.079,54.41,69.1,40.522022,-3.412824,628.4,3,5,324.5,0.0
55.78,1,-0.022,-0.042,-0.022,-0.003,-0.039,-0.014,-1.575,0.005,0.08,55.37,69.3,40.522163,-3.412956,628.9,3,5,324.8,0.352
55.88,1,-0.053,0.011,-0.003,-0.044,-0.012,-0.019,-1.576,0.001,0.082,55.37,69.3,40.522163,-3.412956,628.9,3,5,324.8,0.352
55.98,1,-0.029,-0.032,0.024,-0.03,-0.02,0.006,-1.58,0.007,0.084,55.37,69.3,40.522163,-3.412956,628.9,3,5,324.8,0.352
56.07,1,-0.058,-0.075,-0.0,-0.041,-0.043,0.009,-1.582,0.006,0.085,55.37,69.3,40.522163,-3.412956,628.9,3,5,324.8,0.352
56.18,1,0.023,-0.063,-0.015,-0.022,-0.061,-0.005,-1.582,0.008,0.086,55.37,69.3,40.522163,-3.412956,628.9,3,5,324.8,0.352
56.28,1,-0.011,0.022,-0.013,-0.003,-0.023,-0.012,-1.581,0.009,0.088,55.37,69.3,40.522163,-3.412956,628.9,3,5,324.8,0.352
56.48,1,-0.011,-0.01,-0.004,0.026,-0.011,0.007,-1.581,0.004,0.092,55.37,69.3,40.522163,-3.412956,628.9,3,5,324.8,0.352
56.58,1,-0.028,0.002,-0.034,-0.025,-0.007,-0.018,-1.579,0.009,0.094,55.37,69.3,40.522163,-3.412956,628.9,3,5,324.8,0.352
56.68,1,-0.005,-0.015,0.008,-0.015,-0.006,-0.01,-1.58,0.015,0.095,55.37,69.3,40.522163,-3.412956,628.9,3,5,324.8,0.352
56.78,1,-0.046,0.002,-0.021,-0.025,-0.009,-0.006,-1.581,0.017,0.097,55.37,69.3,40.522163,-3.412956,628.9,3,5,324.8,0.352
56.88,1,-0.008,0.015,0.024,-0.019,0.004,-0.0,-1.583,0.015,0.099,56.37,69.3,40.522305,-3.413086,629.0,3,5,324.8,0.352
56.98,1,0.003,0.02,-0.027,-0.005,0.014,-0.006,-1.583,0.015,0.1,56.37,69.3,40.522305,-3.413086,629.0,3,5,324.8,0.352
57.08,1,-0.078,-0.013,-0.004,-0.051,0.006,-0.017,-1.582,0.016,0.101,56.37,69.3,40.522305,-3.413086,629.0,3,5,324.8,0.352
57.18,1,0.041,-0.012,0.049,-0.003,-0.008,0.019,-1.585,0.01,0.102,56.37,69.3,40.522305,-3.413086,629.0,3,5,324.8,0.352
57.28,1,-0.079,-0.033,-0.058,-0.036,-0.028,-0.003,-1.582,0.011,0.103,56.37,69.3,40.522305,-3.413086,629.0,3,5,324.8,0.352
57.39,1,-0.012,0.003,-0.022,-0.029,-0.015,-0.029,-1.582,0.01,0.104,56.37,69.3,40.522305,-3.413086,629.0,3,5,324.8,0.352
57.48,1,-0.018,0.021,0.004,-0.015,0.015,-0.012,-1.585,0.009,0.106,56.37,69.3,40.522305,-3.413086,629.0,3,5,324.8,0.352
57.59,1,-0.013,0.002,0.004,-0.022,0.007,0.001,-1.585,0.008,0.107,56.37,69.3,40.522305,-3.413086,629.0,3,5,324.8,0.352
57.69,1,0.007,0.017,-0.009,-0.003,0.007,-0.002,-1.58,0.006,0.108,56.37,69.3,40.522305,-3.413086,629.0,3,5,324.8,0.352
57.78,1,-0.013,0.014,-0.037,-0.006,0.02,-0.018,-1.577,0.008,0.11,56.37,69.3,40.522305,-3.413086,629.0,3,5,324.8,0.352
57.88,1,-0.009,-0.031,-0.009,-0.006,-0.01,-0.018,-1.578,0.006,0.111,57.43,69.0,40.522446,-3.413207,629.9,3,5,325.9,1.055
57.98,1,-0.023,0.025,-0.015,-0.016,0.002,-0.015,-1.579,0.003,0.112,57.43,69.0,40.522446,-3.413207,629.9,3,5,325.9,1.055
58.08,1,-0.003,-0.006,0.003,-0.021,0.01,-0.012,-1.581,0.002,0.114,57.43,69.0,40.522446,-3.413207,629.9,3,5,325.9,1.055
58.19,1,-0.043,-0.004,-0.022,-0.012,-0.005,-0.009,-1.576,-0.0,0.116,57.43,69.0,40.522446,-3.413207,629.9,3,5,325.9,1.055
58.28,1,-0.013,0.015,-0.013,-0.024,0.008,-0.015,-1.575,-0.001,0.118,57.43,69.0,40.522446,-3.413207,629.9,3,5,325.9,1.055
58.38,1,0.015,-0.011,-0.008,-0.003,-0.004,-0.011,-1.575,-0.005,0.12,57.43,69.0,40.522446,-3.413207,629.9,3,5,325.9,1.055
58.49,1,-0.005,0.009,-0.024,-0.01,0.002,-0.015,-1.573,-0.003,0.122,57.43,69.0,40.522446,-3.413207,629.9,3,5,325.9,1.055
58.59,1,0.021,-0.044,-0.022,0.016,-0.021,-0.021,-1.571,-0.002,0.124,57.43,69.0,40.522446,-3.413207,629.9,3,5,325.9,1.055
58.7,1,-0.05,0.001,-0.008,-0.022,-0.009,-0.017,-1.572,0.0,0.126,57.43,69.0,40.522446,-3.413207,629.9,3,5,325.9,1.055
58.79,1,-0.007,0.021,0.025,-0.011,0.003,0.003,-1.575,-0.003,0.128,57.43,69.0,40.522446,-3.413207,629.9,3,5,325.9,1.055
58.89,1,-0.023,-0.055,-0.02,-0.021,-0.019,0.001,-1.574,-0.005,0.131,58.41,69.0,40.522587,-3.413334,630.5,3,5,325.9,1.055
58.99,1,-0.007,-0.033,-0.035,-0.011,-0.037,-0.019,-1.573,-0.007,0.132,58.41,69.0,40.522587,-3.413334,630.5,3,5,325.9,1.055
59.1,1,-0.019,0.01,-0.015,-0.027,-0.01,-0.026,-1.574,-0.01,0.135,58.41,69.0,40.522587,-3.413334,630.5,3,5,325.9,1.055
59.19,1,0.028,0.007,0.015,0.008,-0.004,-0.003,-1.578,-0.003,0.136,58.41,69.0,40.522587,-3.413334,630.5,3,5,325.9,1.055
59.3,1,0.026,0.02,0.012,0.016,0.01,0.009,-1.579,-0.0,0.139,58.41,69.0,40.522587,-3.413334,630.5,3,5,325.9,1.055
59.4,1,-0.011,0.036,-0.029,0.014,0.017,-0.005,-1.576,-0.002,0.141,58.41,69.0,40.522587,-3.413334,630.5,3,5,325.9,1.055
59.49,1,-0.021,0.007,-0.025,-0.017,0.027,-0.023,-1.576,-0.003,0.143,58.41,69.0,40.522587,-3.413334,630.5,3,5,325.9,1.055
59.59,1,0.022,-0.004,0.014,0.009,0.007,-0.005,-1.577,-0.004,0.145,58.41,69.0,40.522587,-3.413334,630.5,3,5,325.9,1.055
59.69,1,-0.06,0.018,-0.027,-0.021,0.017,-0.009,-1.575,-0.01,0.147,58.41,69.0,40.522587,-3.413334,630.5,3,5,325.9,1.055
59.79,1,0.007,-0.026,-0.004,-0.025,-0.006,-0.015,-1.575,-0.014,0.148,58.41,69.0,40.522587,-3.413334,630.5,3,5,325.9,1.055
59.89,1,-0.011,0.045,-0.004,-0.006,0.006,-0.007,-1.577,-0.009,0.15,59.42,68.1,40.522701,-3.413495,631.3,3,5,321.3,4.57
59.99,1,-0.026,-0.01,-0.003,-0.014,0.013,-0.004,-1.578,-0.009,0.152,59.42,68.1,40.522701,-3.413495,631.3,3,5,321.3,4.57
60.09,1,0.012,-0.026,0.011,-0.005,-0.012,0.003,-1.578,-0.01,0.154,59.42,68.1,40.522701,-3.413495,631.3,3,5,321.3,4.57
60.19,1,0.012,-0.02,-0.004,0.002,-0.015,0.004,-1.576,-0.012,0.156,59.42,68.1,40.522701,-3.413495,631.3,3,5,321.3,4.57
60.3,1,-0.031,0.013,-0.022,-0.016,-0.003,-0.014,-1.574,-0.014,0.158,59.42,68.1,40.522701,-3.413495,631.3,3,5,321.3,4.57
60.39,1,0.047,0.029,0.009,0.016,0.004,-0.004,-1.575,-0.016,0.159,59.42,68.1,40.522701,-3.413495,631.3,3,5,321.3,4.57
60.5,1,-0.004,0.059,-0.003,0.02,0.04,0.001,-1.577,-0.014,0.16,59.42,68.1,40.522701,-3.413495,631.3,3,5,321.3,4.57
60.59,1,-0.055,0.074,-0.013,-0.023,0.058,-0.004,-1.577,-0.013,0.162,59.42,68.1,40.522701,-3.413495,631.3,3,5,321.3,4.57
60.69,1,-0.002,-0.015,-0.009,-0.019,0.031,-0.009,-1.577,-0.015,0.163,59.42,68.1,40.522701,-3.413495,631.3,3,5,321.3,4.57
60.79,1,-0.024,0.015,-0.008,-0.024,0.012,-0.012,-1.576,-0.017,0.164,59.42,68.1,40.522701,-3.413495,631.3,3,5,321.3,4.57
60.89,1,0.029,0.021,0.009,0.003,0.017,-0.002,-1.577,-0.02,0.165,60.42,66.9,40.522831,-3.413635,631.9,3,5,321.0,4.922
61.0,1,-0.034,0.014,-0.017,-0.006,0.018,-0.004,-1.574,-0.024,0.167,60.42,66.9,40.522831,-3.413635,631.9,3,5,321.0,4.922
61.1,1,0.01,-0.001,0.002,-0.003,0.007,-0.004,-1.574,-0.028,0.169,60.42,66.9,40.522831,-3.413635,631.9,3,5,321.0,4.922
61.19,1,0.016,0.05,0.012,0.009,0.021,0.004,-1.575,-0.032,0.17,60.42,66.9,40.522831,-3.413635,631.9,3,5,321.0,4.922
61.29,1,-0.028,0.013,-0.013,-0.013,0.025,-0.003,-1.578,-0.03,0.172,60.42,66.9,40.522831,-3.413635,631.9,3,5,321.0,4.922
61.39,1,-0.019,-0.004,-0.01,-0.024,0.008,-0.01,-1.579,-0.03,0.174,60.42,66.9,40.522831,-3.413635,631.9,3,5,321.0,4.922
61.49,1,0.029,0.024,-0.01,0.004,0.002,-0.005,-1.578,-0.031,0.176,60.42,66.9,40.522831,-3.413635,631.9,3,5,321.0,4.922
61.59,1,0.007,0.022,-0.006,0.017,0.03,-0.01,-1.578,-0.032,0.178,60.42,66.9,40.522831,-3.413635,631.9,3,5,321.0,4.922
61.69,1,0.005,-0.033,0.011,0.005,0.007,-0.001,-1.577,-0.034,0.18,60.42,66.9,40.522831,-3.413635,631.9,3,5,321.0,4.922
61.8,1,0.012,-0.018,-0.003,0.012,-0.021,0.004,-1.576,-0.036,0.182,60.42,66.9,40.522831,-3.413635,631.9,3,5,321.0,4.922
61.89,1,-0.015,0.085,-0.02,-0.0,0.019,-0.008,-1.575,-0.039,0.185,61.37,66.3,40.522953,-3.413776,632.4,3,5,319.9,1.406
62.0,1,0.026,-0.051,0.004,0.012,0.012,-0.004,-1.575,-0.04,0.186,61.37,66.3,40.522953,-3.413776,632.4,3,5,319.9,1.406
62.1,1,-0.006,0.021,-0.021,0.002,0.0,-0.014,-1.575,-0.04,0.188,61.37,66.3,40.522953,-3.413776,632.4,3,5,319.9,1.406
62.2,1,0.037,0.03,0.017,0.019,0.017,0.0,-1.575,-0.04,0.191,61.37,66.3,40.522953,-3.413776,632.4,3,5,319.9,1.406
62.3,1,-0.034,-0.086,-0.004,-0.002,-0.014,0.002,-1.574,-0.04,0.193,61.37,66.3,40.522953,-3.413776,632.4,3,5,319.9,1.406
62.39,1,-0.007,-0.036,-0.02,-0.008,-0.044,-0.008,-1.573,-0.041,0.195,61.37,66.3,40.522953,-3.413776,632.4,3,5,319.9,1.406
62.5,1,-0.014,-0.07,0.021,-0.009,-0.052,0.002,-1.574,-0.043,0.197,61.37,66.3,40.522953,-3.413776,632.4,3,5,319.9,1.406
62.6,1,0.018,-0.018,0.012,-0.013,-0.048,0.007,-1.573,-0.045,0.199,61.37,66.3,40.522953,-3.413776,632.4,3,5,319.9,1.406
62.71,1,0.064,0.088,0.027,0.037,0.021,0.016,-1.572,-0.046,0.201,61.37,66.3,40.522953,-3.413776,632.4,3,5,319.9,1.406
62.8,1,-0.0,-0.026,-0.026,0.034,0.01,0.009,-1.568,-0.046,0.203,61.37,66.3,40.522953,-3.413776,632.4,3,5,319.9,1.406
62.9,1,0.029,0.002,-0.006,0.008,0.0,-0.016,-1.567,-0.044,0.205,62.37,65.8,40.523075,-3.413917,633.1,3,5,318.9,2.109
63.0,1,0.016,-0.025,0.004,0.03,0.002,0.003,-1.568,-0.042,0.206,62.37,65.8,40.523075,-3.413917,633.1,3,5,318.9,2.109
63.1,1,-0.02,-0.006,0.01,-0.001,-0.014,0.001,-1.57,-0.041,0.208,62.37,65.8,40.523075,-3.413917,633.1,3,5,318.9,2.109
63.21,1,-0.053,0.054,0.016,-0.024,0.012,0.01,-1.573,-0.041,0.21,62.37,65.8,40.523075,-3.413917,633.1,3,5,318.9,2.109
63.3,1,-0.054,-0.033,0.014,-0.045,0.005,0.012,-1.575,-0.041,0.211,62.37,65.8,40.523075,-3.413917,633.1,3,5,318.9,2.109
63.4,1,-0.037,-0.055,0.023,-0.044,-0.038,0.02,-1.576,-0.04,0.213,62.37,65.8,40.523075,-3.413917,633.1,3,5,318.9,2.109
63.5,1,0.036,0.024,0.017,-0.012,-0.013,0.02,-1.575,-0.038,0.216,62.37,65.8,40.523075,-3.413917,633.1,3,5,318.9,2.109
63.6,1,-0.012,0.048,-0.035,0.002,0.028,-0.004,-1.573,-0.038,0.219,62.37,65.8,40.523075,-3.413917,633.1,3,5,318.9,2.109
63.7,1,0.025,-0.013,0.02,0.008,0.005,-0.003,-1.574,-0.037,0.221,62.37,65.8,40.523075,-3.413917,633.1,3,5,318.9,2.109
63.81,1,-0.006,-0.05,0.022,0.01,-0.01,0.016,-1.573,-0.036,0.223,62.37,65.8,40.523075,-3.413917,633.1,3,5,318.9,2.109
63.91,1,0.032,0.008,0.007,0.011,-0.017,0.01,-1.571,-0.036,0.226,63.39,65.2,40.52319,-3.414063,633.8,3,5,317.5,2.461
64.01,1,-0.001,0.039,-0.024,0.02,0.024,0.001,-1.569,-0.037,0.229,63.39,65.2,40.52319,-3.414063,633.8,3,5,317.5,2.461
64.1,1,-0.046,0.005,-0.035,-0.016,0.012,-0.026,-1.569,-0.037,0.231,63.39,65.2,40.52319,-3.414063,633.8,3,5,317.5,2.461
64.2,1,-0.026,0.027,0.009,-0.023,0.011,-0.011,-1.573,-0.038,0.232,63.39,65.2,40.52319,-3.414063,633.8,3,5,317.5,2.461
64.3,1,-0.067,-0.02,0.022,-0.052,0.007,0.004,-1.575,-0.038,0.235,63.39,65.2,40.52319,-3.414063,633.8,3,5,317.5,2.461
64.4,1,0.039,0.014,0.021,-0.013,-0.0,0.016,-1.573,-0.037,0.237,63.39,65.2,40.52319,-3.414063,633.8,3,5,317.5,2.461
64.51,1,-0.042,0.074,-0.049,-0.013,0.033,-0.007,-1.571,-0.038,0.24,63.39,65.2,40.52319,-3.414063,633.8,3,5,317.5,2.461
64.6,1,-0.036,-0.033,0.004,-0.035,0.019,-0.023,-1.574,-0.039,0.242,63.39,65.2,40.52319,-3.414063,633.8,3,5,317.5,2.461
64.71,1,0.035,-0.026,0.071,0.002,-0.021,0.032,-1.576,-0.04,0.244,63.39,65.2,40.52319,-3.414063,633.8,3,5,317.5,2.461
64.81,1,-0.073,-0.008,-0.043,-0.025,-0.009,0.01,-1.573,-0.041,0.246,63.39,65.2,40.52319,-3.414063,633.8,3,5,317.5,2.461
64.91,1,-0.015,0.006,-0.017,-0.04,-0.008,-0.015,-1.572,-0.041,0.249,64.37,64.9,40.523304,-3.414213,634.9,3,5,316.1,2.812
65.01,1,0.039,-0.006,0.035,0.005,0.007,0.003,-1.576,-0.051,0.251,64.37,64.9,40.523304,-3.414213,634.9,3,5,316.1,2.812
65.12,1,0.006,-0.003,0.004,0.014,0.0,0.016,-1.575,-0.053,0.253,64.37,64.9,40.523304,-3.414213,634.9,3,5,316.1,2.812
65.21,1,0.007,-0.004,-0.002,0.004,-0.005,-0.0,-1.574,-0.052,0.255,64.37,64.9,40.523304,-3.414213,634.9,3,5,316.1,2.812
65.31,1,-0.049,-0.066,-0.019,-0.019,-0.029,-0.006,-1.574,-0.051,0.257,64.37,64.9,40.523304,-3.414213,634.9,3,5,316.1,2.812
65.41,1,0.025,-0.048,0.001,0.0,-0.049,-0.004,-1.574,-0.052,0.259,64.37,64.9,40.523304,-3.414213,634.9,3,5,316.1,2.812
65.51,1,0.001,0.093,0.015,0.004,-0.002,0.004,-1.573,-0.052,0.262,64.37,64.9,40.523304,-3.414213,634.9,3,5,316.1,2.812
65.61,1,0.004,-0.019,-0.002,0.003,0.026,0.004,-1.572,-0.052,0.263,64.37,64.9,40.523304,-3.414213,634.9,3,5,316.1,2.812
65.71,1,0.002,-0.047,-0.005,-0.002,-0.02,-0.001,-1.571,-0.052,0.265,64.37,64.9,40.523304,-3.414213,634.9,3,5,316.1,2.812
65.81,1,0.011,-0.01,-0.02,0.009,-0.023,-0.007,-1.569,-0.052,0.266,64.37,64.9,40.523304,-3.414213,634.9,3,5,316.1,2.812
65.91,1,0.006,0.083,0.001,0.009,0.022,-0.008,-1.569,-0.052,0.268,65.36,64.6,40.523418,-3.414362,635.7,3,5,314.3,3.164
66.01,1,0.007,-0.015,0.012,0.013,0.04,0.004,-1.57,-0.051,0.269,65.36,64.6,40.523418,-3.414362,635.7,3,5,314.3,3.164
66.11,1,-0.018,0.102,0.001,-0.012,0.024,0.003,-1.568,-0.051,0.271,65.36,64.6,40.523418,-3.414362,635.7,3,5,314.3,3.164
66.21,1,0.001,0.078,-0.019,-0.005,0.078,-0.008,-1.567,-0.052,0.272,65.36,64.6,40.523418,-3.414362,635.7,3,5,314.3,3.164
66.31,1,-0.034,-0.116,-0.001,-0.011,-0.0,-0.005,-1.568,-0.052,0.273,65.36,64.6,40.523418,-3.414362,635.7,3,5,314.3,3.164
66.51,1,0.037,0.082,-0.001,0.004,0.022,0.001,-1.567,-0.053,0.274,65.36,64.6,40.523418,-3.414362,635.7,3,5,314.3,3.164
66.62,1,0.045,0.09,0.007,0.032,0.064,0.002,-1.566,-0.053,0.276,65.36,64.6,40.523418,-3.414362,635.7,3,5,314.3,3.164
66.71,1,0.043,0.148,0.011,0.039,0.092,0.008,-1.566,-0.054,0.277,65.36,64.6,40.523418,-3.414362,635.7,3,5,314.3,3.164
66.82,1,-0.042,-0.06,-0.013,0.005,0.061,-0.003,-1.566,-0.054,0.277,65.36,64.6,40.523418,-3.414362,635.7,3,5,314.3,3.164
66.92,1,-0.015,-0.092,0.01,-0.014,-0.039,-0.001,-1.566,-0.054,0.277,65.36,64.6,40.523418,-3.414362,635.7,3,5,314.3,3.164
67.02,1,0.007,0.046,-0.004,-0.001,-0.011,0.006,-1.565,-0.054,0.279,66.39,64.4,40.523521,-3.414518,636.0,3,5,312.5,3.516
67.12,1,0.061,0.079,0.001,0.021,0.036,-0.003,-1.565,-0.053,0.279,66.39,64.4,40.523521,-3.414518,636.0,3,5,312.5,3.516
67.22,1,-0.012,0.077,0.002,0.02,0.076,0.001,-1.567,-0.053,0.28,66.39,64.4,40.523521,-3.414518,636.0,3,5,312.5,3.516
67.33,1,0.013,-0.048,0.038,0.007,0.013,0.015,-1.567,-0.051,0.28,66.39,64.4,40.523521,-3.414518,636.0,3,5,312.5,3.516
67.42,1,-0.029,-0.094,0.002,-0.004,-0.045,0.02,-1.564,-0.05,0.28,66.39,64.4,40.523521,-3.414518,636.0,3,5,312.5,3.516
67.52,1,0.012,0.053,-0.02,-0.009,-0.033,-0.004,-1.563,-0.05,0.281,66.39,64.4,40.523521,-3.414518,636.0,3,5,312.5,3.516
67.62,1,0.022,0.074,-0.0,0.009,0.049,-0.01,-1.565,-0.049,0.282,66.39,64.4,40.523521,-3.414518,636.0,3,5,312.5,3.516
67.73,1,-0.009,-0.006,0.035,0.011,0.034,0.014,-1.567,-0.047,0.282,66.39,64.4,40.523521,-3.414518,636.0,3,5,312.5,3.516
67.82,1,-0.001,-0.065,0.019,-0.003,-0.03,0.022,-1.565,-0.046,0.282,66.39,64.4,40.523521,-3.414518,636.0,3,5,312.5,3.516
67.92,1,-0.059,-0.073,-0.024,-0.02,-0.048,0.004,-1.562,-0.046,0.283,66.39,64.4,40.523521,-3.414518,636.0,3,5,312.5,3.516
68.02,1,-0.063,-0.049,0.002,-0.057,-0.052,-0.012,-1.563,-0.046,0.283,67.38,64.1,40.523624,-3.414675,636.7,3,5,310.8,3.516
68.12,1,-0.0,-0.033,0.018,-0.038,-0.044,0.006,-1.565,-0.045,0.283,67.38,64.1,40.523624,-3.414675,636.7,3,5,310.8,3.516
68.22,1,0.043,0.068,0.051,0.013,0.012,0.028,-1.565,-0.045,0.284,67.38,64.1,40.523624,-3.414675,636.7,3,5,310.8,3.516
68.33,1,0.01,-0.0,-0.004,0.022,0.016,0.022,-1.562,-0.044,0.285,67.38,64.1,40.523624,-3.414675,636.7,3,5,310.8,3.516
68.42,1,-0.087,0.009,-0.011,-0.025,0.008,0.003,-1.561,-0.044,0.286,67.38,64.1,40.523624,-3.414675,636.7,3,5,310.8,3.516
68.53,1,-0.048,0.053,-0.01,-0.048,0.035,-0.006,-1.561,-0.043,0.286,67.38,64.1,40.523624,-3.414675,636.7,3,5,310.8,3.516
68.62,1,0.049,-0.069,0.042,-0.011,-0.013,0.01,-1.561,-0.042,0.286,67.38,64.1,40.523624,-3.414675,636.7,3,5,310.8,3.516
68.72,1,-0.008,-0.002,0.007,-0.002,-0.021,0.023,-1.559,-0.042,0.287,67.38,64.1,40.523624,-3.414675,636.7,3,5,310.8,3.516
68.82,1,-0.017,0.025,-0.027,-0.011,0.0,-0.009,-1.558,-0.042,0.288,67.38,64.1,40.523624,-3.414675,636.7,3,5,310.8,3.516
68.92,1,0.001,0.06,0.039,-0.006,0.045,0.004,-1.561,-0.042,0.29,67.38,64.1,40.523624,-3.414675,636.7,3,5,310.8,3.516
69.03,1,-0.018,-0.025,0.031,-0.003,0.017,0.031,-1.561,-0.041,0.291,68.41,63.8,40.523724,-3.414836,637.0,3,5,309.4,3.164
69.12,1,-0.014,-0.046,-0.0,-0.001,-0.03,0.019,-1.56,-0.041,0.293,68.41,63.8,40.523724,-3.414836,637.0,3,5,309.4,3.164
69.23,1,0.04,-0.135,0.036,-0.01,-0.066,0.011,-1.561,-0.041,0.295,68.41,63.8,40.523724,-3.414836,637.0,3,5,309.4,3.164
69.33,1,0.01,0.096,0.031,0.021,-0.015,0.039,-1.56,-0.041,0.297,68.41,63.8,40.523724,-3.414836,637.0,3,5,309.4,3.164
69.43,1,0.01,0.057,-0.025,0.008,0.03,-0.0,-1.557,-0.041,0.299,68.41,63.8,40.523724,-3.414836,637.0,3,5,309.4,3.164
69.53,1,0.001,-0.078,0.032,0.005,0.009,0.008,-1.559,-0.041,0.301,68.41,63.8,40.523724,-3.414836,637.0,3,5,309.4,3.164
69.63,1,-0.024,-0.088,0.019,-0.001,-0.063,0.02,-1.559,-0.04,0.303,68.41,63.8,40.523724,-3.414836,637.0,3,5,309.4,3.164
69.73,1,-0.054,-0.096,0.005,-0.024,-0.083,0.016,-1.558,-0.039,0.306,68.41,63.8,40.523724,-3.414836,637.0,3,5,309.4,3.164
69.83,1,-0.029,-0.117,-0.013,-0.036,-0.096,0.0,-1.557,-0.038,0.307,68.41,63.8,40.523724,-3.414836,637.0,3,5,309.4,3.164
69.93,1,0.023,0.053,0.04,-0.013,-0.062,0.011,-1.558,-0.038,0.309,68.41,63.8,40.523724,-3.414836,637.0,3,5,309.4,3.164
70.04,1,0.03,0.073,0.021,0.012,0.044,0.023,-1.558,-0.038,0.31,69.37,63.7,40.523823,-3.415,637.4,3,5,308.3,2.461
70.13,1,0.013,0.024,0.02,0.024,0.032,0.026,-1.557,-0.039,0.312,69.37,63.7,40.523823,-3.415,637.4,3,5,308.3,2.461
70.23,1,-0.115,-0.061,-0.046,-0.034,-0.004,-0.007,-1.556,-0.039,0.312,69.37,63.7,40.523823,-3.415,637.4,3,5,308.3,2.461
70.33,1,-0.001,0.019,0.04,-0.042,0.001,-0.0,-1.559,-0.04,0.313,69.37,63.7,40.523823,-3.415,637.4,3,5,308.3,2.461
70.43,1,-0.019,-0.03,0.031,-0.021,-0.02,0.03,-1.559,-0.04,0.313,69.37,63.7,40.523823,-3.415,637.4,3,5,308.3,2.461
70.53,1,-0.047,0.0,-0.01,-0.036,-0.013,0.008,-1.557,-0.039,0.313,69.37,63.7,40.523823,-3.415,637.4,3,5,308.3,2.461
70.63,1,0.01,0.087,0.022,-0.024,0.042,0.008,-1.558,-0.038,0.315,69.37,63.7,40.523823,-3.415,637.4,3,5,308.3,2.461
70.73,1,0.036,0.001,0.039,0.021,0.039,0.027,-1.558,-0.037,0.315,69.37,63.7,40.523823,-3.415,637.4,3,5,308.3,2.461
70.83,1,-0.062,-0.076,-0.018,-0.008,-0.02,0.016,-1.556,-0.037,0.315,69.37,63.7,40.523823,-3.415,637.4,3,5,308.3,2.461
70.93,1,0.014,0.044,0.002,-0.032,-0.034,-0.007,-1.555,-0.038,0.315,69.37,63.7,40.523823,-3.415,637.4,3,5,308.3,2.461
71.03,1,0.038,0.117,0.026,0.02,0.066,0.015,-1.557,-0.039,0.316,70.37,63.8,40.523918,-3.415166,638.3,3,5,306.9,2.461
71.14,1,0.012,0.109,0.047,0.013,0.073,0.025,-1.557,-0.038,0.317,70.37,63.8,40.523918,-3.415166,638.3,3,5,306.9,2.461
71.25,1,-0.021,-0.087,0.02,0.004,0.031,0.034,-1.554,-0.037,0.316,70.37,63.8,40.523918,-3.415166,638.3,3,5,306.9,2.461
71.34,1,-0.002,0.079,-0.006,-0.006,0.02,0.011,-1.552,-0.037,0.317,70.37,63.8,40.523918,-3.415166,638.3,3,5,306.9,2.461
71.44,1,0.024,0.032,0.012,0.012,0.056,0.007,-1.553,-0.036,0.317,70.37,63.8,40.523918,-3.415166,638.3,3,5,306.9,2.461
71.54,1,-0.037,-0.007,0.029,0.008,0.023,0.022,-1.555,-0.036,0.318,70.37,63.8,40.523918,-3.415166,638.3,3,5,306.9,2.461
71.64,1,-0.056,0.051,0.006,-0.049,0.036,0.01,-1.555,-0.036,0.319,70.37,63.8,40.523918,-3.415166,638.3,3,5,306.9,2.461
71.74,1,0.012,-0.035,0.046,-0.021,-0.013,0.026,-1.555,-0.035,0.319,70.37,63.8,40.523918,-3.415166,638.3,3,5,306.9,2.461
71.84,1,-0.026,0.017,-0.014,-0.02,0.002,0.011,-1.553,-0.033,0.319,70.37,63.8,40.523918,-3.415166,638.3,3,5,306.9,2.461
71.95,1,0.052,0.088,0.047,0.011,0.036,0.022,-1.553,-0.032,0.319,70.37,63.8,40.523918,-3.415166,638.3,3,5,306.9,2.461
72.04,1,0.003,0.042,0.028,0.025,0.059,0.034,-1.552,-0.032,0.32,71.37,65.1,40.52401,-3.415342,638.4,3,5,304.5,3.867
72.14,1,-0.024,0.032,0.0,-0.008,0.038,0.015,-1.551,-0.031,0.32,71.37,65.1,40.52401,-3.415342,638.4,3,5,304.5,3.867
72.24,1,0.032,0.04,0.047,0.004,0.035,0.024,-1.553,-0.031,0.32,71.37,65.1,40.52401,-3.415342,638.4,3,5,304.5,3.867
72.34,1,-0.049,0.046,0.004,-0.008,0.038,0.026,-1.552,-0.031,0.32,71.37,65.1,40.52401,-3.415342,638.4,3,5,304.5,3.867
72.44,1,0.001,0.084,0.024,-0.024,0.061,0.012,-1.553,-0.03,0.32,71.37,65.1,40.52401,-3.415342,638.4,3,5,304.5,3.867
72.54,1,0.022,0.036,0.047,0.014,0.059,0.038,-1.553,-0.03,0.32,71.37,65.1,40.52401,-3.415342,638.4,3,5,304.5,3.867
72.64,1,-0.013,-0.021,-0.008,0.0,0.019,0.019,-1.551,-0.03,0.32,71.37,65.1,40.52401,-3.415342,638.4,3,5,304.5,3.867
72.74,1,-0.014,0.075,0.006,-0.007,0.04,0.006,-1.551,-0.03,0.32,71.37,65.1,40.52401,-3.415342,638.4,3,5,304.5,3.867
72.85,1,0.051,0.055,0.045,0.017,0.048,0.025,-1.552,-0.029,0.32,71.37,65.1,40.52401,-3.415342,638.4,3,5,304.5,3.867
72.95,1,0.013,0.052,0.014,0.024,0.054,0.027,-1.561,-0.047,0.321,71.37,65.1,40.52401,-3.415342,638.4,3,5,304.5,3.867
73.06,1,-0.001,0.021,0.016,0.006,0.04,0.015,-1.568,-0.046,0.321,72.37,64.4,40.524097,-3.415513,638.7,3,5,303.8,3.164
73.16,1,-0.028,0.044,-0.022,-0.007,0.034,0.004,-1.57,-0.051,0.322,72.37,64.4,40.524097,-3.415513,638.7,3,5,303.8,3.164
73.24,1,-0.003,-0.009,0.007,-0.011,0.019,-0.004,-1.572,-0.05,0.323,72.37,64.4,40.524097,-3.415513,638.7,3,5,303.8,3.164
73.34,1,0.006,-0.038,0.017,0.002,-0.009,0.011,-1.573,-0.05,0.323,72.37,64.4,40.524097,-3.415513,638.7,3,5,303.8,3.164
73.45,1,0.037,-0.01,0.006,0.018,-0.017,0.01,-1.571,-0.05,0.324,72.37,64.4,40.524097,-3.415513,638.7,3,5,303.8,3.164
73.54,1,-0.008,-0.008,-0.004,-0.002,-0.011,-0.0,-1.565,-0.047,0.324,72.37,64.4,40.524097,-3.415513,638.7,3,5,303.8,3.164
73.65,1,0.051,0.039,0.017,0.03,0.012,0.011,-1.563,-0.051,0.325,72.37,64.4,40.524097,-3.415513,638.7,3,5,303.8,3.164
73.75,1,-0.01,-0.009,-0.019,0.018,0.014,-0.003,-1.564,-0.061,0.326,72.37,64.4,40.524097,-3.415513,638.7,3,5,303.8,3.164
73.85,1,-0.019,-0.043,0.02,-0.006,-0.018,0.005,-1.565,-0.06,0.326,72.37,64.4,40.524097,-3.415513,638.7,3,5,303.8,3.164
73.95,1,-0.074,-0.041,-0.005,-0.042,-0.031,-0.002,-1.566,-0.059,0.326,72.37,64.4,40.524097,-3.415513,638.7,3,5,303.8,3.164
74.05,1,0.023,0.002,0.049,-0.019,-0.027,0.027,-1.566,-0.058,0.327,73.38,64.9,40.524185,-3.415692,638.9,3,5,302.3,2.109
74.16,1,0.001,0.028,-0.032,-0.003,0.004,0.006,-1.564,-0.058,0.327,73.38,64.9,40.524185,-3.415692,638.9,3,5,302.3,2.109
74.26,1,-0.01,-0.018,0.007,-0.004,0.005,-0.005,-1.564,-0.057,0.328,73.38,64.9,40.524185,-3.415692,638.9,3,5,302.3,2.109
74.35,1,0.038,0.047,0.013,0.01,0.006,0.008,-1.565,-0.056,0.328,73.38,64.9,40.524185,-3.415692,638.9,3,5,302.3,2.109
74.45,1,-0.044,0.043,-0.008,-0.003,0.034,0.0,-1.565,-0.056,0.329,73.38,64.9,40.524185,-3.415692,638.9,3,5,302.3,2.109
74.55,1,0.014,-0.084,0.022,-0.001,-0.012,0.01,-1.565,-0.056,0.329,73.38,64.9,40.524185,-3.415692,638.9,3,5,302.3,2.109
74.65,1,-0.044,0.018,-0.017,-0.026,-0.017,-0.0,-1.564,-0.057,0.329,73.38,64.9,40.524185,-3.415692,638.9,3,5,302.3,2.109
74.75,1,0.032,0.023,0.024,0.0,0.021,0.007,-1.564,-0.058,0.33,73.38,64.9,40.524185,-3.415692,638.9,3,5,302.3,2.109
74.86,1,-0.021,-0.003,0.001,0.002,0.0,0.008,-1.563,-0.058,0.33,73.38,64.9,40.524185,-3.415692,638.9,3,5,302.3,2.109
74.95,1,-0.023,0.048,0.002,-0.015,0.013,-0.0,-1.564,-0.057,0.331,73.38,64.9,40.524185,-3.415692,638.9,3,5,302.3,2.109
75.05,1,-0.016,-0.065,0.013,-0.022,-0.0,0.006,-1.565,-0.056,0.332,74.39,65.5,40.524273,-3.415872,638.9,3,5,301.3,2.461
75.15,1,-0.012,0.022,0.019,-0.008,-0.014,0.018,-1.565,-0.056,0.332,74.39,65.5,40.524273,-3.415872,638.9,3,5,301.3,2.461
75.25,1,0.027,0.004,0.006,-0.004,0.008,0.007,-1.563,-0.055,0.333,74.39,65.5,40.524273,-3.415872,638.9,3,5,301.3,2.461
75.36,1,0.025,0.006,0.008,0.02,0.01,0.01,-1.563,-0.055,0.334,74.39,65.5,40.524273,-3.415872,638.9,3,5,301.3,2.461
75.45,1,-0.023,-0.06,0.0,0.002,-0.027,0.006,-1.563,-0.054,0.335,74.39,65.5,40.524273,-3.415872,638.9,3,5,301.3,2.461
75.55,1,0.003,0.017,0.014,-0.004,-0.018,0.011,-1.562,-0.054,0.335,74.39,65.5,40.524273,-3.415872,638.9,3,5,301.3,2.461
75.65,1,-0.001,-0.02,-0.002,0.001,-0.004,0.003,-1.563,-0.055,0.337,74.39,65.5,40.524273,-3.415872,638.9,3,5,301.3,2.461
75.76,1,0.004,-0.065,0.001,0.004,-0.036,0.003,-1.563,-0.055,0.337,74.39,65.5,40.524273,-3.415872,638.9,3,5,301.3,2.461
75.86,1,-0.03,-0.061,-0.008,-0.017,-0.058,-0.005,-1.563,-0.055,0.339,74.39,65.5,40.524273,-3.415872,638.9,3,5,301.3,2.461
75.96,1,0.018,-0.006,0.024,-0.001,-0.032,0.013,-1.563,-0.054,0.34,74.39,65.5,40.524273,-3.415872,638.9,3,5,301.3,2.461
76.06,1,-0.023,-0.027,-0.016,-0.009,-0.018,0.001,-1.562,-0.054,0.341,75.38,66.1,40.524353,-3.416063,639.1,3,5,299.9,2.461
76.16,1,-0.002,0.002,-0.002,-0.005,-0.023,-0.008,-1.563,-0.054,0.342,75.38,66.1,40.524353,-3.416063,639.1,3,5,299.9,2.461
76.26,1,0.019,-0.045,0.021,0.003,-0.016,0.007,-1.563,-0.053,0.343,75.38,66.1,40.524353,-3.416063,639.1,3,5,299.9,2.461
76.36,1,0.008,-0.056,-0.012,0.009,-0.044,0.002,-1.562,-0.053,0.344,75.38,66.1,40.524353,-3.416063,639.1,3,5,299.9,2.461
76.46,1,0.024,0.0,-0.003,0.012,-0.027,-0.006,-1.56,-0.053,0.345,75.38,66.1,40.524353,-3.416063,639.1,3,5,299.9,2.461
76.57,1,0.018,-0.008,-0.012,0.018,-0.013,-0.007,-1.56,-0.053,0.346,75.38,66.1,40.524353,-3.416063,639.1,3,5,299.9,2.461
76.66,1,-0.001,0.014,0.009,0.016,-0.004,0.002,-1.561,-0.054,0.347,75.38,66.1,40.524353,-3.416063,639.1,3,5,299.9,2.461
76.76,1,0.032,-0.035,-0.0,0.013,-0.011,0.002,-1.559,-0.053,0.348,75.38,66.1,40.524353,-3.416063,639.1,3,5,299.9,2.461
76.86,1,-0.02,-0.006,-0.007,0.011,-0.017,-0.006,-1.554,-0.055,0.349,75.38,66.1,40.524353,-3.416063,639.1,3,5,299.9,2.461
76.96,1,-0.023,-0.003,0.018,-0.019,-0.009,0.007,-1.551,-0.056,0.349,75.38,66.1,40.524353,-3.416063,639.1,3,5,299.9,2.461
77.06,1,-0.022,-0.014,-0.007,-0.014,-0.008,0.004,-1.552,-0.058,0.35,76.37,66.8,40.524433,-3.416257,639.2,3,5,298.5,2.812
77.16,1,-0.001,-0.024,0.019,-0.011,-0.014,0.006,-1.554,-0.054,0.351,76.37,66.8,40.524433,-3.416257,639.2,3,5,298.5,2.812
77.27,1,-0.03,-0.015,-0.01,-0.017,-0.017,0.004,-1.556,-0.052,0.352,76.37,66.8,40.524433,-3.416257,639.2,3,5,298.5,2.812
77.36,1,0.054,-0.009,0.012,0.012,-0.015,0.004,-1.559,-0.049,0.352,76.37,66.8,40.524433,-3.416257,639.2,3,5,298.5,2.812
77.46,1,-0.001,-0.011,-0.0,0.01,-0.009,0.003,-1.558,-0.049,0.353,76.37,66.8,40.524433,-3.416257,639.2,3,5,298.5,2.812
77.57,1,0.02,-0.007,-0.006,0.016,-0.008,0.0,-1.557,-0.047,0.354,76.37,66.8,40.524433,-3.416257,639.2,3,5,298.5,2.812
77.68,1,-0.019,-0.011,-0.027,-0.008,-0.001,-0.017,-1.555,-0.048,0.356,76.37,66.8,40.524433,-3.416257,639.2,3,5,298.5,2.812
77.77,1,-0.003,-0.059,0.02,0.005,-0.036,0.002,-1.555,-0.048,0.357,76.37,66.8,40.524433,-3.416257,639.2,3,5,298.5,2.812
77.86,1,-0.011,0.011,-0.01,-0.008,-0.021,0.0,-1.555,-0.048,0.358,76.37,66.8,40.524433,-3.416257,639.2,3,5,298.5,2.812
77.96,1,0.012,-0.013,0.003,-0.003,-0.011,-0.002,-1.555,-0.048,0.359,76.37,66.8,40.524433,-3.416257,639.2,3,5,298.5,2.812
78.07,1,0.022,0.016,0.02,0.012,0.004,0.01,-1.553,-0.045,0.361,77.38,67.5,40.524502,-3.416455,639.4,3,5,296.7,3.164
78.17,1,0.028,-0.036,-0.005,0.025,-0.012,0.003,-1.552,-0.045,0.362,77.38,67.5,40.524502,-3.416455,639.4,3,5,296.7,3.164
78.27,1,-0.018,0.021,0.007,0.004,-0.01,0.004,-1.552,-0.045,0.363,77.38,67.5,40.524502,-3.416455,639.4,3,5,296.7,3.164
78.37,1,0.031,-0.034,0.006,0.011,-0.009,0.009,-1.553,-0.049,0.365,77.38,67.5,40.524502,-3.416455,639.4,3,5,296.7,3.164
78.47,1,-0.06,-0.005,-0.007,-0.024,-0.014,-0.004,-1.553,-0.049,0.366,77.38,67.5,40.524502,-3.416455,639.4,3,5,296.7,3.164
78.57,1,0.022,-0.039,-0.014,-0.005,-0.023,-0.007,-1.554,-0.044,0.367,77.38,67.5,40.524502,-3.416455,639.4,3,5,296.7,3.164
78.67,1,-0.026,0.011,0.009,-0.023,-0.009,-0.008,-1.557,-0.037,0.369,77.38,67.5,40.524502,-3.416455,639.4,3,5,296.7,3.164
78.77,1,-0.031,0.015,-0.004,-0.014,0.003,0.01,-1.556,-0.035,0.37,77.38,67.5,40.524502,-3.416455,639.4,3,5,296.7,3.164
78.87,1,0.0,0.03,-0.029,-0.01,0.014,-0.02,-1.553,-0.032,0.371,77.38,67.5,40.524502,-3.416455,639.4,3,5,296.7,3.164
78.97,1,0.075,0.044,0.035,0.03,0.027,0.01,-1.553,-0.027,0.373,77.38,67.5,40.524502,-3.416455,639.4,3,5,296.7,3.164
79.07,1,-0.016,-0.021,-0.037,0.024,0.016,-0.006,-1.551,-0.027,0.375,78.38,68.1,40.524574,-3.41666,639.6,3,5,295.0,3.516
79.17,1,0.0,-0.011,-0.006,0.002,-0.007,-0.017,-1.552,-0.028,0.376,78.38,68.1,40.524574,-3.41666,639.6,3,5,295.0,3.516
79.27,1,0.009,0.016,0.016,0.004,0.004,0.006,-1.557,-0.034,0.376,78.38,68.1,40.524574,-3.41666,639.6,3,5,295.0,3.516
79.38,1,0.02,0.036,0.006,0.011,0.019,0.003,-1.557,-0.041,0.375,78.38,68.1,40.524574,-3.41666,639.6,3,5,295.0,3.516
79.48,1,-0.021,0.021,-0.002,0.0,0.023,-0.001,-1.559,-0.046,0.375,78.38,68.1,40.524574,-3.41666,639.6,3,5,295.0,3.516
79.57,1,0.068,0.032,0.047,0.028,0.027,0.022,-1.559,-0.049,0.375,78.38,68.1,40.524574,-3.41666,639.6,3,5,295.0,3.516
79.67,1,-0.052,0.014,-0.077,0.001,0.025,-0.012,-1.556,-0.056,0.374,78.38,68.1,40.524574,-3.41666,639.6,3,5,295.0,3.516
79.77,1,-0.016,0.018,-0.008,-0.029,0.014,-0.033,-1.555,-0.055,0.374,78.38,68.1,40.524574,-3.41666,639.6,3,5,295.0,3.516
79.87,1,-0.034,0.002,0.012,-0.008,0.013,0.005,-1.556,-0.054,0.373,78.38,68.1,40.524574,-3.41666,639.6,3,5,295.0,3.516
79.98,1,-0.027,0.002,-0.019,-0.038,0.008,-0.016,-1.556,-0.054,0.372,78.38,68.1,40.524574,-3.41666,639.6,3,5,295.0,3.516
80.07,1,0.05,-0.027,0.019,0.013,-0.012,0.007,-1.558,-0.057,0.37,79.39,68.8,40.524647,-3.416864,639.3,3,5,293.2,3.516
80.17,1,0.021,0.008,0.003,0.014,-0.001,0.008,-1.557,-0.057,0.369,79.39,68.8,40.524647,-3.416864,639.3,3,5,293.2,3.516
80.28,1,0.017,-0.019,-0.016,0.021,-0.006,-0.005,-1.556,-0.056,0.368,79.39,68.8,40.524647,-3.416864,639.3,3,5,293.2,3.516
80.38,1,0.006,0.043,0.0,0.019,0.012,-0.007,-1.556,-0.055,0.367,79.39,68.8,40.524647,-3.416864,639.3,3,5,293.2,3.516
80.48,1,-0.029,0.032,-0.007,0.002,0.027,-0.003,-1.556,-0.054,0.366,79.39,68.8,40.524647,-3.416864,639.3,3,5,293.2,3.516
80.58,1,-0.003,-0.018,0.003,-0.015,0.004,-0.003,-1.556,-0.052,0.364,79.39,68.8,40.524647,-3.416864,639.3,3,5,293.2,3.516
80.68,1,-0.148,0.017,-0.057,-0.067,0.001,-0.022,-1.557,-0.052,0.363,79.39,68.8,40.524647,-3.416864,639.3,3,5,293.2,3.516
80.78,1,-0.02,-0.031,0.031,-0.068,-0.006,-0.012,-1.561,-0.051,0.361,79.39,68.8,40.524647,-3.416864,639.3,3,5,293.2,3.516
80.88,1,0.012,0.032,-0.0,-0.026,-0.003,0.005,-1.562,-0.057,0.359,79.39,68.8,40.524647,-3.416864,639.3,3,5,293.2,3.516
80.98,1,0.096,0.041,0.065,0.03,0.037,0.028,-1.559,-0.055,0.358,79.39,68.8,40.524647,-3.416864,639.3,3,5,293.2,3.516
81.08,1,0.005,0.005,-0.078,0.039,0.022,-0.005,-1.552,-0.054,0.356,80.35,69.5,40.524708,-3.417072,639.2,3,5,291.4,3.516
81.18,1,0.087,0.029,0.03,0.052,0.021,-0.015,-1.552,-0.052,0.355,80.35,69.5,40.524708,-3.417072,639.2,3,5,291.4,3.516
81.28,1,0.007,0.019,-0.012,0.043,0.022,0.005,-1.553,-0.05,0.354,80.35,69.5,40.524708,-3.417072,639.2,3,5,291.4,3.516
81.38,1,-0.049,0.017,0.011,0.001,0.016,-0.001,-1.555,-0.048,0.353,80.35,69.5,40.524708,-3.417072,639.2,3,5,291.4,3.516
81.48,1,-0.056,-0.014,-0.001,-0.034,0.014,0.003,-1.557,-0.046,0.352,80.35,69.5,40.524708,-3.417072,639.2,3,5,291.4,3.516
81.58,1,-0.032,-0.033,-0.003,-0.047,-0.008,0.001,-1.559,-0.045,0.352,80.35,69.5,40.524708,-3.417072,639.2,3,5,291.4,3.516
81.68,1,-0.055,-0.005,-0.01,-0.049,-0.021,-0.008,-1.56,-0.045,0.351,80.35,69.5,40.524708,-3.417072,639.2,3,5,291.4,3.516
81.78,1,0.013,-0.017,0.011,-0.017,-0.019,0.005,-1.561,-0.041,0.35,80.35,69.5,40.524708,-3.417072,639.2,3,5,291.4,3.516
81.89,1,-0.051,-0.007,-0.039,-0.029,-0.013,-0.02,-1.556,-0.039,0.349,80.35,69.5,40.524708,-3.417072,639.2,3,5,291.4,3.516
81.98,1,0.067,0.014,0.054,0.003,-0.002,0.01,-1.56,-0.039,0.349,80.35,69.5,40.524708,-3.417072,639.2,3,5,291.4,3.516
82.09,1,-0.034,-0.024,-0.07,0.002,-0.011,-0.01,-1.56,-0.04,0.348,81.35,70.4,40.524769,-3.417292,639.0,3,5,290.0,3.164
82.18,1,0.008,-0.01,-0.021,-0.001,-0.007,-0.033,-1.559,-0.039,0.348,81.35,70.4,40.524769,-3.417292,639.0,3,5,290.0,3.164
82.3,1,-0.057,0.026,-0.054,-0.019,0.001,-0.035,-1.559,-0.04,0.347,81.35,70.4,40.524769,-3.417292,639.0,3,5,290.0,3.164
82.39,1,0.033,0.04,0.01,-0.014,0.025,-0.024,-1.555,-0.049,0.347,81.35,70.4,40.524769,-3.417292,639.0,3,5,290.0,3.164
82.49,1,-0.032,-0.035,-0.007,-0.008,-0.001,-0.005,-1.555,-0.048,0.347,81.35,70.4,40.524769,-3.417292,639.0,3,5,290.0,3.164
82.59,1,0.04,-0.002,-0.022,0.003,-0.006,-0.017,-1.554,-0.048,0.346,81.35,70.4,40.524769,-3.417292,639.0,3,5,290.0,3.164
82.69,1,-0.03,0.016,-0.014,0.009,0.007,-0.017,-1.553,-0.046,0.346,81.35,70.4,40.524769,-3.417292,639.0,3,5,290.0,3.164
82.8,1,-0.065,-0.044,-0.027,-0.03,-0.008,-0.017,-1.554,-0.046,0.346,81.35,70.4,40.524769,-3.417292,639.0,3,5,290.0,3.164
82.89,1,-0.023,-0.035,-0.009,-0.033,-0.029,-0.014,-1.556,-0.046,0.346,81.35,70.4,40.524769,-3.417292,639.0,3,5,290.0,3.164
82.99,1,-0.106,-0.052,-0.046,-0.061,-0.042,-0.028,-1.556,-0.045,0.345,81.35,70.4,40.524769,-3.417292,639.0,3,5,290.0,3.164
83.09,1,0.054,-0.043,0.031,-0.032,-0.043,-0.011,-1.557,-0.044,0.344,82.38,71.4,40.52483,-3.417508,638.7,3,5,289.7,1.758
83.19,1,-0.045,0.016,-0.063,-0.019,-0.016,-0.02,-1.555,-0.041,0.344,82.38,71.4,40.52483,-3.417508,638.7,3,5,289.7,1.758
83.3,1,-0.017,-0.034,-0.021,-0.022,-0.019,-0.035,-1.556,-0.039,0.344,82.38,71.4,40.52483,-3.417508,638.7,3,5,289.7,1.758
83.39,1,0.02,-0.008,0.001,-0.001,-0.021,-0.012,-1.556,-0.037,0.343,82.38,71.4,40.52483,-3.417508,638.7,3,5,289.7,1.758
83.49,1,0.02,0.019,-0.005,0.008,-0.001,-0.005,-1.55,-0.031,0.343,82.38,71.4,40.52483,-3.417508,638.7,3,5,289.7,1.758
83.59,1,-0.021,0.018,-0.041,0.001,0.012,-0.022,-1.546,-0.018,0.342,82.38,71.4,40.52483,-3.417508,638.7,3,5,289.7,1.758
83.69,1,0.009,-0.017,0.006,0.006,-0.002,-0.011,-1.545,-0.017,0.341,82.38,71.4,40.52483,-3.417508,638.7,3,5,289.7,1.758
83.8,1,-0.096,-0.02,-0.07,-0.045,-0.008,-0.036,-1.544,-0.016,0.34,82.38,71.4,40.52483,-3.417508,638.7,3,5,289.7,1.758
83.89,1,0.025,0.023,-0.016,-0.03,-0.001,-0.037,-1.539,-0.013,0.339,82.38,71.4,40.52483,-3.417508,638.7,3,5,289.7,1.758
84.0,1,0.018,0.029,-0.015,0.013,0.022,-0.019,-1.536,-0.011,0.338,82.38,71.4,40.52483,-3.417508,638.7,3,5,289.7,1.758
84.1,1,-0.068,-0.002,-0.063,-0.017,0.013,-0.033,-1.531,-0.011,0.337,83.38,72.5,40.524887,-3.417731,638.5,3,5,288.6,1.406
84.19,1,0.007,-0.004,-0.028,-0.032,0.001,-0.045,-1.526,-0.011,0.337,83.38,72.5,40.524887,-3.417731,638.5,3,5,288.6,1.406
84.29,1,-0.054,-0.035,-0.041,-0.022,-0.011,-0.036,-1.525,-0.014,0.336,83.38,72.5,40.524887,-3.417731,638.5,3,5,288.6,1.406
84.39,1,-0.02,-0.093,-0.028,-0.044,-0.049,-0.037,-1.525,-0.013,0.335,83.38,72.5,40.524887,-3.417731,638.5,3,5,288.6,1.406
84.5,1,0.001,0.039,-0.001,-0.007,-0.033,-0.02,-1.526,-0.012,0.334,83.38,72.5,40.524887,-3.417731,638.5,3,5,288.6,1.406
84.6,1,0.032,0.007,-0.031,0.011,0.001,-0.021,-1.526,-0.01,0.333,83.38,72.5,40.524887,-3.417731,638.5,3,5,288.6,1.406
84.7,1,0.028,0.012,-0.012,0.019,0.009,-0.019,-1.526,-0.009,0.332,83.38,72.5,40.524887,-3.417731,638.5,3,5,288.6,1.406
84.8,1,0.04,-0.009,-0.011,0.035,0.002,-0.008,-1.524,-0.008,0.331,83.38,72.5,40.524887,-3.417731,638.5,3,5,288.6,1.406
84.9,1,-0.027,0.032,-0.03,0.011,0.013,-0.022,-1.518,-0.004,0.33,83.38,72.5,40.524887,-3.417731,638.5,3,5,288.6,1.406
85.0,1,0.012,0.016,0.04,-0.002,0.027,-0.003,-1.52,-0.009,0.329,83.38,72.5,40.524887,-3.417731,638.5,3,5,288.6,1.406
85.11,1,0.037,-0.011,0.022,0.025,0.001,0.024,-1.522,-0.011,0.327,84.38,73.3,40.52494,-3.417962,638.0,3,5,287.6,2.109
85.2,1,-0.026,0.006,-0.043,0.001,-0.002,-0.009,-1.517,-0.009,0.326,84.38,73.3,40.52494,-3.417962,638.0,3,5,287.6,2.109
85.3,1,0.029,0.001,0.017,0.002,0.003,-0.007,-1.518,-0.009,0.325,84.38,73.3,40.52494,-3.417962,638.0,3,5,287.6,2.109
85.4,1,-0.005,0.049,-0.01,0.012,0.02,0.003,-1.52,-0.007,0.324,84.38,73.3,40.52494,-3.417962,638.0,3,5,287.6,2.109
85.51,1,0.005,0.009,0.0,0.001,0.023,-0.003,-1.521,-0.005,0.322,84.38,73.3,40.52494,-3.417962,638.0,3,5,287.6,2.109
85.6,1,-0.001,0.002,-0.017,0.005,0.016,-0.009,-1.524,-0.002,0.32,84.38,73.3,40.52494,-3.417962,638.0,3,5,287.6,2.109
85.7,1,-0.051,0.059,0.004,-0.023,0.027,-0.006,-1.525,0.0,0.318,84.38,73.3,40.52494,-3.417962,638.0,3,5,287.6,2.109
85.81,1,-0.039,0.029,-0.022,-0.037,0.039,-0.009,-1.527,0.006,0.316,84.38,73.3,40.52494,-3.417962,638.0,3,5,287.6,2.109
85.9,1,-0.042,0.03,-0.002,-0.042,0.026,-0.013,-1.528,0.007,0.314,84.38,73.3,40.52494,-3.417962,638.0,3,5,287.6,2.109
86.0,1,0.03,0.017,0.028,-0.007,0.025,0.01,-1.529,0.005,0.312,84.38,73.3,40.52494,-3.417962,638.0,3,5,287.6,2.109
86.1,1,-0.083,0.0,-0.076,-0.021,0.011,-0.018,-1.526,0.005,0.309,85.35,73.4,40.52499,-3.418192,637.6,3,5,286.5,2.109
86.21,1,0.059,0.025,0.048,-0.004,0.02,-0.01,-1.526,-0.003,0.306,85.35,73.4,40.52499,-3.418192,637.6,3,5,286.5,2.109
86.3,1,0.028,0.056,0.004,0.033,0.033,0.022,-1.525,-0.002,0.302,85.35,73.4,40.52499,-3.418192,637.6,3,5,286.5,2.109
86.4,1,-0.025,0.033,-0.023,-0.015,0.038,-0.018,-1.525,-0.003,0.299,85.35,73.4,40.52499,-3.418192,637.6,3,5,286.5,2.109
86.5,1,0.021,0.062,0.041,0.003,0.044,0.009,-1.527,-0.009,0.295,85.35,73.4,40.52499,-3.418192,637.6,3,5,286.5,2.109
86.6,1,-0.021,0.038,-0.03,-0.005,0.051,0.004,-1.527,-0.013,0.291,85.35,73.4,40.52499,-3.418192,637.6,3,5,286.5,2.109
86.71,1,-0.037,0.033,-0.058,-0.012,0.033,-0.03,-1.521,-0.016,0.287,85.35,73.4,40.52499,-3.418192,637.6,3,5,286.5,2.109
86.81,1,0.031,-0.001,0.034,-0.007,0.025,-0.013,-1.522,-0.02,0.283,85.35,73.4,40.52499,-3.418192,637.6,3,5,286.5,2.109
86.91,1,0.029,-0.003,0.012,0.017,0.003,0.012,-1.524,-0.022,0.279,85.35,73.4,40.52499,-3.418192,637.6,3,5,286.5,2.109
87.01,1,-0.017,0.005,-0.022,0.006,0.005,-0.001,-1.52,-0.026,0.275,85.35,73.4,40.52499,-3.418192,637.6,3,5,286.5,2.109
87.11,1,-0.02,0.061,-0.041,-0.017,0.026,-0.03,-1.514,-0.028,0.273,86.38,73.0,40.52504,-3.418425,636.8,3,5,285.8,1.758
87.21,1,-0.018,0.029,0.026,-0.016,0.035,-0.004,-1.515,-0.031,0.271,86.38,73.0,40.52504,-3.418425,636.8,3,5,285.8,1.758
87.31,1,-0.015,0.004,-0.017,-0.015,0.023,-0.003,-1.516,-0.029,0.268,86.38,73.0,40.52504,-3.418425,636.8,3,5,285.8,1.758
87.42,1,-0.033,-0.002,-0.02,-0.023,0.011,-0.016,-1.517,-0.025,0.266,86.38,73.0,40.52504,-3.418425,636.8,3,5,285.8,1.758
87.51,1,-0.005,-0.018,-0.01,-0.019,-0.007,-0.007,-1.517,-0.02,0.264,86.38,73.0,40.52504,-3.418425,636.8,3,5,285.8,1.758
87.61,1,0.018,-0.004,-0.056,0.001,-0.006,-0.033,-1.512,-0.018,0.262,86.38,73.0,40.52504,-3.418425,636.8,3,5,285.8,1.758
87.71,1,0.02,-0.016,-0.105,0.014,-0.007,-0.065,-1.503,-0.017,0.259,86.38,73.0,40.52504,-3.418425,636.8,3,5,285.8,1.758
87.81,1,-0.015,0.003,-0.082,0.0,-0.002,-0.086,-1.492,-0.017,0.257,86.38,73.0,40.52504,-3.418425,636.8,3,5,285.8,1.758
87.91,1,0.018,0.012,-0.018,0.006,-0.004,-0.058,-1.49,-0.015,0.255,86.38,73.0,40.52504,-3.418425,636.8,3,5,285.8,1.758
88.02,1,-0.052,-0.008,0.033,-0.012,0.0,-0.009,-1.492,-0.013,0.251,86.38,73.0,40.52504,-3.418425,636.8,3,5,285.8,1.758
88.11,1,0.002,0.008,0.019,-0.019,0.003,0.015,-1.494,-0.011,0.249,87.38,72.7,40.525089,-3.418654,636.7,3,5,285.5,1.055
88.21,1,-0.022,0.018,-0.008,-0.013,0.01,0.005,-1.493,-0.01,0.246,87.38,72.7,40.525089,-3.418654,636.7,3,5,285.5,1.055
88.31,1,-0.009,0.011,0.014,-0.015,0.012,0.003,-1.495,-0.007,0.243,87.38,72.7,40.525089,-3.418654,636.7,3,5,285.5,1.055
88.41,1,0.032,0.02,0.033,0.009,0.015,0.019,-1.496,-0.007,0.24,87.38,72.7,40.525089,-3.418654,636.7,3,5,285.5,1.055
88.52,1,-0.032,-0.005,-0.014,-0.002,0.008,0.007,-1.497,-0.006,0.237,87.38,72.7,40.525089,-3.418654,636.7,3,5,285.5,1.055
88.62,1,0.02,0.008,0.04,-0.01,0.006,0.016,-1.5,-0.005,0.235,87.38,72.7,40.525089,-3.418654,636.7,3,5,285.5,1.055
88.71,1,-0.0,0.015,-0.002,0.019,0.009,0.023,-1.502,-0.005,0.232,87.38,72.7,40.525089,-3.418654,636.7,3,5,285.5,1.055
88.81,1,-0.045,0.003,-0.01,-0.023,0.004,-0.005,-1.503,-0.006,0.229,87.38,72.7,40.525089,-3.418654,636.7,3,5,285.5,1.055
88.92,1,0.018,-0.023,0.039,-0.016,-0.003,0.014,-1.507,-0.005,0.226,87.38,72.7,40.525089,-3.418654,636.7,3,5,285.5,1.055
89.02,1,0.007,0.028,0.025,0.016,0.001,0.027,-1.508,-0.008,0.223,87.38,72.7,40.525089,-3.418654,636.7,3,5,285.5,1.055
89.12,1,-0.03,-0.029,-0.025,-0.013,-0.001,0.001,-1.508,-0.004,0.22,88.35,72.8,40.525139,-3.418884,635.9,3,5,285.8,0.352
89.22,1,0.008,-0.029,0.04,-0.007,-0.014,0.011,-1.509,-0.004,0.217,88.35,72.8,40.525139,-3.418884,635.9,3,5,285.8,0.352
89.32,1,-0.028,-0.045,-0.009,-0.009,-0.037,0.015,-1.51,-0.006,0.214,88.35,72.8,40.525139,-3.418884,635.9,3,5,285.8,0.352
89.42,1,0.005,-0.011,-0.003,-0.026,-0.025,-0.005,-1.51,-0.006,0.211,88.35,72.8,40.525139,-3.418884,635.9,3,5,285.8,0.352
89.52,1,-0.0,0.049,0.014,0.003,0.005,0.007,-1.511,-0.003,0.208,88.35,72.8,40.525139,-3.418884,635.9,3,5,285.8,0.352
89.62,1,0.048,0.018,0.001,0.024,0.021,0.009,-1.511,0.001,0.205,88.35,72.8,40.525139,-3.418884,635.9,3,5,285.8,0.352
89.72,1,-0.022,-0.029,-0.043,0.011,-0.004,-0.018,-1.509,0.004,0.202,88.35,72.8,40.525139,-3.418884,635.9,3,5,285.8,0.352
89.82,1,-0.023,0.027,0.015,-0.019,0.008,-0.014,-1.511,0.006,0.2,88.35,72.8,40.525139,-3.418884,635.9,3,5,285.8,0.352
89.92,1,0.001,-0.032,0.037,-0.003,-0.004,0.018,-1.514,0.002,0.198,88.35,72.8,40.525139,-3.418884,635.9,3,5,285.8,0.352
90.02,1,-0.036,-0.007,-0.007,-0.019,-0.015,0.011,-1.514,0.005,0.195,88.35,72.8,40.525139,-3.418884,635.9,3,5,285.8,0.352
90.12,1,-0.02,0.001,0.007,-0.02,-0.007,0.008,-1.517,0.007,0.193,89.35,71.6,40.525188,-3.419108,635.2,3,5,284.4,1.406
90.22,1,0.014,-0.025,-0.005,-0.01,-0.01,0.001,-1.517,0.009,0.19,89.35,71.6,40.525188,-3.419108,635.2,3,5,284.4,1.406
90.32,1,-0.013,0.017,0.015,0.001,-0.0,0.005,-1.519,0.008,0.188,89.35,71.6,40.525188,-3.419108,635.2,3,5,284.4,1.406
90.42,1,0.041,-0.022,0.009,0.007,-0.008,0.012,-1.519,0.009,0.185,89.35,71.6,40.525188,-3.419108,635.2,3,5,284.4,1.406
90.52,1,-0.036,-0.01,-0.006,-0.004,-0.007,-0.002,-1.519,0.011,0.182,89.35,71.6,40.525188,-3.419108,635.2,3,5,284.4,1.406
90.62,1,0.044,-0.027,0.014,0.019,-0.022,0.011,-1.519,0.01,0.18,89.35,71.6,40.525188,-3.419108,635.2,3,5,284.4,1.406
90.72,1,-0.022,-0.01,-0.017,-0.004,-0.011,-0.003,-1.518,0.014,0.177,89.35,71.6,40.525188,-3.419108,635.2,3,5,284.4,1.406
90.83,1,-0.024,0.012,-0.016,-0.01,-0.002,-0.013,-1.519,0.016,0.175,89.35,71.6,40.525188,-3.419108,635.2,3,5,284.4,1.406
90.92,1,0.01,-0.016,0.011,-0.021,-0.011,-0.006,-1.521,0.014,0.172,89.35,71.6,40.525188,-3.419108,635.2,3,5,284.4,1.406
91.02,1,0.018,0.017,0.013,0.016,0.002,0.013,-1.521,0.014,0.169,89.35,71.6,40.525188,-3.419108,635.2,3,5,284.4,1.406
91.13,1,0.01,0.022,-0.022,0.018,0.01,-0.004,-1.519,0.013,0.166,90.36,71.7,40.525234,-3.419332,635.0,3,5,286.9,2.461
91.23,1,-0.013,-0.006,0.005,-0.002,0.007,-0.006,-1.518,0.009,0.162,90.36,71.7,40.525234,-3.419332,635.0,3,5,286.9,2.461
91.33,1,-0.054,-0.0,-0.051,-0.011,-0.001,-0.017,-1.518,0.009,0.159,90.36,71.7,40.525234,-3.419332,635.0,3,5,286.9,2.461
91.43,1,-0.052,-0.009,0.001,-0.056,0.002,-0.034,-1.521,0.013,0.155,90.36,71.7,40.525234,-3.419332,635.0,3,5,286.9,2.461
91.53,1,0.014,0.014,0.086,-0.02,0.002,0.038,-1.528,0.014,0.151,90.36,71.7,40.525234,-3.419332,635.0,3,5,286.9,2.461
91.63,1,0.013,0.017,-0.025,-0.008,0.009,0.023,-1.524,0.013,0.146,90.36,71.7,40.525234,-3.419332,635.0,3,5,286.9,2.461
91.73,1,0.027,0.055,-0.012,0.034,0.026,0.001,-1.521,0.007,0.141,90.36,71.7,40.525234,-3.419332,635.0,3,5,286.9,2.461
91.83,1,0.021,0.03,-0.038,0.015,0.04,-0.025,-1.521,0.006,0.137,90.36,71.7,40.525234,-3.419332,635.0,3,5,286.9,2.461
91.93,1,-0.023,0.03,0.004,-0.01,0.042,-0.02,-1.526,0.005,0.133,90.36,71.7,40.525234,-3.419332,635.0,3,5,286.9,2.461
92.03,1,-0.029,0.0,0.01,-0.021,0.02,0.001,-1.528,0.002,0.128,90.36,71.7,40.525234,-3.419332,635.0,3,5,286.9,2.461
92.13,1,-0.036,0.03,0.002,-0.024,0.016,0.003,-1.526,0.0,0.124,91.36,70.8,40.525288,-3.419555,634.2,3,5,287.9,3.516
92.23,1,-0.022,0.009,-0.002,-0.023,0.016,0.003,-1.524,-0.001,0.12,91.36,70.8,40.525288,-3.419555,634.2,3,5,287.9,3.516
92.33,1,-0.017,0.019,-0.004,-0.029,0.017,-0.003,-1.524,-0.001,0.115,91.36,70.8,40.525288,-3.419555,634.2,3,5,287.9,3.516
92.43,1,-0.039,0.019,-0.024,-0.008,0.004,-0.007,-1.523,0.002,0.111,91.36,70.8,40.525288,-3.419555,634.2,3,5,287.9,3.516
92.53,1,-0.001,0.006,-0.004,-0.023,0.019,-0.015,-1.524,0.002,0.107,91.36,70.8,40.525288,-3.419555,634.2,3,5,287.9,3.516
92.63,1,-0.089,0.018,0.003,-0.051,0.019,-0.006,-1.527,0.006,0.103,91.36,70.8,40.525288,-3.419555,634.2,3,5,287.9,3.516
92.73,1,0.027,-0.032,0.025,-0.029,-0.001,0.012,-1.53,0.01,0.098,91.36,70.8,40.525288,-3.419555,634.2,3,5,287.9,3.516
92.84,1,-0.12,0.049,-0.023,-0.046,0.01,-0.0,-1.527,0.011,0.093,91.36,70.8,40.525288,-3.419555,634.2,3,5,287.9,3.516
92.94,1,-0.028,0.002,-0.024,-0.058,0.013,-0.019,-1.527,0.013,0.089,91.36,70.8,40.525288,-3.419555,634.2,3,5,287.9,3.516
93.04,1,0.063,0.002,0.028,-0.004,0.009,0.007,-1.529,0.012,0.085,91.36,70.8,40.525288,-3.419555,634.2,3,5,287.9,3.516
93.14,1,-0.039,0.024,-0.025,-0.003,0.014,-0.007,-1.528,0.011,0.081,92.36,71.1,40.525349,-3.41978,633.8,3,5,288.3,1.406
93.24,1,0.032,0.011,0.019,-0.0,0.02,0.003,-1.526,0.01,0.077,92.36,71.1,40.525349,-3.41978,633.8,3,5,288.3,1.406
93.34,1,0.005,-0.009,-0.019,0.023,-0.0,-0.002,-1.524,0.01,0.072,92.36,71.1,40.525349,-3.41978,633.8,3,5,288.3,1.406
93.44,1,0.031,0.006,0.023,0.004,0.003,-0.004,-1.523,0.009,0.068,92.36,71.1,40.525349,-3.41978,633.8,3,5,288.3,1.406
93.54,1,-0.062,0.02,-0.011,-0.007,0.016,0.006,-1.523,0.01,0.064,92.36,71.1,40.525349,-3.41978,633.8,3,5,288.3,1.406
93.65,1,-0.004,-0.006,-0.009,-0.009,-0.006,-0.002,-1.522,0.01,0.059,92.36,71.1,40.525349,-3.41978,633.8,3,5,288.3,1.406
93.75,1,-0.006,0.017,-0.031,-0.021,0.014,-0.017,-1.522,0.009,0.055,92.36,71.1,40.525349,-3.41978,633.8,3,5,288.3,1.406
93.84,1,0.048,-0.017,0.004,0.016,-0.002,-0.012,-1.524,0.006,0.051,92.36,71.1,40.525349,-3.41978,633.8,3,5,288.3,1.406
93.94,1,-0.069,-0.001,-0.015,-0.002,-0.009,-0.005,-1.525,-0.001,0.047,92.36,71.1,40.525349,-3.41978,633.8,3,5,288.3,1.406
94.04,1,-0.006,-0.001,-0.002,-0.012,-0.005,-0.003,-1.526,-0.0,0.042,92.36,71.1,40.525349,-3.41978,633.8,3,5,288.3,1.406
94.14,1,-0.058,0.014,-0.015,-0.056,0.014,-0.02,-1.525,0.001,0.038,93.35,71.2,40.525402,-3.419995,633.5,3,5,289.7,1.758
94.24,1,0.002,-0.016,0.037,-0.021,-0.001,0.01,-1.526,0.0,0.034,93.35,71.2,40.525402,-3.419995,633.5,3,5,289.7,1.758
94.34,1,-0.007,-0.022,-0.005,-0.023,-0.008,0.009,-1.525,-0.002,0.03,93.35,71.2,40.525402,-3.419995,633.5,3,5,289.7,1.758
94.44,1,-0.017,0.043,-0.008,-0.001,-0.003,-0.002,-1.523,-0.001,0.026,93.35,71.2,40.525402,-3.419995,633.5,3,5,289.7,1.758
94.54,1,0.033,-0.011,-0.014,0.005,0.015,-0.005,-1.522,-0.001,0.022,93.35,71.2,40.525402,-3.419995,633.5,3,5,289.7,1.758
94.65,1,-0.045,0.018,-0.001,-0.009,0.004,-0.008,-1.524,-0.001,0.018,93.35,71.2,40.525402,-3.419995,633.5,3,5,289.7,1.758
94.74,1,-0.0,0.009,0.025,-0.019,0.017,0.005,-1.526,-0.002,0.013,93.35,71.2,40.525402,-3.419995,633.5,3,5,289.7,1.758
94.86,1,-0.015,-0.022,0.012,-0.011,-0.001,0.017,-1.525,-0.002,0.009,93.35,71.2,40.525402,-3.419995,633.5,3,5,289.7,1.758
94.95,1,-0.031,0.0,-0.016,-0.012,-0.014,0.0,-1.523,0.004,0.005,93.35,71.2,40.525402,-3.419995,633.5,3,5,289.7,1.758
95.04,1,0.013,0.011,0.017,-0.016,0.004,0.006,-1.523,0.006,0.002,93.35,71.2,40.525402,-3.419995,633.5,3,5,289.7,1.758
95.14,1,-0.002,-0.02,0.01,0.0,-0.007,0.008,-1.524,0.009,-0.002,94.4,71.1,40.525463,-3.420213,633.2,3,5,291.1,2.812
95.24,1,-0.019,0.011,-0.008,-0.005,-0.003,0.003,-1.52,0.009,-0.005,94.4,71.1,40.525463,-3.420213,633.2,3,5,291.1,2.812
95.36,1,0.065,0.001,0.007,0.019,-0.002,0.001,-1.517,0.006,-0.009,94.4,71.1,40.525463,-3.420213,633.2,3,5,291.1,2.812
95.45,1,0.038,0.038,0.016,0.032,0.025,0.01,-1.519,0.006,-0.011,94.4,71.1,40.525463,-3.420213,633.2,3,5,291.1,2.812
95.55,1,-0.085,-0.028,-0.046,-0.002,0.0,-0.011,-1.519,0.006,-0.013,94.4,71.1,40.525463,-3.420213,633.2,3,5,291.1,2.812
95.65,1,-0.034,-0.014,0.007,-0.032,-0.021,-0.016,-1.52,0.006,-0.015,94.4,71.1,40.525463,-3.420213,633.2,3,5,291.1,2.812
95.75,1,-0.002,-0.041,0.024,-0.034,-0.016,0.002,-1.523,0.007,-0.017,94.4,71.1,40.525463,-3.420213,633.2,3,5,291.1,2.812
95.85,1,-0.04,-0.031,0.016,-0.024,-0.024,0.025,-1.523,0.003,-0.019,94.4,71.1,40.525463,-3.420213,633.2,3,5,291.1,2.812
95.95,1,-0.014,-0.035,-0.026,-0.025,-0.033,-0.009,-1.519,0.007,-0.021,94.4,71.1,40.525463,-3.420213,633.2,3,5,291.1,2.812
96.05,1,0.05,-0.077,0.024,0.009,-0.047,0.01,-1.522,0.003,-0.023,94.4,71.1,40.525463,-3.420213,633.2,3,5,291.1,2.812
96.15,1,0.055,-0.073,-0.041,0.026,-0.062,-0.01,-1.521,-0.001,-0.025,95.35,70.5,40.525536,-3.420424,632.7,3,5,293.6,3.867
96.25,1,-0.015,0.051,-0.053,0.025,-0.021,-0.036,-1.522,-0.001,-0.026,95.35,70.5,40.525536,-3.420424,632.7,3,5,293.6,3.867
96.36,1,-0.04,-0.029,0.024,-0.02,-0.008,-0.021,-1.526,-0.001,-0.028,95.35,70.5,40.525536,-3.420424,632.7,3,5,293.6,3.867
96.56,1,-0.028,-0.075,-0.05,-0.032,-0.066,-0.009,-1.527,-0.003,-0.031,95.35,70.5,40.525536,-3.420424,632.7,3,5,293.6,3.867
96.65,1,-0.109,0.006,-0.015,-0.074,-0.03,-0.028,-1.531,-0.004,-0.033,95.35,70.5,40.525536,-3.420424,632.7,3,5,293.6,3.867
96.75,1,0.087,-0.025,0.075,0.0,-0.031,0.03,-1.534,-0.001,-0.035,95.35,70.5,40.525536,-3.420424,632.7,3,5,293.6,3.867
96.85,1,-0.081,-0.03,-0.012,-0.036,-0.019,0.008,-1.533,0.001,-0.036,95.35,70.5,40.525536,-3.420424,632.7,3,5,293.6,3.867
96.96,1,0.056,-0.035,0.03,0.003,-0.025,0.019,-1.534,0.002,-0.037,95.35,70.5,40.525536,-3.420424,632.7,3,5,293.6,3.867
97.05,1,0.011,0.02,0.013,0.028,-0.019,0.026,-1.531,0.005,-0.039,95.35,70.5,40.525536,-3.420424,632.7,3,5,293.6,3.867
97.15,1,0.002,-0.021,-0.029,0.01,-0.006,-0.006,-1.525,0.004,-0.042,95.35,70.5,40.525536,-3.420424,632.7,3,5,293.6,3.867
97.25,1,-0.025,0.004,0.007,-0.011,-0.003,-0.004,-1.526,0.003,-0.045,96.35,70.7,40.525612,-3.420635,632.3,3,5,295.7,4.57
97.36,1,0.001,-0.041,0.019,-0.016,-0.016,0.005,-1.527,-0.001,-0.048,96.35,70.7,40.525612,-3.420635,632.3,3,5,295.7,4.57
97.45,1,-0.09,0.027,-0.0,-0.034,-0.005,0.01,-1.526,-0.001,-0.051,96.35,70.7,40.525612,-3.420635,632.3,3,5,295.7,4.57
97.56,1,-0.054,-0.021,0.001,-0.058,0.007,-0.002,-1.525,0.007,-0.055,96.35,70.7,40.525612,-3.420635,632.3,3,5,295.7,4.57
97.66,1,-0.039,0.001,0.003,-0.051,-0.015,0.004,-1.526,0.005,-0.058,96.35,70.7,40.525612,-3.420635,632.3,3,5,295.7,4.57
97.76,1,-0.034,0.058,0.009,-0.039,0.013,0.008,-1.527,0.003,-0.061,96.35,70.7,40.525612,-3.420635,632.3,3,5,295.7,4.57
97.86,1,-0.005,0.054,0.019,-0.018,0.047,0.013,-1.527,0.002,-0.065,96.35,70.7,40.525612,-3.420635,632.3,3,5,295.7,4.57
97.96,1,-0.015,0.043,0.002,-0.018,0.047,0.01,-1.528,-0.005,-0.068,96.35,70.7,40.525612,-3.420635,632.3,3,5,295.7,4.57
98.06,1,-0.006,0.004,0.013,-0.015,0.024,0.005,-1.527,-0.012,-0.072,96.35,70.7,40.525612,-3.420635,632.3,3,5,295.7,4.57
98.16,1,-0.072,-0.024,-0.017,-0.023,0.003,0.001,-1.528,-0.018,-0.076,96.35,70.7,40.525612,-3.420635,632.3,3,5,295.7,4.57
98.27,1,0.03,-0.031,0.013,-0.027,-0.017,-0.0,-1.53,-0.02,-0.08,97.36,73.1,40.525688,-3.42085,632.0,3,5,296.4,2.812
98.36,1,0.024,-0.003,0.007,0.006,-0.015,0.006,-1.538,-0.018,-0.084,97.36,73.1,40.525688,-3.42085,632.0,3,5,296.4,2.812
98.46,1,-0.014,0.001,-0.003,0.006,-0.003,0.011,-1.537,-0.019,-0.088,97.36,73.1,40.525688,-3.42085,632.0,3,5,296.4,2.812
98.56,1,0.049,0.027,-0.005,0.016,0.008,-0.008,-1.535,-0.019,-0.092,97.36,73.1,40.525688,-3.42085,632.0,3,5,296.4,2.812
98.66,1,-0.041,0.042,-0.011,0.008,0.034,-0.001,-1.535,-0.026,-0.096,97.36,73.1,40.525688,-3.42085,632.0,3,5,296.4,2.812
98.76,1,-0.047,0.057,0.016,-0.025,0.03,-0.003,-1.537,-0.027,-0.1,97.36,73.1,40.525688,-3.42085,632.0,3,5,296.4,2.812
98.86,1,-0.0,-0.043,0.011,-0.032,0.013,0.009,-1.538,-0.027,-0.105,97.36,73.1,40.525688,-3.42085,632.0,3,5,296.4,2.812
98.96,1,-0.016,0.002,-0.015,-0.007,-0.004,0.003,-1.537,-0.028,-0.109,97.36,73.1,40.525688,-3.42085,632.0,3,5,296.4,2.812
99.06,1,0.056,0.073,0.022,0.02,0.035,0.002,-1.537,-0.029,-0.114,97.36,73.1,40.525688,-3.42085,632.0,3,5,296.4,2.812
99.16,1,-0.019,0.044,-0.039,0.002,0.043,-0.003,-1.537,-0.03,-0.118,97.36,73.1,40.525688,-3.42085,632.0,3,5,296.4,2.812
99.27,1,-0.025,-0.01,-0.023,-0.009,0.022,-0.018,-1.538,-0.03,-0.123,98.36,71.4,40.525764,-3.421058,631.8,3,5,296.7,1.055
99.37,1,-0.031,-0.013,0.002,-0.024,-0.002,-0.017,-1.538,-0.031,-0.127,98.36,71.4,40.525764,-3.421058,631.8,3,5,296.7,1.055
99.47,1,0.028,-0.017,-0.015,-0.021,-0.003,-0.017,-1.539,-0.033,-0.132,98.36,71.4,40.525764,-3.421058,631.8,3,5,296.7,1.055
99.56,1,0.046,0.117,0.015,0.041,0.028,0.007,-1.539,-0.034,-0.137,98.36,71.4,40.525764,-3.421058,631.8,3,5,296.7,1.055
99.67,1,-0.119,0.082,-0.023,-0.036,0.083,-0.009,-1.537,-0.035,-0.141,98.36,71.4,40.525764,-3.421058,631.8,3,5,296.7,1.055
99.77,1,0.046,-0.076,0.012,-0.001,0.004,-0.001,-1.538,-0.034,-0.147,98.36,71.4,40.525764,-3.421058,631.8,3,5,296.7,1.055
99.87,1,-0.076,-0.018,-0.059,-0.039,-0.019,-0.024,-1.538,-0.034,-0.152,98.36,71.4,40.525764,-3.421058,631.8,3,5,296.7,1.055
99.97,1,0.032,0.03,0.055,-0.018,0.003,-0.001,-1.54,-0.034,-0.156,98.36,71.4,40.525764,-3.421058,631.8,3,5,296.7,1.055
100.07,1,-0.018,0.036,-0.019,-0.002,0.019,0.007,-1.539,-0.035,-0.161,98.36,71.4,40.525764,-3.421058,631.8,3,5,296.7,1.055
100.17,1,-0.003,0.016,-0.003,-0.011,0.036,-0.005,-1.539,-0.036,-0.165,98.36,71.4,40.525764,-3.421058,631.8,3,5,296.7,1.055
100.27,1,-0.028,-0.015,-0.038,-0.01,0.009,-0.02,-1.539,-0.036,-0.17,99.41,71.3,40.525852,-3.421262,631.3,3,5,299.2,2.812
100.37,1,-0.024,0.007,0.014,-0.022,0.005,-0.012,-1.541,-0.035,-0.174,99.41,71.3,40.525852,-3.421262,631.3,3,5,299.2,2.812
100.47,1,-0.018,-0.015,-0.009,-0.026,-0.004,0.001,-1.544,-0.028,-0.179,99.41,71.3,40.525852,-3.421262,631.3,3,5,299.2,2.812
100.57,1,0.03,0.009,0.006,0.013,-0.009,0.002,-1.543,-0.027,-0.184,99.41,71.3,40.525852,-3.421262,631.3,3,5,299.2,2.812
100.67,1,-0.013,-0.03,-0.024,-0.008,-0.005,-0.009,-1.543,-0.032,-0.188,99.41,71.3,40.525852,-3.421262,631.3,3,5,299.2,2.812
100.77,1,0.005,-0.001,-0.012,-0.007,-0.009,-0.019,-1.539,-0.029,-0.192,99.41,71.3,40.525852,-3.421262,631.3,3,5,299.2,2.812
100.87,1,-0.008,-0.007,0.001,-0.001,-0.012,-0.003,-1.538,-0.03,-0.196,99.41,71.3,40.525852,-3.421262,631.3,3,5,299.2,2.812
100.97,1,-0.014,0.003,-0.018,-0.009,-0.004,-0.015,-1.538,-0.029,-0.199,99.41,71.3,40.525852,-3.421262,631.3,3,5,299.2,2.812
101.08,1,0.038,-0.017,-0.007,0.021,-0.009,-0.009,-1.535,-0.032,-0.203,99.41,71.3,40.525852,-3.421262,631.3,3,5,299.2,2.812
101.18,1,-0.022,0.008,-0.008,0.006,-0.001,-0.004,-1.534,-0.041,-0.206,99.41,71.3,40.525852,-3.421262,631.3,3,5,299.2,2.812
101.27,1,0.018,-0.031,0.002,-0.001,-0.01,-0.005,-1.534,-0.04,-0.209,100.35,71.7,40.525951,-3.421455,630.9,3,5,302.0,5.273
101.37,1,-0.072,-0.023,-0.018,-0.03,-0.016,-0.009,-1.533,-0.038,-0.212,100.35,71.7,40.525951,-3.421455,630.9,3,5,302.0,5.273
101.47,1,0.031,-0.031,0.005,-0.012,-0.036,-0.003,-1.531,-0.027,-0.214,100.35,71.7,40.525951,-3.421455,630.9,3,5,302.0,5.273
101.57,1,0.021,0.018,-0.007,0.024,-0.01,-0.003,-1.53,-0.019,-0.217,100.35,71.7,40.525951,-3.421455,630.9,3,5,302.0,5.273
101.68,1,0.018,-0.002,-0.012,0.012,0.013,-0.009,-1.532,-0.014,-0.219,100.35,71.7,40.525951,-3.421455,630.9,3,5,302.0,5.273
101.77,1,0.002,-0.042,-0.018,0.009,-0.026,-0.014,-1.532,-0.015,-0.222,100.35,71.7,40.525951,-3.421455,630.9,3,5,302.0,5.273
101.88,1,0.022,-0.06,-0.008,0.013,-0.04,-0.011,-1.532,-0.017,-0.225,100.35,71.7,40.525951,-3.421455,630.9,3,5,302.0,5.273
101.98,1,-0.023,-0.018,0.005,-0.005,-0.033,-0.004,-1.532,-0.016,-0.227,100.35,71.7,40.525951,-3.421455,630.9,3,5,302.0,5.273
102.08,1,-0.014,-0.057,-0.002,-0.023,-0.043,0.002,-1.528,-0.011,-0.229,100.35,71.7,40.525951,-3.421455,630.9,3,5,302.0,5.273
102.18,1,-0.024,-0.059,-0.035,-0.014,-0.053,-0.019,-1.526,-0.011,-0.231,100.35,71.7,40.525951,-3.421455,630.9,3,5,302.0,5.273
102.28,1,0.027,0.047,-0.007,0.001,-0.016,-0.02,-1.526,-0.011,-0.233,101.35,72.0,40.526051,-3.42166,630.5,3,5,305.5,6.328
102.38,1,0.044,-0.053,-0.006,0.042,-0.013,-0.004,-1.527,-0.01,-0.236,101.35,72.0,40.526051,-3.42166,630.5,3,5,305.5,6.328
102.48,1,0.014,0.002,-0.013,0.02,-0.013,-0.012,-1.528,-0.009,-0.238,101.35,72.0,40.526051,-3.42166,630.5,3,5,305.5,6.328
102.58,1,0.019,0.031,-0.002,0.027,-0.001,-0.007,-1.528,-0.007,-0.241,101.35,72.0,40.526051,-3.42166,630.5,3,5,305.5,6.328
102.68,1,-0.005,0.006,0.002,0.006,0.018,-0.005,-1.528,-0.002,-0.243,101.35,72.0,40.526051,-3.42166,630.5,3,5,305.5,6.328
102.78,1,-0.019,-0.018,-0.01,-0.011,0.001,-0.003,-1.528,-0.003,-0.246,101.35,72.0,40.526051,-3.42166,630.5,3,5,305.5,6.328
102.88,1,-0.013,-0.023,-0.03,-0.01,-0.02,-0.015,-1.527,-0.005,-0.248,101.35,72.0,40.526051,-3.42166,630.5,3,5,305.5,6.328
102.98,1,-0.044,-0.015,-0.025,-0.024,-0.014,-0.023,-1.526,-0.006,-0.25,101.35,72.0,40.526051,-3.42166,630.5,3,5,305.5,6.328
103.08,1,0.023,-0.002,-0.007,-0.01,-0.007,-0.018,-1.525,-0.009,-0.252,101.35,72.0,40.526051,-3.42166,630.5,3,5,305.5,6.328
103.18,1,-0.033,-0.004,-0.04,-0.015,-0.004,-0.024,-1.526,-0.006,-0.254,101.35,72.0,40.526051,-3.42166,630.5,3,5,305.5,6.328
103.28,1,0.018,-0.008,-0.018,-0.004,-0.008,-0.022,-1.526,-0.004,-0.257,102.36,72.1,40.526161,-3.421851,630.1,3,5,307.6,5.625
103.39,1,-0.024,0.011,-0.021,-0.006,-0.003,-0.026,-1.526,-0.004,-0.259,102.36,72.1,40.526161,-3.421851,630.1,3,5,307.6,5.625
103.48,1,-0.017,-0.018,-0.016,-0.029,-0.001,-0.023,-1.522,-0.001,-0.261,102.36,72.1,40.526161,-3.421851,630.1,3,5,307.6,5.625
103.58,1,-0.082,-0.007,-0.014,-0.026,-0.014,-0.011,-1.521,0.001,-0.263,102.36,72.1,40.526161,-3.421851,630.1,3,5,307.6,5.625
103.68,1,0.006,-0.037,-0.004,-0.032,-0.022,-0.014,-1.517,0.003,-0.265,102.36,72.1,40.526161,-3.421851,630.1,3,5,307.6,5.625
103.79,1,-0.002,0.023,-0.003,-0.017,-0.002,-0.005,-1.515,0.004,-0.267,102.36,72.1,40.526161,-3.421851,630.1,3,5,307.6,5.625
103.89,1,-0.0,0.011,0.003,-0.001,0.004,-0.004,-1.515,0.005,-0.269,102.36,72.1,40.526161,-3.421851,630.1,3,5,307.6,5.625
103.99,1,-0.015,0.004,-0.006,-0.009,0.008,0.002,-1.513,0.002,-0.271,102.36,72.1,40.526161,-3.421851,630.1,3,5,307.6,5.625
104.09,1,-0.024,0.01,-0.023,-0.017,0.008,-0.011,-1.513,0.001,-0.273,102.36,72.1,40.526161,-3.421851,630.1,3,5,307.6,5.625
104.19,1,0.035,-0.016,0.009,0.002,-0.001,-0.01,-1.517,0.0,-0.276,102.36,72.1,40.526161,-3.421851,630.1,3,5,307.6,5.625
104.29,1,-0.043,0.018,-0.001,-0.004,-0.001,0.005,-1.523,0.004,-0.279,103.36,72.3,40.526279,-3.422049,629.8,3,5,309.7,4.219
104.39,1,0.026,-0.015,0.01,-0.008,0.003,0.0,-1.523,0.004,-0.282,103.36,72.3,40.526279,-3.422049,629.8,3,5,309.7,4.219
104.49,1,-0.014,0.037,-0.021,-0.006,0.012,-0.005,-1.519,0.004,-0.284,103.36,72.3,40.526279,-3.422049,629.8,3,5,309.7,4.219
104.59,1,-0.007,0.026,-0.003,0.003,0.014,-0.008,-1.519,0.003,-0.287,103.36,72.3,40.526279,-3.422049,629.8,3,5,309.7,4.219
104.69,1,-0.015,-0.045,-0.025,-0.012,-0.006,-0.016,-1.521,0.002,-0.288,103.36,72.3,40.526279,-3.422049,629.8,3,5,309.7,4.219
104.79,1,-0.046,0.035,-0.012,-0.016,0.006,-0.01,-1.521,0.002,-0.291,103.36,72.3,40.526279,-3.422049,629.8,3,5,309.7,4.219
104.89,1,0.018,-0.053,0.004,-0.022,-0.013,-0.01,-1.521,0.002,-0.294,103.36,72.3,40.526279,-3.422049,629.8,3,5,309.7,4.219
105.0,1,-0.003,-0.024,-0.029,0.003,-0.033,-0.012,-1.52,0.001,-0.296,103.36,72.3,40.526279,-3.422049,629.8,3,5,309.7,4.219
105.09,1,-0.005,0.035,0.002,-0.002,0.007,-0.012,-1.52,-0.0,-0.298,103.36,72.3,40.526279,-3.422049,629.8,3,5,309.7,4.219
105.19,1,-0.029,0.014,0.015,-0.021,0.018,0.0,-1.521,-0.002,-0.301,103.36,72.3,40.526279,-3.422049,629.8,3,5,309.7,4.219
105.29,1,-0.046,-0.053,-0.004,-0.028,-0.006,0.01,-1.521,-0.002,-0.303,104.36,71.6,40.526394,-3.422237,629.2,3,5,310.8,3.164
105.39,1,0.06,-0.012,0.007,-0.002,-0.019,-0.001,-1.52,-0.002,-0.306,104.36,71.6,40.526394,-3.422237,629.2,3,5,310.8,3.164
105.5,1,-0.005,0.053,-0.002,0.015,0.005,0.002,-1.52,-0.001,-0.308,104.36,71.6,40.526394,-3.422237,629.2,3,5,310.8,3.164
105.59,1,-0.016,0.015,0.008,0.007,0.024,0.006,-1.52,-0.001,-0.311,104.36,71.6,40.526394,-3.422237,629.2,3,5,310.8,3.164
105.7,1,-0.023,-0.027,0.001,-0.019,-0.003,0.001,-1.521,-0.002,-0.313,104.36,71.6,40.526394,-3.422237,629.2,3,5,310.8,3.164
105.8,1,-0.038,-0.013,0.008,-0.031,-0.013,0.003,-1.523,-0.003,-0.316,104.36,71.6,40.526394,-3.422237,629.2,3,5,310.8,3.164
105.89,1,0.055,-0.026,0.019,0.002,-0.02,0.011,-1.524,-0.009,-0.319,104.36,71.6,40.526394,-3.422237,629.2,3,5,310.8,3.164
105.99,1,-0.048,0.033,-0.007,-0.007,0.005,0.007,-1.524,-0.017,-0.321,104.36,71.6,40.526394,-3.422237,629.2,3,5,310.8,3.164
106.1,1,0.029,0.013,0.025,-0.006,0.012,0.012,-1.524,-0.019,-0.324,104.36,71.6,40.526394,-3.422237,629.2,3,5,310.8,3.164
106.2,1,-0.012,0.041,-0.003,0.012,0.017,0.009,-1.522,-0.015,-0.326,104.36,71.6,40.526394,-3.422237,629.2,3,5,310.8,3.164
106.3,1,0.063,-0.007,0.021,0.026,0.02,0.011,-1.519,-0.008,-0.329,105.42,71.5,40.526512,-3.422414,628.3,3,5,312.5,2.812
106.5,1,-0.04,-0.023,0.03,-0.026,-0.015,0.015,-1.518,-0.013,-0.334,105.42,71.5,40.526512,-3.422414,628.3,3,5,312.5,2.812
106.6,1,-0.027,0.008,-0.0,-0.033,-0.001,0.009,-1.514,-0.011,-0.336,105.42,71.5,40.526512,-3.422414,628.3,3,5,312.5,2.812
106.7,1,0.017,-0.046,0.006,-0.01,-0.02,0.009,-1.517,-0.014,-0.339,105.42,71.5,40.526512,-3.422414,628.3,3,5,312.5,2.812
106.81,1,-0.005,0.034,0.008,-0.003,-0.006,0.01,-1.519,-0.012,-0.342,105.42,71.5,40.526512,-3.422414,628.3,3,5,312.5,2.812
106.9,1,-0.019,0.037,0.012,-0.005,0.019,0.009,-1.52,-0.013,-0.344,105.42,71.5,40.526512,-3.422414,628.3,3,5,312.5,2.812
107.0,1,-0.02,-0.051,0.012,-0.021,0.006,0.011,-1.518,-0.013,-0.347,105.42,71.5,40.526512,-3.422414,628.3,3,5,312.5,2.812
107.1,1,0.009,0.013,0.025,-0.009,-0.01,0.014,-1.517,-0.014,-0.35,105.42,71.5,40.526512,-3.422414,628.3,3,5,312.5,2.812
107.2,1,-0.015,0.007,0.007,-0.004,0.001,0.016,-1.516,-0.014,-0.352,105.42,71.5,40.526512,-3.422414,628.3,3,5,312.5,2.812
107.3,1,-0.003,0.02,0.039,-0.012,0.019,0.027,-1.516,-0.015,-0.355,105.42,71.5,40.526512,-3.422414,628.3,3,5,312.5,2.812
107.4,1,-0.009,-0.0,-0.0,-0.001,-0.001,0.02,-1.516,-0.016,-0.357,106.36,71.4,40.526638,-3.422574,628.4,3,5,315.0,4.219
107.51,1,-0.018,0.015,0.013,-0.016,0.012,0.01,-1.516,-0.017,-0.359,106.36,71.4,40.526638,-3.422574,628.4,3,5,315.0,4.219
107.6,1,0.022,-0.01,0.029,0.003,0.001,0.016,-1.516,-0.018,-0.361,106.36,71.4,40.526638,-3.422574,628.4,3,5,315.0,4.219
107.7,1,-0.007,-0.014,-0.009,0.009,-0.009,0.009,-1.518,-0.017,-0.364,106.36,71.4,40.526638,-3.422574,628.4,3,5,315.0,4.219
107.8,1,0.014,-0.013,0.023,-0.003,-0.012,0.01,-1.517,-0.014,-0.366,106.36,71.4,40.526638,-3.422574,628.4,3,5,315.0,4.219
107.9,1,-0.042,-0.023,-0.011,-0.004,-0.017,0.007,-1.518,-0.015,-0.368,106.36,71.4,40.526638,-3.422574,628.4,3,5,315.0,4.219
108.0,1,0.04,0.033,0.009,0.007,-0.002,0.002,-1.518,-0.014,-0.37,106.36,71.4,40.526638,-3.422574,628.4,3,5,315.0,4.219
108.1,1,-0.036,0.007,-0.01,-0.007,0.013,0.001,-1.52,-0.013,-0.372,106.36,71.4,40.526638,-3.422574,628.4,3,5,315.0,4.219
108.2,1,-0.013,-0.052,0.005,-0.031,-0.018,-0.002,-1.522,-0.013,-0.374,106.36,71.4,40.526638,-3.422574,628.4,3,5,315.0,4.219
108.3,1,-0.019,-0.089,-0.015,-0.023,-0.055,-0.009,-1.523,-0.021,-0.376,106.36,71.4,40.526638,-3.422574,628.4,3,5,315.0,4.219
108.41,1,-0.014,0.003,-0.009,-0.01,-0.051,-0.007,-1.523,-0.025,-0.378,107.41,71.6,40.526772,-3.42274,628.0,3,5,317.1,4.57
108.51,1,-0.046,-0.095,-0.015,-0.029,-0.045,-0.013,-1.524,-0.025,-0.38,107.41,71.6,40.526772,-3.42274,628.0,3,5,317.1,4.57
108.62,1,0.033,-0.031,0.007,-0.008,-0.05,-0.003,-1.525,-0.026,-0.382,107.41,71.6,40.526772,-3.42274,628.0,3,5,317.1,4.57
108.71,1,-0.02,-0.022,-0.001,0.005,-0.035,0.001,-1.525,-0.027,-0.383,107.41,71.6,40.526772,-3.42274,628.0,3,5,317.1,4.57
108.81,1,0.024,-0.056,0.001,0.008,-0.037,0.002,-1.525,-0.027,-0.385,107.41,71.6,40.526772,-3.42274,628.0,3,5,317.1,4.57
108.91,1,0.013,-0.021,-0.016,0.013,-0.037,-0.007,-1.527,-0.023,-0.386,107.41,71.6,40.526772,-3.42274,628.0,3,5,317.1,4.57
109.01,1,-0.032,-0.013,-0.01,0.005,-0.021,-0.008,-1.527,-0.023,-0.388,107.41,71.6,40.526772,-3.42274,628.0,3,5,317.1,4.57
109.12,1,-0.033,0.039,0.022,-0.034,0.011,-0.001,-1.53,-0.02,-0.389,107.41,71.6,40.526772,-3.42274,628.0,3,5,317.1,4.57
109.21,1,-0.054,-0.103,-0.007,-0.031,-0.034,0.007,-1.531,-0.022,-0.391,107.41,71.6,40.526772,-3.42274,628.0,3,5,317.1,4.57
109.31,1,-0.003,-0.033,-0.001,-0.04,-0.052,-0.005,-1.532,-0.023,-0.393,107.41,71.6,40.526772,-3.42274,628.0,3,5,317.1,4.57
109.41,1,-0.063,0.006,-0.012,-0.032,-0.025,-0.003,-1.531,-0.024,-0.394,108.43,71.7,40.526897,-3.42289,627.9,3,5,319.2,4.219
109.51,1,-0.002,-0.055,-0.039,-0.027,-0.029,-0.02,-1.532,-0.025,-0.396,108.43,71.7,40.526897,-3.42289,627.9,3,5,319.2,4.219
109.62,1,0.024,0.005,0.016,-0.005,-0.023,-0.011,-1.54,-0.026,-0.398,108.43,71.7,40.526897,-3.42289,627.9,3,5,319.2,4.219
109.71,1,-0.019,-0.017,-0.022,0.003,-0.015,-0.007,-1.545,-0.03,-0.4,108.43,71.7,40.526897,-3.42289,627.9,3,5,319.2,4.219
109.81,1,-0.009,-0.041,-0.005,-0.017,-0.023,-0.011,-1.544,-0.031,-0.402,108.43,71.7,40.526897,-3.42289,627.9,3,5,319.2,4.219
109.91,1,-0.022,-0.054,-0.029,-0.01,-0.037,-0.018,-1.543,-0.032,-0.404,108.43,71.7,40.526897,-3.42289,627.9,3,5,319.2,4.219
110.01,1,0.021,0.034,-0.002,0.003,-0.023,-0.01,-1.54,-0.025,-0.407,108.43,71.7,40.526897,-3.42289,627.9,3,5,319.2,4.219
110.12,1,-0.01,0.033,-0.026,0.003,0.019,-0.019,-1.539,-0.023,-0.409,108.43,71.7,40.526897,-3.42289,627.9,3,5,319.2,4.219
110.21,1,0.081,0.067,0.014,0.02,0.041,-0.007,-1.541,-0.023,-0.411,108.43,71.7,40.526897,-3.42289,627.9,3,5,319.2,4.219
110.32,1,-0.038,0.061,-0.014,0.012,0.063,-0.006,-1.542,-0.022,-0.414,108.43,71.7,40.526897,-3.42289,627.9,3,5,319.2,4.219
110.41,1,-0.015,-0.006,0.003,-0.002,0.024,-0.003,-1.542,-0.022,-0.416,109.38,71.3,40.527039,-3.423047,627.6,3,5,320.6,3.516
110.51,1,-0.026,-0.08,-0.036,-0.026,-0.017,-0.018,-1.542,-0.022,-0.419,109.38,71.3,40.527039,-3.423047,627.6,3,5,320.6,3.516
110.62,1,-0.063,0.025,-0.019,-0.024,-0.022,-0.017,-1.542,-0.023,-0.421,109.38,71.3,40.527039,-3.423047,627.6,3,5,320.6,3.516
110.72,1,0.014,-0.05,0.005,-0.016,-0.019,-0.007,-1.543,-0.023,-0.424,109.38,71.3,40.527039,-3.423047,627.6,3,5,320.6,3.516
110.83,1,0.041,-0.052,-0.027,-0.002,-0.04,-0.02,-1.543,-0.028,-0.426,109.38,71.3,40.527039,-3.423047,627.6,3,5,320.6,3.516
110.92,1,-0.006,0.013,-0.04,0.031,-0.022,-0.015,-1.544,-0.032,-0.429,109.38,71.3,40.527039,-3.423047,627.6,3,5,320.6,3.516
111.02,1,0.059,0.002,0.003,-0.0,0.0,-0.032,-1.544,-0.033,-0.431,109.38,71.3,40.527039,-3.423047,627.6,3,5,320.6,3.516
111.12,1,0.02,-0.001,-0.009,0.036,0.003,0.0,-1.543,-0.033,-0.433,109.38,71.3,40.527039,-3.423047,627.6,3,5,320.6,3.516
111.23,1,-0.065,-0.034,-0.04,-0.008,-0.018,-0.029,-1.545,-0.03,-0.435,109.38,71.3,40.527039,-3.423047,627.6,3,5,320.6,3.516
111.32,1,-0.03,0.015,0.012,-0.035,-0.019,-0.019,-1.539,-0.018,-0.437,109.38,71.3,40.527039,-3.423047,627.6,3,5,320.6,3.516
111.42,1,-0.042,-0.049,0.005,-0.022,-0.007,0.01,-1.538,-0.017,-0.439,110.39,72.8,40.52718,-3.423193,626.8,3,5,322.4,3.164
111.52,1,0.024,-0.054,-0.037,-0.04,-0.032,-0.02,-1.536,-0.018,-0.441,110.39,72.8,40.52718,-3.423193,626.8,3,5,322.4,3.164
111.62,1,0.003,0.016,-0.01,0.011,-0.024,-0.015,-1.537,-0.019,-0.443,110.39,72.8,40.52718,-3.423193,626.8,3,5,322.4,3.164
111.72,1,0.007,0.035,0.016,0.012,0.011,-0.001,-1.537,-0.02,-0.445,110.39,72.8,40.52718,-3.423193,626.8,3,5,322.4,3.164
111.82,1,0.018,-0.068,-0.032,0.003,-0.015,-0.01,-1.536,-0.021,-0.447,110.39,72.8,40.52718,-3.423193,626.8,3,5,322.4,3.164
111.92,1,-0.013,0.005,0.007,0.02,-0.028,-0.007,-1.536,-0.023,-0.449,110.39,72.8,40.52718,-3.423193,626.8,3,5,322.4,3.164
112.03,1,-0.01,0.015,-0.006,-0.013,0.001,-0.007,-1.535,-0.023,-0.451,110.39,72.8,40.52718,-3.423193,626.8,3,5,322.4,3.164
112.12,1,-0.073,-0.0,-0.014,-0.026,0.004,-0.006,-1.533,-0.018,-0.453,110.39,72.8,40.52718,-3.423193,626.8,3,5,322.4,3.164
112.22,1,-0.032,-0.015,-0.012,-0.049,-0.002,-0.011,-1.535,-0.018,-0.455,110.39,72.8,40.52718,-3.423193,626.8,3,5,322.4,3.164
112.32,1,-0.044,-0.015,-0.009,-0.042,-0.01,-0.01,-1.538,-0.019,-0.456,110.39,72.8,40.52718,-3.423193,626.8,3,5,322.4,3.164
112.42,1,0.004,0.011,-0.015,-0.014,-0.007,-0.009,-1.536,-0.023,-0.458,111.37,71.8,40.527328,-3.423334,626.7,3,5,324.8,4.219
112.53,1,-0.007,-0.013,-0.036,-0.023,-0.001,-0.028,-1.536,-0.022,-0.459,111.37,71.8,40.527328,-3.423334,626.7,3,5,324.8,4.219
112.62,1,0.014,-0.014,0.006,0.001,-0.015,-0.015,-1.536,-0.026,-0.461,111.37,71.8,40.527328,-3.423334,626.7,3,5,324.8,4.219
112.72,1,-0.006,0.031,-0.007,0.01,0.007,-0.002,-1.536,-0.026,-0.462,111.37,71.8,40.527328,-3.423334,626.7,3,5,324.8,4.219
112.83,1,-0.004,-0.052,-0.028,-0.018,-0.003,-0.019,-1.536,-0.026,-0.463,111.37,71.8,40.527328,-3.423334,626.7,3,5,324.8,4.219
112.93,1,0.03,-0.049,-0.006,0.018,-0.042,-0.014,-1.537,-0.027,-0.465,111.37,71.8,40.527328,-3.423334,626.7,3,5,324.8,4.219
113.03,1,-0.043,0.001,-0.027,0.01,-0.023,-0.013,-1.538,-0.028,-0.466,111.37,71.8,40.527328,-3.423334,626.7,3,5,324.8,4.219
113.14,1,0.009,-0.054,0.002,-0.024,-0.027,-0.016,-1.54,-0.037,-0.467,111.37,71.8,40.527328,-3.423334,626.7,3,5,324.8,4.219
113.24,1,-0.031,-0.03,-0.019,-0.011,-0.039,-0.009,-1.539,-0.037,-0.467,111.37,71.8,40.527328,-3.423334,626.7,3,5,324.8,4.219
113.33,1,-0.012,-0.055,-0.022,-0.021,-0.041,-0.021,-1.537,-0.037,-0.468,111.37,71.8,40.527328,-3.423334,626.7,3,5,324.8,4.219
113.43,1,0.0,-0.016,-0.018,-0.006,-0.038,-0.015,-1.535,-0.032,-0.468,112.37,72.0,40.527477,-3.423461,626.3,3,5,326.6,4.219
113.53,1,0.014,0.003,-0.014,-0.002,-0.018,-0.021,-1.536,-0.024,-0.469,112.37,72.0,40.527477,-3.423461,626.3,3,5,326.6,4.219
113.63,1,-0.017,-0.001,-0.009,-0.004,0.001,-0.009,-1.535,-0.018,-0.469,112.37,72.0,40.527477,-3.423461,626.3,3,5,326.6,4.219
113.74,1,0.027,-0.049,0.004,0.013,-0.03,-0.006,-1.537,-0.016,-0.47,112.37,72.0,40.527477,-3.423461,626.3,3,5,326.6,4.219
113.83,1,-0.022,-0.024,-0.023,-0.004,-0.022,-0.009,-1.536,-0.016,-0.469,112.37,72.0,40.527477,-3.423461,626.3,3,5,326.6,4.219
113.93,1,0.065,0.046,0.028,0.036,-0.003,0.001,-1.533,-0.012,-0.469,112.37,72.0,40.527477,-3.423461,626.3,3,5,326.6,4.219
114.03,1,-0.075,-0.018,-0.045,-0.012,0.01,-0.005,-1.531,-0.012,-0.47,112.37,72.0,40.527477,-3.423461,626.3,3,5,326.6,4.219
114.14,1,0.051,-0.081,0.01,-0.001,-0.047,-0.018,-1.533,-0.013,-0.47,112.37,72.0,40.527477,-3.423461,626.3,3,5,326.6,4.219
114.23,1,0.028,0.049,0.022,0.021,-0.005,0.009,-1.534,-0.013,-0.47,112.37,72.0,40.527477,-3.423461,626.3,3,5,326.6,4.219
114.34,1,-0.042,-0.032,-0.043,-0.01,0.003,-0.011,-1.533,-0.014,-0.47,112.37,72.0,40.527477,-3.423461,626.3,3,5,326.6,4.219
114.43,1,0.019,-0.082,-0.002,0.002,-0.046,-0.011,-1.533,-0.016,-0.471,113.37,72.1,40.52763,-3.423582,625.6,3,5,328.7,3.867
114.53,1,0.041,0.021,-0.006,0.012,-0.02,-0.013,-1.533,-0.018,-0.47,113.37,72.1,40.52763,-3.423582,625.6,3,5,328.7,3.867
114.63,1,-0.081,0.054,-0.011,-0.014,0.018,-0.006,-1.533,-0.02,-0.47,113.37,72.1,40.52763,-3.423582,625.6,3,5,328.7,3.867
114.74,1,-0.017,-0.055,-0.012,-0.026,-0.009,-0.014,-1.533,-0.022,-0.47,113.37,72.1,40.52763,-3.423582,625.6,3,5,328.7,3.867
114.84,1,0.03,-0.025,-0.009,-0.008,-0.026,-0.009,-1.533,-0.024,-0.47,113.37,72.1,40.52763,-3.423582,625.6,3,5,328.7,3.867
114.94,1,0.037,0.007,-0.003,0.026,-0.024,-0.004,-1.533,-0.025,-0.469,113.37,72.1,40.52763,-3.423582,625.6,3,5,328.7,3.867
115.04,1,-0.009,0.0,-0.016,0.01,0.015,-0.014,-1.533,-0.025,-0.469,113.37,72.1,40.52763,-3.423582,625.6,3,5,328.7,3.867
115.14,1,0.03,-0.011,-0.005,0.01,-0.01,-0.005,-1.532,-0.026,-0.468,113.37,72.1,40.52763,-3.423582,625.6,3,5,328.7,3.867
115.24,1,0.04,0.02,-0.024,0.03,-0.002,-0.013,-1.533,-0.027,-0.468,113.37,72.1,40.52763,-3.423582,625.6,3,5,328.7,3.867
115.34,1,0.006,0.025,0.014,0.018,0.024,-0.01,-1.533,-0.028,-0.467,113.37,72.1,40.52763,-3.423582,625.6,3,5,328.7,3.867
115.44,1,-0.028,-0.058,-0.005,-0.0,-0.013,-0.001,-1.533,-0.029,-0.466,114.42,71.7,40.527794,-3.4237,625.7,3,5,330.1,3.516
115.54,1,0.003,-0.094,-0.03,-0.002,-0.056,-0.013,-1.532,-0.031,-0.465,114.42,71.7,40.527794,-3.4237,625.7,3,5,330.1,3.516
115.64,1,0.021,-0.055,-0.006,0.0,-0.065,-0.014,-1.532,-0.032,-0.464,114.42,71.7,40.527794,-3.4237,625.7,3,5,330.1,3.516
115.74,1,0.064,-0.044,0.004,0.044,-0.057,-0.002,-1.532,-0.034,-0.464,114.42,71.7,40.527794,-3.4237,625.7,3,5,330.1,3.516
115.84,1,0.031,-0.042,0.011,0.029,-0.052,0.003,-1.531,-0.034,-0.463,114.42,71.7,40.527794,-3.4237,625.7,3,5,330.1,3.516
115.94,1,0.054,-0.05,-0.013,0.057,-0.037,0.0,-1.531,-0.036,-0.462,114.42,71.7,40.527794,-3.4237,625.7,3,5,330.1,3.516
116.04,1,-0.031,-0.006,-0.004,0.005,-0.023,-0.009,-1.531,-0.037,-0.461,114.42,71.7,40.527794,-3.4237,625.7,3,5,330.1,3.516
116.14,1,-0.04,-0.067,-0.012,-0.015,-0.046,-0.009,-1.532,-0.039,-0.46,114.42,71.7,40.527794,-3.4237,625.7,3,5,330.1,3.516
116.24,1,0.006,-0.083,0.02,-0.014,-0.066,0.002,-1.532,-0.04,-0.459,114.42,71.7,40.527794,-3.4237,625.7,3,5,330.1,3.516
116.34,1,-0.052,-0.035,-0.042,-0.023,-0.058,-0.007,-1.53,-0.041,-0.458,114.42,71.7,40.527794,-3.4237,625.7,3,5,330.1,3.516
116.45,1,0.038,-0.045,0.005,-0.002,-0.049,-0.011,-1.534,-0.044,-0.458,115.37,71.0,40.527954,-3.423807,625.3,3,5,331.5,2.812
116.54,1,-0.014,0.01,0.009,-0.006,-0.016,-0.001,-1.535,-0.026,-0.456,115.37,71.0,40.527954,-3.423807,625.3,3,5,331.5,2.812
116.64,1,-0.015,-0.103,-0.02,-0.005,-0.055,-0.001,-1.536,-0.026,-0.455,115.37,71.0,40.527954,-3.423807,625.3,3,5,331.5,2.812
116.74,1,0.036,-0.122,-0.007,-0.003,-0.085,-0.017,-1.535,-0.028,-0.454,115.37,71.0,40.527954,-3.423807,625.3,3,5,331.5,2.812
116.84,1,0.004,0.058,-0.045,0.012,-0.037,-0.021,-1.535,-0.03,-0.453,115.37,71.0,40.527954,-3.423807,625.3,3,5,331.5,2.812
116.94,1,0.006,-0.058,0.007,-0.0,-0.038,-0.02,-1.535,-0.031,-0.452,115.37,71.0,40.527954,-3.423807,625.3,3,5,331.5,2.812
117.04,1,-0.011,0.061,-0.011,0.005,0.005,-0.006,-1.535,-0.033,-0.45,115.37,71.0,40.527954,-3.423807,625.3,3,5,331.5,2.812
117.15,1,-0.019,0.012,-0.005,-0.006,0.028,-0.009,-1.535,-0.034,-0.449,115.37,71.0,40.527954,-3.423807,625.3,3,5,331.5,2.812
117.25,1,-0.018,-0.054,-0.006,-0.013,-0.01,-0.007,-1.536,-0.034,-0.447,115.37,71.0,40.527954,-3.423807,625.3,3,5,331.5,2.812
117.35,1,-0.044,-0.058,-0.027,-0.023,-0.041,-0.012,-1.532,-0.033,-0.446,115.37,71.0,40.527954,-3.423807,625.3,3,5,331.5,2.812
117.45,1,0.024,-0.019,-0.004,-0.012,-0.038,-0.015,-1.534,-0.028,-0.444,116.35,71.2,40.528103,-3.423925,625.0,3,5,331.9,1.758
117.55,1,0.014,0.003,0.009,0.008,-0.018,-0.001,-1.536,-0.029,-0.443,116.35,71.2,40.528103,-3.423925,625.0,3,5,331.9,1.758
117.65,1,-0.003,0.014,0.004,0.002,0.0,-0.0,-1.532,-0.018,-0.441,116.35,71.2,40.528103,-3.423925,625.0,3,5,331.9,1.758
117.75,1,-0.012,-0.028,-0.004,-0.003,-0.005,0.005,-1.531,-0.013,-0.44,116.35,71.2,40.528103,-3.423925,625.0,3,5,331.9,1.758
117.85,1,0.01,-0.057,0.01,-0.005,-0.027,0.001,-1.53,-0.014,-0.438,116.35,71.2,40.528103,-3.423925,625.0,3,5,331.9,1.758
117.95,1,-0.009,0.029,-0.016,-0.004,-0.011,-0.002,-1.529,-0.015,-0.436,116.35,71.2,40.528103,-3.423925,625.0,3,5,331.9,1.758
118.05,1,0.001,0.01,0.002,0.009,0.001,-0.003,-1.53,-0.009,-0.434,116.35,71.2,40.528103,-3.423925,625.0,3,5,331.9,1.758
118.15,1,0.058,-0.005,-0.003,0.029,-0.002,0.0,-1.53,-0.009,-0.433,116.35,71.2,40.528103,-3.423925,625.0,3,5,331.9,1.758
118.25,1,-0.009,-0.001,-0.002,0.014,0.004,-0.007,-1.53,-0.014,-0.431,116.35,71.2,40.528103,-3.423925,625.0,3,5,331.9,1.758
118.36,1,-0.025,-0.031,-0.003,-0.009,-0.013,-0.001,-1.531,-0.02,-0.429,116.35,71.2,40.528103,-3.423925,625.0,3,5,331.9,1.758
118.45,1,-0.025,-0.063,-0.016,-0.019,-0.038,-0.008,-1.53,-0.023,-0.427,117.37,71.9,40.528263,-3.424032,624.5,3,5,332.9,1.406
118.55,1,-0.028,-0.004,-0.007,-0.026,-0.032,-0.008,-1.53,-0.023,-0.425,117.37,71.9,40.528263,-3.424032,624.5,3,5,332.9,1.406
118.65,1,0.044,-0.028,-0.003,-0.004,-0.022,-0.009,-1.53,-0.023,-0.423,117.37,71.9,40.528263,-3.424032,624.5,3,5,332.9,1.406
118.76,1,0.013,-0.021,0.009,0.025,-0.023,0.004,-1.53,-0.02,-0.421,117.37,71.9,40.528263,-3.424032,624.5,3,5,332.9,1.406
118.86,1,0.015,0.023,0.004,0.02,-0.005,0.001,-1.528,-0.026,-0.418,117.37,71.9,40.528263,-3.424032,624.5,3,5,332.9,1.406
118.95,1,-0.065,0.029,-0.023,-0.023,0.017,-0.005,-1.528,-0.028,-0.416,117.37,71.9,40.528263,-3.424032,624.5,3,5,332.9,1.406
