Timestamp_Accel,SystemActivated,accelerometerXAxis,accelerometerYAxis,accelerometerZAxis,AccelX_KF,AccelY_KF,AccelZ_KF,gyroscopeXAxis,gyroscopeYAxis,gyroscopeZAxis,Timestamp_GPS,Speed,latitude,longitude,Altitude,VerticalAccuracy,HorizontalAccuracy,Course,Difcourse
10.07,1,0.011,-0.009,0.0,-0.009,-0.014,-0.0,-1.588,-0.004,-0.037,10.07,62.9,40.505707,-3.355475,602.1,3,5,274.2,0.703
10.17,1,-0.053,0.002,-0.012,-0.02,-0.003,-0.005,-1.589,-0.002,-0.036,10.07,62.9,40.505707,-3.355475,602.1,3,5,274.2,0.703
10.27,1,0.024,-0.057,-0.008,-0.008,-0.024,-0.007,-1.588,0.002,-0.035,10.07,62.9,40.505707,-3.355475,602.1,3,5,274.2,0.703
10.37,1,0.009,-0.018,-0.009,0.006,-0.032,-0.012,-1.583,0.002,-0.035,10.07,62.9,40.505707,-3.355475,602.1,3,5,274.2,0.703
10.47,1,-0.007,0.011,-0.009,0.002,-0.009,-0.008,-1.583,0.003,-0.035,10.07,62.9,40.505707,-3.355475,602.1,3,5,274.2,0.703
10.58,1,-0.027,-0.051,-0.014,-0.014,-0.022,-0.013,-1.586,0.001,-0.035,10.07,62.9,40.505707,-3.355475,602.1,3,5,274.2,0.703
10.68,1,-0.028,-0.025,-0.013,-0.019,-0.036,-0.007,-1.587,-0.001,-0.035,10.07,62.9,40.505707,-3.355475,602.1,3,5,274.2,0.703
10.77,1,0.049,-0.011,0.031,0.004,-0.016,0.002,-1.587,-0.003,-0.035,10.07,62.9,40.505707,-3.355475,602.1,3,5,274.2,0.703
10.87,1,-0.09,-0.002,-0.048,-0.039,-0.01,-0.009,-1.586,0.002,-0.034,10.07,62.9,40.505707,-3.355475,602.1,3,5,274.2,0.703
10.97,1,0.079,-0.027,0.027,0.012,-0.016,-0.006,-1.582,-0.003,-0.033,10.07,62.9,40.505707,-3.355475,602.1,3,5,274.2,0.703
11.08,1,0.011,-0.001,-0.009,0.037,-0.017,0.005,-1.582,-0.01,-0.032,11.07,63.7,40.505722,-3.355671,601.8,3,5,271.1,3.164
11.18,1,-0.03,-0.025,-0.004,-0.002,-0.009,-0.005,-1.583,-0.014,-0.031,11.07,63.7,40.505722,-3.355671,601.8,3,5,271.1,3.164
11.28,1,-0.057,-0.082,-0.01,-0.033,-0.041,-0.009,-1.584,-0.016,-0.031,11.07,63.7,40.505722,-3.355671,601.8,3,5,271.1,3.164
11.39,1,-0.032,-0.036,-0.013,-0.037,-0.054,-0.007,-1.584,-0.017,-0.03,11.07,63.7,40.505722,-3.355671,601.8,3,5,271.1,3.164
11.48,1,0.005,0.036,-0.003,-0.013,-0.014,-0.006,-1.585,-0.017,-0.029,11.07,63.7,40.505722,-3.355671,601.8,3,5,271.1,3.164
11.58,1,0.021,0.038,0.007,-0.009,0.023,-0.003,-1.584,-0.017,-0.03,11.07,63.7,40.505722,-3.355671,601.8,3,5,271.1,3.164
11.68,1,0.031,-0.043,0.0,0.031,-0.004,0.012,-1.582,-0.015,-0.032,11.07,63.7,40.505722,-3.355671,601.8,3,5,271.1,3.164
11.78,1,0.038,0.009,-0.023,0.024,-0.012,-0.015,-1.581,-0.015,-0.032,11.07,63.7,40.505722,-3.355671,601.8,3,5,271.1,3.164
11.89,1,0.018,-0.009,-0.002,0.031,0.001,-0.01,-1.581,-0.016,-0.032,11.07,63.7,40.505722,-3.355671,601.8,3,5,271.1,3.164
11.98,1,0.009,-0.114,0.046,0.016,-0.047,0.007,-1.583,-0.017,-0.031,11.07,63.7,40.505722,-3.355671,601.8,3,5,271.1,3.164
12.08,1,-0.124,-0.065,-0.019,-0.038,-0.075,0.018,-1.583,-0.018,-0.03,12.07,65.5,40.505737,-3.355892,604.5,3,5,274.6,3.516
12.18,1,0.008,-0.058,0.024,-0.048,-0.065,0.002,-1.584,-0.019,-0.028,12.07,65.5,40.505737,-3.355892,604.5,3,5,274.6,3.516
12.28,1,-0.052,-0.027,-0.002,-0.034,-0.042,0.014,-1.583,-0.018,-0.026,12.07,65.5,40.505737,-3.355892,604.5,3,5,274.6,3.516
12.38,1,0.013,-0.024,-0.019,-0.016,-0.036,-0.008,-1.583,-0.006,-0.024,12.07,65.5,40.505737,-3.355892,604.5,3,5,274.6,3.516
12.49,1,0.025,-0.011,0.011,-0.004,-0.022,-0.003,-1.581,-0.0,-0.022,12.07,65.5,40.505737,-3.355892,604.5,3,5,274.6,3.516
12.58,1,0.056,-0.02,0.019,0.042,-0.027,0.013,-1.581,0.001,-0.021,12.07,65.5,40.505737,-3.355892,604.5,3,5,274.6,3.516
12.68,1,-0.014,-0.026,0.005,0.026,-0.024,0.013,-1.578,-0.004,-0.019,12.07,65.5,40.505737,-3.355892,604.5,3,5,274.6,3.516
12.78,1,-0.006,-0.027,-0.009,-0.005,-0.025,-0.004,-1.577,-0.007,-0.019,12.07,65.5,40.505737,-3.355892,604.5,3,5,274.6,3.516
12.89,1,0.008,-0.037,0.02,0.001,-0.027,0.004,-1.581,-0.004,-0.018,12.07,65.5,40.505737,-3.355892,604.5,3,5,274.6,3.516
12.98,1,0.046,-0.037,0.015,0.016,-0.034,0.013,-1.588,0.002,-0.018,12.07,65.5,40.505737,-3.355892,604.5,3,5,274.6,3.516
13.09,1,-0.071,0.034,-0.005,-0.022,-0.005,0.003,-1.592,0.002,-0.017,13.07,67.0,40.505749,-3.356106,602.5,3,5,275.3,4.219
13.18,1,-0.01,-0.002,0.008,-0.017,0.006,0.01,-1.597,0.004,-0.017,13.07,67.0,40.505749,-3.356106,602.5,3,5,275.3,4.219
13.28,1,-0.056,0.011,-0.042,-0.023,0.004,-0.012,-1.593,-0.001,-0.016,13.07,67.0,40.505749,-3.356106,602.5,3,5,275.3,4.219
13.38,1,0.064,-0.028,-0.026,-0.002,-0.012,-0.027,-1.593,-0.001,-0.016,13.07,67.0,40.505749,-3.356106,602.5,3,5,275.3,4.219
13.49,1,0.069,0.048,0.002,0.056,0.004,-0.011,-1.597,-0.009,-0.014,13.07,67.0,40.505749,-3.356106,602.5,3,5,275.3,4.219
13.59,1,-0.028,-0.009,-0.012,0.006,0.019,-0.015,-1.597,-0.008,-0.014,13.07,67.0,40.505749,-3.356106,602.5,3,5,275.3,4.219
13.69,1,0.024,-0.018,0.013,0.027,-0.001,0.006,-1.597,-0.01,-0.013,13.07,67.0,40.505749,-3.356106,602.5,3,5,275.3,4.219
13.79,1,-0.116,-0.025,-0.076,-0.033,-0.01,-0.023,-1.594,-0.012,-0.013,13.07,67.0,40.505749,-3.356106,602.5,3,5,275.3,4.219
13.89,1,0.05,-0.13,-0.02,-0.027,-0.065,-0.039,-1.596,-0.012,-0.014,13.07,67.0,40.505749,-3.356106,602.5,3,5,275.3,4.219
13.99,1,0.083,0.029,0.038,0.035,-0.04,-0.004,-1.6,-0.013,-0.014,13.07,67.0,40.505749,-3.356106,602.5,3,5,275.3,4.219
14.09,1,-0.015,0.043,0.016,0.014,0.011,0.009,-1.601,-0.015,-0.013,14.08,68.8,40.505764,-3.35633,601.6,3,5,274.6,0.703
14.19,1,-0.017,0.032,-0.054,0.0,0.026,-0.013,-1.599,-0.016,-0.013,14.08,68.8,40.505764,-3.35633,601.6,3,5,274.6,0.703
14.3,1,0.088,0.011,0.005,0.039,0.017,-0.015,-1.598,-0.015,-0.013,14.08,68.8,40.505764,-3.35633,601.6,3,5,274.6,0.703
14.39,1,-0.075,-0.035,-0.028,-0.004,0.002,-0.015,-1.596,-0.012,-0.013,14.08,68.8,40.505764,-3.35633,601.6,3,5,274.6,0.703
14.49,1,0.099,-0.102,-0.027,0.029,-0.048,-0.022,-1.593,0.005,-0.013,14.08,68.8,40.505764,-3.35633,601.6,3,5,274.6,0.703
14.59,1,0.017,0.064,-0.023,0.037,-0.022,-0.028,-1.594,0.005,-0.013,14.08,68.8,40.505764,-3.35633,601.6,3,5,274.6,0.703
14.69,1,-0.035,0.034,-0.04,-0.001,0.021,-0.027,-1.596,0.005,-0.013,14.08,68.8,40.505764,-3.35633,601.6,3,5,274.6,0.703
14.79,1,0.026,0.011,0.022,-0.001,0.016,-0.012,-1.598,0.006,-0.013,14.08,68.8,40.505764,-3.35633,601.6,3,5,274.6,0.703
14.89,1,-0.06,0.044,-0.018,-0.009,0.028,0.0,-1.598,0.007,-0.012,14.08,68.8,40.505764,-3.35633,601.6,3,5,274.6,0.703
14.99,1,-0.083,0.055,-0.014,-0.056,0.041,-0.019,-1.599,0.008,-0.012,14.08,68.8,40.505764,-3.35633,601.6,3,5,274.6,0.703
15.09,1,-0.01,-0.078,0.006,-0.039,0.002,0.002,-1.599,0.007,-0.012,15.11,70.7,40.505779,-3.356555,601.5,3,5,274.6,0.703
15.19,1,0.01,-0.041,-0.011,-0.031,-0.039,-0.013,-1.597,0.005,-0.013,15.11,70.7,40.505779,-3.356555,601.5,3,5,274.6,0.703
15.29,1,0.001,0.002,-0.018,0.014,-0.027,-0.01,-1.596,0.004,-0.012,15.11,70.7,40.505779,-3.356555,601.5,3,5,274.6,0.703
15.4,1,-0.015,0.042,-0.023,-0.003,0.016,-0.017,-1.595,0.003,-0.011,15.11,70.7,40.505779,-3.356555,601.5,3,5,274.6,0.703
15.5,1,0.044,-0.04,0.0,-0.0,0.006,-0.011,-1.597,0.003,-0.011,15.11,70.7,40.505779,-3.356555,601.5,3,5,274.6,0.703
15.59,1,0.07,-0.067,0.025,0.053,-0.05,0.007,-1.598,0.002,-0.011,15.11,70.7,40.505779,-3.356555,601.5,3,5,274.6,0.703
15.69,1,-0.039,0.048,-0.012,0.006,-0.002,-0.001,-1.598,0.0,-0.011,15.11,70.7,40.505779,-3.356555,601.5,3,5,274.6,0.703
15.79,1,-0.003,0.023,0.014,0.001,0.015,0.004,-1.598,-0.001,-0.011,15.11,70.7,40.505779,-3.356555,601.5,3,5,274.6,0.703
15.9,1,-0.027,0.02,0.021,0.009,0.011,0.014,-1.596,-0.007,-0.011,15.11,70.7,40.505779,-3.356555,601.5,3,5,274.6,0.703
16.0,1,0.019,-0.049,0.011,-0.018,0.0,0.018,-1.594,-0.012,-0.01,15.11,70.7,40.505779,-3.356555,601.5,3,5,274.6,0.703
16.1,1,0.034,-0.036,0.005,0.017,-0.034,0.011,-1.593,-0.011,-0.011,16.11,72.0,40.505802,-3.35678,600.9,3,5,274.9,0.352
16.2,1,-0.013,0.007,-0.032,0.002,-0.017,-0.008,-1.592,-0.01,-0.011,16.11,72.0,40.505802,-3.35678,600.9,3,5,274.9,0.352
16.3,1,0.012,0.033,0.02,0.01,0.009,-0.004,-1.594,-0.01,-0.01,16.11,72.0,40.505802,-3.35678,600.9,3,5,274.9,0.352
16.4,1,-0.069,-0.03,-0.009,-0.036,0.01,-0.004,-1.595,-0.01,-0.01,16.11,72.0,40.505802,-3.35678,600.9,3,5,274.9,0.352
16.5,1,-0.032,-0.06,-0.025,-0.041,-0.041,-0.011,-1.595,-0.011,-0.01,16.11,72.0,40.505802,-3.35678,600.9,3,5,274.9,0.352
16.61,1,0.008,-0.073,-0.012,-0.009,-0.065,-0.01,-1.595,-0.011,-0.01,16.11,72.0,40.505802,-3.35678,600.9,3,5,274.9,0.352
16.71,1,0.064,-0.02,0.006,0.025,-0.05,-0.008,-1.596,-0.012,-0.011,16.11,72.0,40.505802,-3.35678,600.9,3,5,274.9,0.352
16.8,1,-0.023,-0.007,0.025,0.025,-0.036,0.015,-1.596,-0.013,-0.011,16.11,72.0,40.505802,-3.35678,600.9,3,5,274.9,0.352
16.9,1,-0.114,0.007,-0.082,-0.066,0.009,-0.026,-1.593,-0.015,-0.011,16.11,72.0,40.505802,-3.35678,600.9,3,5,274.9,0.352
17.0,1,-0.135,0.041,-0.037,-0.099,0.03,-0.046,-1.595,-0.016,-0.01,16.11,72.0,40.505802,-3.35678,600.9,3,5,274.9,0.352
17.1,1,0.088,-0.132,0.021,-0.022,-0.037,-0.015,-1.596,-0.017,-0.011,17.07,74.3,40.505825,-3.357008,601.0,3,5,274.9,0.352
17.2,1,-0.017,-0.029,-0.044,0.006,-0.067,-0.017,-1.595,-0.019,-0.01,17.07,74.3,40.505825,-3.357008,601.0,3,5,274.9,0.352
17.3,1,-0.004,0.007,0.012,-0.02,-0.018,-0.021,-1.595,-0.02,-0.01,17.07,74.3,40.505825,-3.357008,601.0,3,5,274.9,0.352
17.4,1,-0.069,-0.007,-0.014,-0.027,-0.016,-0.0,-1.593,-0.02,-0.01,17.07,74.3,40.505825,-3.357008,601.0,3,5,274.9,0.352
17.5,1,0.053,0.003,-0.029,0.017,-0.016,-0.015,-1.591,-0.019,-0.01,17.07,74.3,40.505825,-3.357008,601.0,3,5,274.9,0.352
17.6,1,-0.035,0.017,-0.042,0.001,0.011,-0.033,-1.591,-0.016,-0.009,17.07,74.3,40.505825,-3.357008,601.0,3,5,274.9,0.352
17.71,1,0.042,0.002,-0.003,-0.015,0.018,-0.026,-1.592,-0.014,-0.009,17.07,74.3,40.505825,-3.357008,601.0,3,5,274.9,0.352
17.81,1,-0.002,-0.015,-0.003,0.028,-0.009,-0.003,-1.592,-0.012,-0.009,17.07,74.3,40.505825,-3.357008,601.0,3,5,274.9,0.352
17.9,1,-0.069,-0.018,-0.037,-0.046,-0.007,-0.024,-1.585,0.019,-0.007,17.07,74.3,40.505825,-3.357008,601.0,3,5,274.9,0.352
18.01,1,-0.005,-0.003,0.009,-0.024,-0.014,-0.011,-1.592,0.037,-0.007,17.07,74.3,40.505825,-3.357008,601.0,3,5,274.9,0.352
18.11,1,0.007,0.03,-0.031,-0.007,0.012,-0.012,-1.593,0.036,-0.007,18.07,75.6,40.50584,-3.357251,600.7,3,5,274.9,0.0
18.21,1,-0.041,0.11,-0.057,-0.003,0.049,-0.032,-1.592,0.03,-0.007,18.07,75.6,40.50584,-3.357251,600.7,3,5,274.9,0.0
18.31,1,0.016,0.024,-0.043,-0.017,0.06,-0.048,-1.592,0.031,-0.006,18.07,75.6,40.50584,-3.357251,600.7,3,5,274.9,0.0
18.41,1,-0.0,0.069,-0.03,0.015,0.047,-0.037,-1.595,0.032,-0.006,18.07,75.6,40.50584,-3.357251,600.7,3,5,274.9,0.0
18.51,1,-0.108,0.036,0.007,-0.06,0.06,-0.021,-1.585,0.045,-0.006,18.07,75.6,40.50584,-3.357251,600.7,3,5,274.9,0.0
18.61,1,0.033,-0.057,-0.005,-0.033,-0.01,-0.005,-1.582,0.045,-0.007,18.07,75.6,40.50584,-3.357251,600.7,3,5,274.9,0.0
18.71,1,-0.013,0.06,-0.025,-0.016,0.02,-0.018,-1.581,0.042,-0.007,18.07,75.6,40.50584,-3.357251,600.7,3,5,274.9,0.0
18.81,1,-0.004,-0.014,-0.038,-0.005,0.017,-0.026,-1.58,0.039,-0.007,18.07,75.6,40.50584,-3.357251,600.7,3,5,274.9,0.0
18.91,1,-0.096,0.045,-0.033,-0.039,0.024,-0.029,-1.581,0.038,-0.006,18.07,75.6,40.50584,-3.357251,600.7,3,5,274.9,0.0
19.01,1,0.009,0.046,-0.003,-0.033,0.028,-0.021,-1.583,0.039,-0.006,18.07,75.6,40.50584,-3.357251,600.7,3,5,274.9,0.0
19.21,1,0.033,0.059,-0.014,-0.005,0.052,-0.028,-1.584,0.018,-0.009,19.07,76.7,40.505863,-3.357497,600.7,3,5,275.3,0.352
19.31,1,-0.037,0.075,-0.032,-0.015,0.071,-0.021,-1.585,0.008,-0.011,19.07,76.7,40.505863,-3.357497,600.7,3,5,275.3,0.352
19.41,1,0.067,-0.014,0.008,0.009,0.037,-0.015,-1.584,0.0,-0.012,19.07,76.7,40.505863,-3.357497,600.7,3,5,275.3,0.352
19.52,1,-0.036,0.044,-0.068,0.009,0.023,-0.025,-1.584,-0.003,-0.012,19.07,76.7,40.505863,-3.357497,600.7,3,5,275.3,0.352
19.61,1,0.013,0.014,-0.023,-0.005,0.027,-0.042,-1.586,-0.003,-0.012,19.07,76.7,40.505863,-3.357497,600.7,3,5,275.3,0.352
19.71,1,0.05,0.036,0.033,0.031,0.024,-0.003,-1.589,-0.012,-0.012,19.07,76.7,40.505863,-3.357497,600.7,3,5,275.3,0.352
19.81,1,-0.047,0.023,-0.063,0.001,0.03,-0.014,-1.587,-0.02,-0.012,19.07,76.7,40.505863,-3.357497,600.7,3,5,275.3,0.352
19.91,1,-0.033,0.009,-0.065,-0.033,0.01,-0.061,-1.588,-0.018,-0.013,19.07,76.7,40.505863,-3.357497,600.7,3,5,275.3,0.352
20.01,1,0.127,-0.015,0.053,0.026,0.01,-0.008,-1.59,-0.016,-0.013,19.07,76.7,40.505863,-3.357497,600.7,3,5,275.3,0.352
20.11,1,-0.053,0.003,-0.096,0.039,-0.004,-0.024,-1.585,-0.015,-0.013,19.07,76.7,40.505863,-3.357497,600.7,3,5,275.3,0.352
20.21,1,0.01,0.02,-0.049,-0.003,0.005,-0.058,-1.585,-0.017,-0.013,20.06,78.1,40.505886,-3.357746,601.3,3,5,275.3,0.352
20.31,1,-0.062,0.016,-0.018,-0.02,0.018,-0.037,-1.589,-0.018,-0.014,20.06,78.1,40.505886,-3.357746,601.3,3,5,275.3,0.352
20.42,1,-0.022,-0.004,0.015,-0.034,0.002,-0.014,-1.591,-0.019,-0.014,20.06,78.1,40.505886,-3.357746,601.3,3,5,275.3,0.352
20.53,1,0.02,-0.014,-0.025,-0.0,-0.001,-0.001,-1.587,-0.02,-0.015,20.06,78.1,40.505886,-3.357746,601.3,3,5,275.3,0.352
20.63,1,0.009,0.02,-0.048,-0.007,0.005,-0.037,-1.583,-0.021,-0.016,20.06,78.1,40.505886,-3.357746,601.3,3,5,275.3,0.352
20.73,1,-0.02,-0.004,-0.053,0.005,0.007,-0.041,-1.578,-0.021,-0.016,20.06,78.1,40.505886,-3.357746,601.3,3,5,275.3,0.352
20.82,1,0.051,-0.032,-0.015,0.005,-0.013,-0.037,-1.577,-0.018,-0.015,20.06,78.1,40.505886,-3.357746,601.3,3,5,275.3,0.352
20.92,1,-0.091,0.068,-0.003,-0.018,0.017,-0.016,-1.581,-0.021,-0.014,20.06,78.1,40.505886,-3.357746,601.3,3,5,275.3,0.352
21.02,1,-0.056,0.018,-0.016,-0.05,0.026,-0.01,-1.583,-0.018,-0.014,20.06,78.1,40.505886,-3.357746,601.3,3,5,275.3,0.352
21.12,1,-0.023,0.004,-0.04,-0.041,0.013,-0.024,-1.583,-0.018,-0.013,20.06,78.1,40.505886,-3.357746,601.3,3,5,275.3,0.352
21.22,1,-0.013,0.022,-0.015,-0.016,0.015,-0.028,-1.584,-0.019,-0.013,21.13,78.8,40.505905,-3.358001,600.2,3,5,276.0,0.703
21.32,1,-0.023,0.023,-0.007,-0.024,0.026,-0.015,-1.586,-0.013,-0.012,21.13,78.8,40.505905,-3.358001,600.2,3,5,276.0,0.703
21.42,1,-0.04,-0.119,-0.041,-0.036,-0.03,-0.018,-1.587,-0.013,-0.011,21.13,78.8,40.505905,-3.358001,600.2,3,5,276.0,0.703
21.52,1,0.01,-0.07,-0.01,-0.013,-0.075,-0.03,-1.589,-0.011,-0.009,21.13,78.8,40.505905,-3.358001,600.2,3,5,276.0,0.703
21.63,1,-0.043,0.0,0.018,-0.021,-0.035,0.004,-1.588,-0.01,-0.007,21.13,78.8,40.505905,-3.358001,600.2,3,5,276.0,0.703
21.73,1,0.085,-0.092,-0.051,0.013,-0.052,-0.02,-1.586,-0.01,-0.007,21.13,78.8,40.505905,-3.358001,600.2,3,5,276.0,0.703
21.83,1,0.01,0.013,-0.013,0.031,-0.037,-0.031,-1.587,-0.011,-0.006,21.13,78.8,40.505905,-3.358001,600.2,3,5,276.0,0.703
21.92,1,0.065,-0.06,0.026,0.033,-0.033,-0.001,-1.589,-0.012,-0.004,21.13,78.8,40.505905,-3.358001,600.2,3,5,276.0,0.703
22.02,1,-0.07,0.008,-0.038,0.008,-0.023,-0.002,-1.588,-0.014,-0.002,21.13,78.8,40.505905,-3.358001,600.2,3,5,276.0,0.703
22.12,1,-0.04,-0.044,-0.033,-0.038,-0.028,-0.031,-1.583,-0.014,-0.001,21.13,78.8,40.505905,-3.358001,600.2,3,5,276.0,0.703
22.22,1,0.033,-0.037,0.046,-0.008,-0.035,0.001,-1.584,-0.013,0.001,22.09,79.7,40.505928,-3.358264,600.0,3,5,272.1,3.867
22.32,1,-0.037,-0.041,-0.046,-0.002,-0.04,-0.004,-1.582,-0.016,0.002,22.09,79.7,40.505928,-3.358264,600.0,3,5,272.1,3.867
22.43,1,-0.025,-0.013,-0.012,-0.024,-0.028,-0.02,-1.583,-0.019,0.003,22.09,79.7,40.505928,-3.358264,600.0,3,5,272.1,3.867
22.52,1,-0.008,-0.005,-0.014,-0.018,-0.015,-0.016,-1.584,-0.016,0.004,22.09,79.7,40.505928,-3.358264,600.0,3,5,272.1,3.867
22.62,1,-0.031,-0.001,-0.031,-0.019,-0.006,-0.019,-1.586,-0.01,0.006,22.09,79.7,40.505928,-3.358264,600.0,3,5,272.1,3.867
22.72,1,0.007,-0.041,-0.014,-0.011,-0.016,-0.021,-1.582,-0.01,0.007,22.09,79.7,40.505928,-3.358264,600.0,3,5,272.1,3.867
22.82,1,-0.044,0.004,-0.021,-0.016,-0.022,-0.02,-1.583,-0.008,0.009,22.09,79.7,40.505928,-3.358264,600.0,3,5,272.1,3.867
22.92,1,-0.001,0.011,-0.005,-0.017,0.001,-0.011,-1.584,-0.01,0.011,22.09,79.7,40.505928,-3.358264,600.0,3,5,272.1,3.867
23.02,1,-0.044,0.022,-0.026,-0.027,0.014,-0.021,-1.584,-0.012,0.012,22.09,79.7,40.505928,-3.358264,600.0,3,5,272.1,3.867
23.13,1,0.034,-0.04,0.045,-0.008,0.001,0.01,-1.585,-0.014,0.013,22.09,79.7,40.505928,-3.358264,600.0,3,5,272.1,3.867
23.23,1,-0.044,-0.026,-0.045,0.001,-0.024,-0.001,-1.585,-0.015,0.014,23.07,80.3,40.505951,-3.358522,599.4,3,5,272.1,3.867
23.33,1,-0.009,-0.044,-0.01,-0.038,-0.03,-0.028,-1.588,-0.017,0.016,23.07,80.3,40.505951,-3.358522,599.4,3,5,272.1,3.867
23.44,1,-0.003,-0.044,-0.005,-0.004,-0.045,-0.0,-1.591,-0.014,0.018,23.07,80.3,40.505951,-3.358522,599.4,3,5,272.1,3.867
23.53,1,-0.043,-0.04,-0.039,-0.022,-0.04,-0.03,-1.591,-0.011,0.019,23.07,80.3,40.505951,-3.358522,599.4,3,5,272.1,3.867
23.63,1,0.053,-0.011,-0.001,0.007,-0.021,-0.007,-1.59,-0.013,0.022,23.07,80.3,40.505951,-3.358522,599.4,3,5,272.1,3.867
23.73,1,-0.064,-0.065,-0.111,-0.009,-0.042,-0.06,-1.589,-0.013,0.024,23.07,80.3,40.505951,-3.358522,599.4,3,5,272.1,3.867
23.83,1,-0.044,-0.052,0.007,-0.049,-0.054,-0.048,-1.592,-0.014,0.028,23.07,80.3,40.505951,-3.358522,599.4,3,5,272.1,3.867
23.93,1,-0.038,-0.063,-0.036,-0.03,-0.056,-0.015,-1.591,-0.016,0.03,23.07,80.3,40.505951,-3.358522,599.4,3,5,272.1,3.867
24.03,1,-0.025,-0.032,-0.051,-0.047,-0.046,-0.044,-1.587,-0.023,0.033,23.07,80.3,40.505951,-3.358522,599.4,3,5,272.1,3.867
24.13,1,-0.005,-0.047,-0.017,-0.009,-0.048,-0.03,-1.588,-0.024,0.035,23.07,80.3,40.505951,-3.358522,599.4,3,5,272.1,3.867
24.23,1,-0.086,-0.071,-0.089,-0.047,-0.046,-0.053,-1.586,-0.019,0.037,24.14,81.6,40.505966,-3.358797,600.9,3,5,274.9,2.812
24.33,1,0.051,-0.06,0.031,-0.019,-0.068,-0.034,-1.587,-0.015,0.039,24.14,81.6,40.505966,-3.358797,600.9,3,5,274.9,2.812
24.43,1,-0.064,0.025,-0.06,-0.009,-0.03,-0.018,-1.586,-0.016,0.042,24.14,81.6,40.505966,-3.358797,600.9,3,5,274.9,2.812
24.54,1,-0.037,-0.032,-0.042,-0.038,-0.013,-0.044,-1.587,-0.014,0.046,24.14,81.6,40.505966,-3.358797,600.9,3,5,274.9,2.812
24.64,1,0.031,-0.037,0.004,-0.011,-0.029,-0.027,-1.589,-0.012,0.049,24.14,81.6,40.505966,-3.358797,600.9,3,5,274.9,2.812
24.74,1,-0.051,-0.006,-0.034,-0.008,-0.025,-0.019,-1.582,-0.005,0.051,24.14,81.6,40.505966,-3.358797,600.9,3,5,274.9,2.812
24.83,1,-0.039,-0.031,-0.049,-0.045,-0.022,-0.04,-1.571,0.01,0.053,24.14,81.6,40.505966,-3.358797,600.9,3,5,274.9,2.812
24.93,1,0.077,-0.01,0.017,0.009,-0.022,-0.014,-1.576,0.007,0.056,24.14,81.6,40.505966,-3.358797,600.9,3,5,274.9,2.812
25.03,1,-0.019,-0.001,-0.023,0.022,-0.014,-0.009,-1.575,0.009,0.058,24.14,81.6,40.505966,-3.358797,600.9,3,5,274.9,2.812
25.14,1,0.035,0.006,-0.001,0.017,0.008,-0.01,-1.574,0.008,0.061,24.14,81.6,40.505966,-3.358797,600.9,3,5,274.9,2.812
25.24,1,0.023,0.01,-0.052,0.017,0.004,-0.029,-1.575,0.009,0.063,25.07,81.9,40.505981,-3.359067,600.3,4,5,273.5,1.406
25.34,1,-0.028,-0.013,0.008,0.004,-0.005,-0.019,-1.578,0.01,0.066,25.07,81.9,40.505981,-3.359067,600.3,4,5,273.5,1.406
25.43,1,0.001,-0.069,-0.0,0.002,-0.03,0.003,-1.578,0.009,0.067,25.07,81.9,40.505981,-3.359067,600.3,4,5,273.5,1.406
25.54,1,-0.084,-0.024,-0.046,-0.032,-0.034,-0.02,-1.577,0.008,0.07,25.07,81.9,40.505981,-3.359067,600.3,4,5,273.5,1.406
25.64,1,0.048,-0.056,-0.0,-0.025,-0.044,-0.024,-1.578,0.008,0.072,25.07,81.9,40.505981,-3.359067,600.3,4,5,273.5,1.406
25.74,1,-0.005,-0.0,-0.012,0.012,-0.029,-0.008,-1.575,0.008,0.075,25.07,81.9,40.505981,-3.359067,600.3,4,5,273.5,1.406
25.84,1,-0.053,0.007,-0.028,-0.021,-0.003,-0.02,-1.572,0.009,0.078,25.07,81.9,40.505981,-3.359067,600.3,4,5,273.5,1.406
25.95,1,0.037,-0.026,0.021,-0.006,-0.011,-0.005,-1.574,0.011,0.081,25.07,81.9,40.505981,-3.359067,600.3,4,5,273.5,1.406
26.04,1,0.02,-0.03,-0.021,0.019,-0.024,-0.003,-1.575,0.017,0.084,25.07,81.9,40.505981,-3.359067,600.3,4,5,273.5,1.406
26.14,1,-0.005,-0.034,-0.018,0.009,-0.031,-0.014,-1.572,0.026,0.086,25.07,81.9,40.505981,-3.359067,600.3,4,5,273.5,1.406
26.24,1,-0.056,0.042,-0.021,-0.027,-0.001,-0.017,-1.573,0.027,0.089,26.07,80.8,40.505985,-3.359329,599.3,4,5,272.1,2.812
26.34,1,0.057,-0.025,0.013,0.01,-0.001,-0.002,-1.57,0.028,0.092,26.07,80.8,40.505985,-3.359329,599.3,4,5,272.1,2.812
26.44,1,-0.048,-0.028,-0.064,-0.007,-0.017,-0.024,-1.566,0.025,0.095,26.07,80.8,40.505985,-3.359329,599.3,4,5,272.1,2.812
26.54,1,0.019,-0.007,0.013,-0.011,-0.016,-0.027,-1.567,0.024,0.098,26.07,80.8,40.505985,-3.359329,599.3,4,5,272.1,2.812
26.64,1,0.057,0.007,0.029,0.028,0.002,0.014,-1.568,0.024,0.101,26.07,80.8,40.505985,-3.359329,599.3,4,5,272.1,2.812
26.74,1,-0.038,-0.024,-0.063,-0.003,-0.01,-0.024,-1.564,0.023,0.104,26.07,80.8,40.505985,-3.359329,599.3,4,5,272.1,2.812
26.84,1,0.025,-0.028,0.023,0.005,-0.025,-0.009,-1.567,0.025,0.107,26.07,80.8,40.505985,-3.359329,599.3,4,5,272.1,2.812
26.95,1,-0.03,-0.022,-0.017,0.003,-0.025,-0.0,-1.569,0.024,0.11,26.07,80.8,40.505985,-3.359329,599.3,4,5,272.1,2.812
27.05,1,-0.062,0.008,0.009,-0.041,-0.008,-0.007,-1.568,0.029,0.113,26.07,80.8,40.505985,-3.359329,599.3,4,5,272.1,2.812
27.14,1,0.008,-0.006,0.017,-0.028,0.0,0.011,-1.57,0.031,0.115,26.07,80.8,40.505985,-3.359329,599.3,4,5,272.1,2.812
27.24,1,0.019,0.035,-0.006,0.007,0.004,0.0,-1.57,0.036,0.118,27.07,82.4,40.505985,-3.359604,599.6,4,5,271.4,2.109
27.34,1,-0.04,0.072,-0.041,-0.01,0.055,-0.013,-1.57,0.038,0.121,27.07,82.4,40.505985,-3.359604,599.6,4,5,271.4,2.109
27.44,1,0.038,-0.025,0.027,-0.009,0.012,-0.017,-1.574,0.039,0.123,27.07,82.4,40.505985,-3.359604,599.6,4,5,271.4,2.109
27.54,1,-0.036,0.033,0.026,0.017,0.013,0.031,-1.576,0.037,0.125,27.07,82.4,40.505985,-3.359604,599.6,4,5,271.4,2.109
27.65,1,-0.068,0.027,-0.073,-0.043,0.019,-0.027,-1.576,0.035,0.126,27.07,82.4,40.505985,-3.359604,599.6,4,5,271.4,2.109
27.75,1,-0.014,0.06,0.06,-0.026,0.033,0.008,-1.579,0.032,0.128,27.07,82.4,40.505985,-3.359604,599.6,4,5,271.4,2.109
27.85,1,-0.036,0.019,-0.026,-0.037,0.046,0.006,-1.578,0.031,0.13,27.07,82.4,40.505985,-3.359604,599.6,4,5,271.4,2.109
27.95,1,-0.022,0.022,-0.015,-0.036,0.026,-0.021,-1.579,0.033,0.132,27.07,82.4,40.505985,-3.359604,599.6,4,5,271.4,2.109
28.05,1,-0.016,0.023,0.006,-0.03,0.026,-0.003,-1.58,0.035,0.135,27.07,82.4,40.505985,-3.359604,599.6,4,5,271.4,2.109
28.15,1,0.002,0.002,-0.007,-0.008,0.01,-0.005,-1.575,0.041,0.137,27.07,82.4,40.505985,-3.359604,599.6,4,5,271.4,2.109
28.25,1,-0.06,0.064,-0.04,-0.022,0.037,-0.015,-1.572,0.045,0.138,28.07,82.6,40.505989,-3.359871,600.7,4,5,269.6,2.461
28.35,1,0.037,0.029,0.013,-0.008,0.037,-0.013,-1.574,0.045,0.14,28.07,82.6,40.505989,-3.359871,600.7,4,5,269.6,2.461
28.45,1,-0.025,0.05,-0.039,-0.002,0.041,-0.01,-1.575,0.042,0.142,28.07,82.6,40.505989,-3.359871,600.7,4,5,269.6,2.461
28.55,1,-0.055,0.015,-0.011,-0.043,0.03,-0.03,-1.578,0.04,0.143,28.07,82.6,40.505989,-3.359871,600.7,4,5,269.6,2.461
28.66,1,-0.026,0.053,0.019,-0.021,0.034,0.006,-1.583,0.035,0.145,28.07,82.6,40.505989,-3.359871,600.7,4,5,269.6,2.461
28.75,1,-0.04,0.045,-0.045,-0.037,0.046,-0.017,-1.578,0.037,0.147,28.07,82.6,40.505989,-3.359871,600.7,4,5,269.6,2.461
28.86,1,-0.035,0.03,0.003,-0.036,0.041,-0.015,-1.579,0.035,0.149,28.07,82.6,40.505989,-3.359871,600.7,4,5,269.6,2.461
28.96,1,-0.02,-0.005,-0.013,-0.029,0.023,-0.009,-1.577,0.034,0.15,28.07,82.6,40.505989,-3.359871,600.7,4,5,269.6,2.461
29.05,1,-0.0,0.019,0.02,-0.011,0.008,0.002,-1.574,0.039,0.152,28.07,82.6,40.505989,-3.359871,600.7,4,5,269.6,2.461
29.15,1,-0.083,-0.029,-0.07,-0.036,0.004,-0.027,-1.575,0.04,0.154,28.07,82.6,40.505989,-3.359871,600.7,4,5,269.6,2.461
29.25,1,0.055,-0.047,0.075,-0.026,-0.028,0.004,-1.577,0.04,0.155,29.07,83.4,40.505989,-3.360142,599.9,3,5,268.9,2.461
29.35,1,-0.089,0.051,-0.091,-0.013,-0.001,-0.005,-1.575,0.041,0.156,29.07,83.4,40.505989,-3.360142,599.9,3,5,268.9,2.461
29.45,1,0.001,0.058,0.017,-0.042,0.033,-0.038,-1.578,0.043,0.158,29.07,83.4,40.505989,-3.360142,599.9,3,5,268.9,2.461
29.55,1,-0.012,0.051,0.036,-0.004,0.049,0.027,-1.578,0.043,0.159,29.07,83.4,40.505989,-3.360142,599.9,3,5,268.9,2.461
29.65,1,-0.049,0.017,-0.069,-0.042,0.035,-0.023,-1.576,0.043,0.161,29.07,83.4,40.505989,-3.360142,599.9,3,5,268.9,2.461
29.76,1,0.018,0.055,0.02,-0.009,0.042,-0.014,-1.578,0.04,0.163,29.07,83.4,40.505989,-3.360142,599.9,3,5,268.9,2.461
29.86,1,-0.102,0.021,-0.058,-0.039,0.033,-0.021,-1.58,0.039,0.165,29.07,83.4,40.505989,-3.360142,599.9,3,5,268.9,2.461
29.95,1,-0.108,0.04,-0.018,-0.089,0.036,-0.038,-1.584,0.039,0.166,29.07,83.4,40.505989,-3.360142,599.9,3,5,268.9,2.461
30.06,1,-0.059,0.039,0.017,-0.084,0.042,-0.005,-1.587,0.041,0.169,29.07,83.4,40.505989,-3.360142,599.9,3,5,268.9,2.461
30.15,1,-0.066,0.012,0.004,-0.065,0.019,0.002,-1.585,0.037,0.171,29.07,83.4,40.505989,-3.360142,599.9,3,5,268.9,2.461
30.25,1,0.052,-0.023,0.038,-0.012,0.003,0.026,-1.583,0.033,0.174,30.09,83.6,40.505978,-3.360418,599.4,3,5,267.9,1.758
30.35,1,-0.047,-0.016,-0.09,-0.013,-0.011,-0.02,-1.577,0.023,0.176,30.09,83.6,40.505978,-3.360418,599.4,3,5,267.9,1.758
30.45,1,-0.002,-0.015,0.002,-0.018,-0.012,-0.035,-1.578,0.022,0.178,30.09,83.6,40.505978,-3.360418,599.4,3,5,267.9,1.758
30.57,1,-0.033,0.016,0.015,-0.022,-0.0,-0.0,-1.582,0.022,0.18,30.09,83.6,40.505978,-3.360418,599.4,3,5,267.9,1.758
30.66,1,0.003,-0.021,-0.005,-0.009,-0.008,0.002,-1.584,0.025,0.181,30.09,83.6,40.505978,-3.360418,599.4,3,5,267.9,1.758
30.76,1,-0.028,0.045,0.002,-0.021,0.011,-0.005,-1.581,0.028,0.183,30.09,83.6,40.505978,-3.360418,599.4,3,5,267.9,1.758
30.86,1,0.023,0.013,0.001,-0.001,0.021,0.002,-1.577,0.03,0.185,30.09,83.6,40.505978,-3.360418,599.4,3,5,267.9,1.758
30.96,1,-0.009,0.044,-0.035,0.005,0.024,-0.014,-1.577,0.031,0.188,30.09,83.6,40.505978,-3.360418,599.4,3,5,267.9,1.758
31.06,1,0.049,-0.013,0.025,0.0,0.022,-0.006,-1.581,0.03,0.19,30.09,83.6,40.505978,-3.360418,599.4,3,5,267.9,1.758
31.16,1,-0.028,0.017,-0.019,0.016,0.01,0.004,-1.581,0.027,0.192,30.09,83.6,40.505978,-3.360418,599.4,3,5,267.9,1.758
31.26,1,-0.023,0.011,0.002,-0.013,0.009,-0.009,-1.579,0.025,0.194,31.07,84.0,40.505966,-3.360694,600.7,3,5,266.8,2.109
31.36,1,0.004,0.034,0.007,-0.011,0.022,0.0,-1.578,0.026,0.196,31.07,84.0,40.505966,-3.360694,600.7,3,5,266.8,2.109
31.46,1,-0.008,-0.025,-0.022,0.003,0.008,-0.002,-1.575,0.027,0.198,31.07,84.0,40.505966,-3.360694,600.7,3,5,266.8,2.109
31.56,1,-0.001,-0.057,0.023,-0.009,-0.03,-0.007,-1.576,0.026,0.201,31.07,84.0,40.505966,-3.360694,600.7,3,5,266.8,2.109
31.66,1,0.093,-0.037,0.06,0.026,-0.034,0.039,-1.577,0.019,0.204,31.07,84.0,40.505966,-3.360694,600.7,3,5,266.8,2.109
31.76,1,-0.03,0.071,-0.052,0.038,-0.004,0.005,-1.576,0.017,0.207,31.07,84.0,40.505966,-3.360694,600.7,3,5,266.8,2.109
31.86,1,0.021,0.048,0.031,-0.001,0.045,-0.006,-1.579,0.017,0.211,31.07,84.0,40.505966,-3.360694,600.7,3,5,266.8,2.109
31.96,1,0.017,0.017,0.034,0.019,0.031,0.025,-1.579,0.018,0.214,31.07,84.0,40.505966,-3.360694,600.7,3,5,266.8,2.109
32.06,1,-0.114,0.029,-0.064,-0.035,0.026,-0.011,-1.576,0.019,0.216,31.07,84.0,40.505966,-3.360694,600.7,3,5,266.8,2.109
32.16,1,0.077,-0.073,0.012,-0.007,-0.014,-0.017,-1.577,0.022,0.218,31.07,84.0,40.505966,-3.360694,600.7,3,5,266.8,2.109
32.26,1,0.015,-0.057,0.023,0.019,-0.049,0.01,-1.576,0.021,0.221,32.08,84.6,40.505955,-3.360976,600.7,3,5,265.4,2.461
32.36,1,-0.029,0.041,-0.038,-0.002,-0.01,-0.007,-1.575,0.02,0.223,32.08,84.6,40.505955,-3.360976,600.7,3,5,265.4,2.461
32.46,1,0.012,0.065,0.008,-0.002,0.033,-0.013,-1.578,0.019,0.225,32.08,84.6,40.505955,-3.360976,600.7,3,5,265.4,2.461
32.56,1,-0.016,0.064,0.015,0.002,0.058,0.011,-1.579,0.018,0.228,32.08,84.6,40.505955,-3.360976,600.7,3,5,265.4,2.461
32.66,1,-0.042,-0.027,-0.026,-0.021,0.024,-0.004,-1.578,0.019,0.23,32.08,84.6,40.505955,-3.360976,600.7,3,5,265.4,2.461
32.76,1,0.036,0.008,0.025,-0.009,-0.006,0.0,-1.578,0.021,0.232,32.08,84.6,40.505955,-3.360976,600.7,3,5,265.4,2.461
32.86,1,-0.025,0.012,-0.055,-0.006,0.019,-0.01,-1.576,0.02,0.235,32.08,84.6,40.505955,-3.360976,600.7,3,5,265.4,2.461
32.97,1,0.016,0.006,0.021,-0.004,0.009,-0.018,-1.577,0.02,0.237,32.08,84.6,40.505955,-3.360976,600.7,3,5,265.4,2.461
33.06,1,-0.009,0.035,-0.021,0.01,0.023,-0.0,-1.576,0.02,0.239,32.08,84.6,40.505955,-3.360976,600.7,3,5,265.4,2.461
33.16,1,-0.131,0.025,-0.055,-0.048,0.02,-0.029,-1.576,0.019,0.241,32.08,84.6,40.505955,-3.360976,600.7,3,5,265.4,2.461
33.27,1,0.04,0.017,0.049,-0.05,0.025,-0.014,-1.579,0.019,0.242,33.08,84.1,40.505928,-3.361251,601.1,3,5,263.3,3.516
33.37,1,0.039,-0.014,0.025,0.021,0.009,0.031,-1.581,0.021,0.244,33.08,84.1,40.505928,-3.361251,601.1,3,5,263.3,3.516
33.47,1,-0.037,-0.019,-0.024,-0.006,-0.02,0.006,-1.579,0.023,0.248,33.08,84.1,40.505928,-3.361251,601.1,3,5,263.3,3.516
33.57,1,-0.065,-0.025,-0.029,-0.037,-0.011,-0.028,-1.58,0.022,0.25,33.08,84.1,40.505928,-3.361251,601.1,3,5,263.3,3.516
33.67,1,0.066,-0.032,0.042,0.009,-0.026,0.014,-1.58,0.019,0.251,33.08,84.1,40.505928,-3.361251,601.1,3,5,263.3,3.516
33.77,1,-0.089,0.03,-0.088,-0.029,-0.013,-0.033,-1.577,0.017,0.252,33.08,84.1,40.505928,-3.361251,601.1,3,5,263.3,3.516
33.87,1,0.082,0.025,0.009,0.0,0.015,-0.028,-1.579,0.016,0.252,33.08,84.1,40.505928,-3.361251,601.1,3,5,263.3,3.516
33.97,1,-0.022,0.093,-0.018,0.018,0.051,-0.008,-1.581,-0.002,0.253,33.08,84.1,40.505928,-3.361251,601.1,3,5,263.3,3.516
34.07,1,-0.063,0.028,-0.019,-0.03,0.057,-0.017,-1.581,-0.01,0.253,33.08,84.1,40.505928,-3.361251,601.1,3,5,263.3,3.516
34.18,1,-0.029,-0.005,-0.019,-0.024,0.019,-0.017,-1.582,-0.012,0.254,33.08,84.1,40.505928,-3.361251,601.1,3,5,263.3,3.516
34.27,1,0.012,-0.007,-0.008,-0.031,0.008,-0.022,-1.58,-0.013,0.255,34.08,84.6,40.505898,-3.361522,602.5,3,5,261.9,3.516
34.37,1,-0.034,0.069,-0.031,-0.008,0.021,-0.014,-1.578,-0.013,0.256,34.08,84.6,40.505898,-3.361522,602.5,3,5,261.9,3.516
34.47,1,0.041,-0.027,0.007,-0.003,0.012,-0.018,-1.582,-0.014,0.257,34.08,84.6,40.505898,-3.361522,602.5,3,5,261.9,3.516
34.57,1,0.003,0.039,-0.033,0.005,0.017,-0.013,-1.58,-0.014,0.259,34.08,84.6,40.505898,-3.361522,602.5,3,5,261.9,3.516
34.67,1,-0.026,0.038,-0.014,-0.001,0.03,-0.019,-1.58,-0.015,0.259,34.08,84.6,40.505898,-3.361522,602.5,3,5,261.9,3.516
34.77,1,-0.032,0.01,-0.008,-0.023,0.026,-0.016,-1.581,-0.021,0.259,34.08,84.6,40.505898,-3.361522,602.5,3,5,261.9,3.516
34.87,1,-0.002,0.066,0.016,-0.011,0.036,0.002,-1.585,-0.028,0.259,34.08,84.6,40.505898,-3.361522,602.5,3,5,261.9,3.516
34.97,1,0.012,0.046,0.008,-0.007,0.052,0.007,-1.586,-0.042,0.259,34.08,84.6,40.505898,-3.361522,602.5,3,5,261.9,3.516
35.07,1,0.026,0.004,-0.042,0.018,0.027,-0.011,-1.585,-0.042,0.259,34.08,84.6,40.505898,-3.361522,602.5,3,5,261.9,3.516
35.18,1,-0.042,0.0,-0.036,-0.004,0.012,-0.032,-1.587,-0.044,0.259,34.08,84.6,40.505898,-3.361522,602.5,3,5,261.9,3.516
35.27,1,0.01,0.018,0.032,-0.009,0.011,-0.005,-1.59,-0.049,0.26,35.09,84.5,40.505859,-3.361803,603.5,4,5,260.5,2.812
35.38,1,-0.01,-0.013,0.007,-0.01,-0.004,0.007,-1.587,-0.046,0.26,35.09,84.5,40.505859,-3.361803,603.5,4,5,260.5,2.812
35.47,1,0.015,0.016,-0.004,0.013,0.001,0.01,-1.584,-0.043,0.26,35.09,84.5,40.505859,-3.361803,603.5,4,5,260.5,2.812
35.57,1,-0.039,0.032,-0.052,-0.011,0.025,-0.024,-1.581,-0.044,0.26,35.09,84.5,40.505859,-3.361803,603.5,4,5,260.5,2.812
35.68,1,0.032,-0.014,-0.0,-0.009,0.018,-0.022,-1.585,-0.044,0.261,35.09,84.5,40.505859,-3.361803,603.5,4,5,260.5,2.812
35.78,1,0.008,-0.016,0.035,-0.001,-0.004,-0.001,-1.589,-0.043,0.263,35.09,84.5,40.505859,-3.361803,603.5,4,5,260.5,2.812
35.87,1,0.029,0.023,-0.006,0.016,0.001,0.02,-1.587,-0.043,0.264,35.09,84.5,40.505859,-3.361803,603.5,4,5,260.5,2.812
35.98,1,0.008,0.023,-0.032,0.022,0.011,-0.015,-1.585,-0.043,0.266,35.09,84.5,40.505859,-3.361803,603.5,4,5,260.5,2.812
36.08,1,-0.069,0.019,-0.04,-0.006,0.018,-0.025,-1.587,-0.043,0.267,35.09,84.5,40.505859,-3.361803,603.5,4,5,260.5,2.812
36.18,1,0.035,-0.034,0.06,-0.007,-0.003,-0.002,-1.59,-0.044,0.268,35.09,84.5,40.505859,-3.361803,603.5,4,5,260.5,2.812
36.28,1,-0.062,-0.054,-0.03,-0.035,-0.031,0.009,-1.588,-0.044,0.27,36.07,84.8,40.505825,-3.362071,603.0,3,5,259.8,2.109
36.38,1,0.033,0.006,-0.007,-0.0,-0.031,-0.005,-1.585,-0.043,0.271,36.07,84.8,40.505825,-3.362071,603.0,3,5,259.8,2.109
36.48,1,-0.012,-0.012,-0.027,-0.001,-0.004,-0.019,-1.585,-0.041,0.273,36.07,84.8,40.505825,-3.362071,603.0,3,5,259.8,2.109
36.58,1,0.043,-0.016,0.001,0.015,-0.011,-0.01,-1.587,-0.038,0.276,36.07,84.8,40.505825,-3.362071,603.0,3,5,259.8,2.109
36.68,1,0.031,0.008,0.039,0.025,-0.008,0.011,-1.591,-0.029,0.278,36.07,84.8,40.505825,-3.362071,603.0,3,5,259.8,2.109
36.78,1,-0.064,0.003,-0.037,-0.006,0.005,-0.001,-1.591,-0.026,0.279,36.07,84.8,40.505825,-3.362071,603.0,3,5,259.8,2.109
36.88,1,0.028,-0.025,-0.001,0.002,-0.01,-0.006,-1.59,-0.026,0.28,36.07,84.8,40.505825,-3.362071,603.0,3,5,259.8,2.109
36.98,1,-0.017,-0.016,-0.022,-0.015,-0.012,-0.02,-1.589,-0.026,0.282,36.07,84.8,40.505825,-3.362071,603.0,3,5,259.8,2.109
37.08,1,-0.001,0.021,-0.001,-0.001,-0.006,-0.002,-1.589,-0.024,0.283,36.07,84.8,40.505825,-3.362071,603.0,3,5,259.8,2.109
37.18,1,-0.008,-0.021,-0.009,-0.006,-0.002,-0.014,-1.589,-0.024,0.286,36.07,84.8,40.505825,-3.362071,603.0,3,5,259.8,2.109
37.28,1,-0.044,-0.018,-0.029,-0.02,-0.012,-0.017,-1.589,-0.022,0.287,37.09,85.5,40.505779,-3.36235,602.7,3,5,259.1,1.406
37.38,1,-0.026,-0.058,0.008,-0.031,-0.035,-0.006,-1.594,-0.02,0.289,37.09,85.5,40.505779,-3.36235,602.7,3,5,259.1,1.406
37.48,1,-0.015,-0.028,-0.007,-0.02,-0.041,-0.006,-1.596,-0.023,0.29,37.09,85.5,40.505779,-3.36235,602.7,3,5,259.1,1.406
37.58,1,0.007,-0.038,-0.015,-0.012,-0.032,-0.009,-1.595,-0.022,0.292,37.09,85.5,40.505779,-3.36235,602.7,3,5,259.1,1.406
37.69,1,-0.023,0.005,-0.027,-0.009,-0.014,-0.016,-1.591,-0.018,0.294,37.09,85.5,40.505779,-3.36235,602.7,3,5,259.1,1.406
37.79,1,-0.015,0.029,0.022,-0.015,0.006,-0.004,-1.588,-0.01,0.295,37.09,85.5,40.505779,-3.36235,602.7,3,5,259.1,1.406
37.88,1,-0.004,0.019,0.012,-0.004,0.013,0.007,-1.593,-0.016,0.296,37.09,85.5,40.505779,-3.36235,602.7,3,5,259.1,1.406
37.98,1,-0.049,-0.008,-0.03,-0.03,0.014,-0.005,-1.593,-0.019,0.298,37.09,85.5,40.505779,-3.36235,602.7,3,5,259.1,1.406
38.08,1,0.014,-0.004,-0.009,-0.024,-0.015,-0.016,-1.591,-0.013,0.299,37.09,85.5,40.505779,-3.36235,602.7,3,5,259.1,1.406
38.19,1,-0.011,0.053,-0.012,-0.005,0.017,-0.011,-1.591,-0.014,0.301,37.09,85.5,40.505779,-3.36235,602.7,3,5,259.1,1.406
38.29,1,0.022,0.02,0.015,0.01,0.04,0.004,-1.59,-0.015,0.301,38.1,85.7,40.505737,-3.362628,603.2,3,5,257.3,2.461
38.38,1,0.003,0.003,-0.03,0.005,0.015,-0.01,-1.587,-0.015,0.302,38.1,85.7,40.505737,-3.362628,603.2,3,5,257.3,2.461
38.48,1,0.006,0.001,-0.025,0.015,0.014,-0.021,-1.587,-0.019,0.304,38.1,85.7,40.505737,-3.362628,603.2,3,5,257.3,2.461
38.59,1,-0.03,-0.028,-0.016,-0.026,-0.012,-0.026,-1.588,-0.022,0.305,38.1,85.7,40.505737,-3.362628,603.2,3,5,257.3,2.461
38.69,1,-0.01,-0.018,-0.003,-0.005,-0.022,-0.003,-1.587,-0.022,0.306,38.1,85.7,40.505737,-3.362628,603.2,3,5,257.3,2.461
38.79,1,-0.035,-0.018,-0.051,-0.02,-0.019,-0.029,-1.585,-0.022,0.308,38.1,85.7,40.505737,-3.362628,603.2,3,5,257.3,2.461
38.9,1,0.047,-0.026,0.002,0.005,-0.02,-0.021,-1.582,-0.016,0.309,38.1,85.7,40.505737,-3.362628,603.2,3,5,257.3,2.461
38.99,1,-0.026,-0.005,-0.041,-0.0,-0.018,-0.025,-1.581,-0.016,0.31,38.1,85.7,40.505737,-3.362628,603.2,3,5,257.3,2.461
39.19,1,-0.017,0.059,-0.001,0.001,0.02,-0.019,-1.58,-0.016,0.313,38.1,85.7,40.505737,-3.362628,603.2,3,5,257.3,2.461
39.29,1,-0.018,0.025,-0.061,0.004,0.038,-0.026,-1.577,-0.009,0.314,38.1,85.7,40.505737,-3.362628,603.2,3,5,257.3,2.461
39.39,1,-0.016,0.005,0.004,-0.015,0.022,-0.025,-1.578,-0.008,0.315,39.06,86.6,40.505684,-3.362908,603.6,3,5,255.6,3.516
39.5,1,0.031,0.036,0.023,0.001,0.027,0.004,-1.578,-0.01,0.316,39.06,86.6,40.505684,-3.362908,603.6,3,5,255.6,3.516
39.59,1,-0.049,0.042,-0.063,-0.005,0.025,-0.017,-1.578,-0.013,0.317,39.06,86.6,40.505684,-3.362908,603.6,3,5,255.6,3.516
39.69,1,0.027,0.045,0.017,-0.007,0.044,-0.021,-1.58,-0.012,0.319,39.06,86.6,40.505684,-3.362908,603.6,3,5,255.6,3.516
39.79,1,0.095,0.011,-0.006,0.041,0.03,-0.0,-1.579,-0.009,0.32,39.06,86.6,40.505684,-3.362908,603.6,3,5,255.6,3.516
39.89,1,-0.005,0.0,-0.01,0.026,0.025,-0.011,-1.577,-0.004,0.323,39.06,86.6,40.505684,-3.362908,603.6,3,5,255.6,3.516
40.0,1,-0.004,-0.047,-0.022,0.008,-0.021,-0.016,-1.576,-0.001,0.325,39.06,86.6,40.505684,-3.362908,603.6,3,5,255.6,3.516
40.1,1,-0.013,-0.001,0.018,0.006,-0.016,0.002,-1.577,0.0,0.326,39.06,86.6,40.505684,-3.362908,603.6,3,5,255.6,3.516
40.2,1,-0.044,-0.003,-0.011,-0.026,-0.004,-0.005,-1.579,0.002,0.327,39.06,86.6,40.505684,-3.362908,603.6,3,5,255.6,3.516
40.29,1,-0.013,0.004,0.018,-0.017,-0.006,0.011,-1.581,0.001,0.327,39.06,86.6,40.505684,-3.362908,603.6,3,5,255.6,3.516
40.39,1,-0.0,0.046,0.001,-0.009,0.022,0.002,-1.578,-0.012,0.326,40.08,86.6,40.505627,-3.363175,604.4,3,5,254.2,3.164
40.49,1,-0.005,0.027,0.007,-0.015,0.025,0.003,-1.577,-0.014,0.325,40.08,86.6,40.505627,-3.363175,604.4,3,5,254.2,3.164
40.59,1,-0.015,0.059,-0.011,-0.005,0.034,0.0,-1.576,-0.02,0.325,40.08,86.6,40.505627,-3.363175,604.4,3,5,254.2,3.164
40.69,1,-0.013,0.059,0.004,-0.009,0.055,-0.0,-1.578,-0.027,0.324,40.08,86.6,40.505627,-3.363175,604.4,3,5,254.2,3.164
40.79,1,0.033,0.008,0.028,0.01,0.036,0.013,-1.579,-0.032,0.324,40.08,86.6,40.505627,-3.363175,604.4,3,5,254.2,3.164
40.89,1,-0.004,0.001,-0.005,-0.0,0.02,0.01,-1.578,-0.031,0.324,40.08,86.6,40.505627,-3.363175,604.4,3,5,254.2,3.164
40.99,1,0.017,0.051,-0.001,0.015,0.022,-0.001,-1.576,-0.036,0.325,40.08,86.6,40.505627,-3.363175,604.4,3,5,254.2,3.164
41.1,1,-0.031,0.026,0.011,-0.008,0.035,0.006,-1.578,-0.038,0.327,40.08,86.6,40.505627,-3.363175,604.4,3,5,254.2,3.164
41.2,1,0.012,-0.052,0.013,-0.016,-0.002,0.006,-1.578,-0.037,0.329,40.08,86.6,40.505627,-3.363175,604.4,3,5,254.2,3.164
41.31,1,-0.038,-0.042,0.008,-0.007,-0.031,0.013,-1.578,-0.035,0.331,40.08,86.6,40.505627,-3.363175,604.4,3,5,254.2,3.164
41.4,1,0.01,-0.09,-0.0,-0.001,-0.057,0.008,-1.576,-0.029,0.332,41.07,86.7,40.505569,-3.363446,605.1,3,5,252.8,2.812
41.5,1,-0.027,-0.071,-0.009,-0.017,-0.067,-0.003,-1.575,-0.03,0.334,41.07,86.7,40.505569,-3.363446,605.1,3,5,252.8,2.812
41.6,1,0.021,-0.04,0.031,-0.006,-0.062,0.009,-1.576,-0.03,0.335,41.07,86.7,40.505569,-3.363446,605.1,3,5,252.8,2.812
41.7,1,-0.038,-0.028,-0.007,-0.011,-0.043,0.008,-1.574,-0.029,0.338,41.07,86.7,40.505569,-3.363446,605.1,3,5,252.8,2.812
41.8,1,-0.036,-0.053,-0.031,-0.025,-0.041,-0.012,-1.573,-0.027,0.34,41.07,86.7,40.505569,-3.363446,605.1,3,5,252.8,2.812
41.91,1,-0.052,-0.051,0.023,-0.043,-0.051,-0.005,-1.576,-0.026,0.342,41.07,86.7,40.505569,-3.363446,605.1,3,5,252.8,2.812
42.0,1,-0.05,-0.079,0.026,-0.043,-0.064,0.02,-1.577,-0.026,0.342,41.07,86.7,40.505569,-3.363446,605.1,3,5,252.8,2.812
42.1,1,-0.012,-0.037,0.01,-0.038,-0.056,0.014,-1.576,-0.028,0.342,41.07,86.7,40.505569,-3.363446,605.1,3,5,252.8,2.812
42.2,1,0.019,0.045,0.026,-0.009,-0.017,0.016,-1.575,-0.03,0.341,41.07,86.7,40.505569,-3.363446,605.1,3,5,252.8,2.812
42.31,1,0.044,0.033,0.008,0.024,0.021,0.016,-1.574,-0.031,0.341,41.07,86.7,40.505569,-3.363446,605.1,3,5,252.8,2.812
42.4,1,-0.006,-0.017,-0.006,0.014,0.018,0.004,-1.574,-0.031,0.34,42.06,88.1,40.505501,-3.363721,605.2,3,5,252.4,1.758
42.5,1,-0.008,0.066,0.019,0.002,0.024,0.013,-1.574,-0.03,0.34,42.06,88.1,40.505501,-3.363721,605.2,3,5,252.4,1.758
42.6,1,-0.023,0.042,-0.002,-0.012,0.042,0.005,-1.574,-0.029,0.34,42.06,88.1,40.505501,-3.363721,605.2,3,5,252.4,1.758
42.7,1,0.0,-0.024,0.02,-0.011,0.011,0.008,-1.574,-0.027,0.339,42.06,88.1,40.505501,-3.363721,605.2,3,5,252.4,1.758
42.8,1,-0.071,-0.023,-0.036,-0.025,-0.008,-0.002,-1.573,-0.026,0.339,42.06,88.1,40.505501,-3.363721,605.2,3,5,252.4,1.758
42.91,1,-0.022,-0.021,0.019,-0.041,-0.016,-0.008,-1.574,-0.025,0.339,42.06,88.1,40.505501,-3.363721,605.2,3,5,252.4,1.758
43.0,1,-0.037,-0.053,0.022,-0.031,-0.03,0.017,-1.575,-0.024,0.339,42.06,88.1,40.505501,-3.363721,605.2,3,5,252.4,1.758
43.11,1,-0.022,-0.052,-0.029,-0.033,-0.041,-0.002,-1.574,-0.023,0.339,42.06,88.1,40.505501,-3.363721,605.2,3,5,252.4,1.758
43.2,1,0.019,-0.004,0.031,-0.009,-0.035,0.001,-1.574,-0.024,0.34,42.06,88.1,40.505501,-3.363721,605.2,3,5,252.4,1.758
43.3,1,0.025,0.017,0.012,0.019,-0.01,0.023,-1.572,-0.025,0.34,42.06,88.1,40.505501,-3.363721,605.2,3,5,252.4,1.758
43.41,1,-0.012,-0.035,-0.014,-0.001,-0.013,-0.006,-1.571,-0.025,0.341,43.07,88.4,40.505428,-3.363997,605.5,3,5,250.0,2.812
43.5,1,-0.027,-0.033,-0.002,-0.009,-0.019,-0.002,-1.573,-0.024,0.343,43.07,88.4,40.505428,-3.363997,605.5,3,5,250.0,2.812
43.61,1,-0.02,-0.04,0.027,-0.018,-0.034,0.01,-1.575,-0.022,0.344,43.07,88.4,40.505428,-3.363997,605.5,3,5,250.0,2.812
43.7,1,-0.035,-0.077,0.003,-0.029,-0.052,0.011,-1.575,-0.019,0.346,43.07,88.4,40.505428,-3.363997,605.5,3,5,250.0,2.812
43.8,1,0.021,-0.074,0.004,-0.009,-0.068,0.01,-1.573,-0.019,0.347,43.07,88.4,40.505428,-3.363997,605.5,3,5,250.0,2.812
43.91,1,0.012,-0.035,-0.009,0.01,-0.056,0.0,-1.571,-0.017,0.349,43.07,88.4,40.505428,-3.363997,605.5,3,5,250.0,2.812
44.01,1,-0.018,0.003,-0.033,-0.014,-0.028,-0.021,-1.571,-0.017,0.35,43.07,88.4,40.505428,-3.363997,605.5,3,5,250.0,2.812
44.11,1,-0.018,-0.005,-0.01,-0.009,-0.016,-0.017,-1.572,-0.017,0.351,43.07,88.4,40.505428,-3.363997,605.5,3,5,250.0,2.812
44.22,1,-0.023,-0.047,-0.013,-0.008,-0.022,-0.013,-1.572,-0.016,0.352,43.07,88.4,40.505428,-3.363997,605.5,3,5,250.0,2.812
44.32,1,-0.066,-0.011,-0.031,-0.045,-0.021,-0.02,-1.571,-0.016,0.353,43.07,88.4,40.505428,-3.363997,605.5,3,5,250.0,2.812
44.41,1,-0.006,-0.016,-0.009,-0.035,-0.016,-0.021,-1.572,-0.002,0.355,44.06,89.0,40.505356,-3.36426,605.2,3,5,249.3,3.164
44.51,1,0.058,-0.006,-0.003,0.015,-0.009,-0.006,-1.575,-0.0,0.356,44.06,89.0,40.505356,-3.36426,605.2,3,5,249.3,3.164
44.61,1,-0.013,0.002,-0.066,0.009,-0.008,-0.033,-1.566,0.007,0.357,44.06,89.0,40.505356,-3.36426,605.2,3,5,249.3,3.164
44.71,1,-0.006,0.021,-0.015,-0.002,0.011,-0.033,-1.561,0.016,0.359,44.06,89.0,40.505356,-3.36426,605.2,3,5,249.3,3.164
44.81,1,-0.052,0.048,-0.013,-0.019,0.027,-0.021,-1.56,0.015,0.36,44.06,89.0,40.505356,-3.36426,605.2,3,5,249.3,3.164
44.91,1,-0.022,-0.043,-0.008,-0.03,0.001,-0.013,-1.56,0.011,0.36,44.06,89.0,40.505356,-3.36426,605.2,3,5,249.3,3.164
45.01,1,-0.061,-0.035,-0.034,-0.036,-0.024,-0.018,-1.557,0.002,0.361,44.06,89.0,40.505356,-3.36426,605.2,3,5,249.3,3.164
45.11,1,0.059,-0.02,-0.006,-0.006,-0.031,-0.021,-1.557,0.002,0.361,44.06,89.0,40.505356,-3.36426,605.2,3,5,249.3,3.164
45.21,1,-0.043,0.005,-0.062,-0.003,-0.014,-0.028,-1.556,0.003,0.363,44.06,89.0,40.505356,-3.36426,605.2,3,5,249.3,3.164
45.31,1,0.025,-0.045,0.024,-0.009,-0.012,-0.021,-1.557,0.004,0.365,44.06,89.0,40.505356,-3.36426,605.2,3,5,249.3,3.164
45.42,1,-0.056,-0.075,-0.029,-0.006,-0.047,-0.004,-1.555,0.004,0.365,45.06,89.5,40.505272,-3.364534,605.4,3,5,247.5,2.461
45.52,1,-0.054,-0.062,-0.044,-0.055,-0.073,-0.04,-1.554,0.003,0.366,45.06,89.5,40.505272,-3.364534,605.4,3,5,247.5,2.461
45.61,1,-0.062,-0.061,-0.036,-0.045,-0.052,-0.034,-1.555,0.002,0.367,45.06,89.5,40.505272,-3.364534,605.4,3,5,247.5,2.461
45.71,1,-0.016,-0.039,0.011,-0.045,-0.055,-0.017,-1.557,0.001,0.369,45.06,89.5,40.505272,-3.364534,605.4,3,5,247.5,2.461
45.81,1,-0.026,-0.014,-0.013,-0.028,-0.035,-0.007,-1.556,0.003,0.37,45.06,89.5,40.505272,-3.364534,605.4,3,5,247.5,2.461
45.91,1,0.008,-0.08,-0.004,-0.012,-0.04,-0.006,-1.554,0.004,0.371,45.06,89.5,40.505272,-3.364534,605.4,3,5,247.5,2.461
46.01,1,-0.019,-0.053,-0.02,-0.01,-0.058,-0.013,-1.554,0.004,0.372,45.06,89.5,40.505272,-3.364534,605.4,3,5,247.5,2.461
46.12,1,-0.057,-0.052,-0.02,-0.029,-0.051,-0.018,-1.555,0.002,0.373,45.06,89.5,40.505272,-3.364534,605.4,3,5,247.5,2.461
46.21,1,-0.042,-0.019,0.007,-0.037,-0.043,-0.004,-1.557,0.002,0.374,45.06,89.5,40.505272,-3.364534,605.4,3,5,247.5,2.461
46.31,1,-0.051,-0.03,-0.013,-0.055,-0.03,-0.011,-1.557,0.004,0.375,45.06,89.5,40.505272,-3.364534,605.4,3,5,247.5,2.461
46.42,1,-0.017,-0.035,0.001,-0.037,-0.041,-0.007,-1.558,0.005,0.377,46.11,89.1,40.50518,-3.364802,605.8,3,5,245.7,3.516
46.52,1,0.028,0.005,-0.004,0.001,-0.017,0.002,-1.556,0.005,0.377,46.11,89.1,40.50518,-3.364802,605.8,3,5,245.7,3.516
46.63,1,0.008,-0.013,-0.029,0.004,-0.001,-0.019,-1.553,0.005,0.378,46.11,89.1,40.50518,-3.364802,605.8,3,5,245.7,3.516
46.73,1,0.037,0.007,0.015,0.017,-0.02,-0.01,-1.554,0.005,0.38,46.11,89.1,40.50518,-3.364802,605.8,3,5,245.7,3.516
46.82,1,-0.028,0.033,0.019,0.012,0.019,0.013,-1.555,0.005,0.381,46.11,89.1,40.50518,-3.364802,605.8,3,5,245.7,3.516
46.92,1,-0.037,-0.01,0.028,-0.022,0.012,0.02,-1.557,0.005,0.382,46.11,89.1,40.50518,-3.364802,605.8,3,5,245.7,3.516
47.02,1,-0.052,-0.083,0.013,-0.043,-0.026,0.015,-1.556,0.004,0.383,46.11,89.1,40.50518,-3.364802,605.8,3,5,245.7,3.516
47.12,1,-0.043,-0.078,-0.045,-0.039,-0.064,-0.008,-1.555,0.003,0.384,46.11,89.1,40.50518,-3.364802,605.8,3,5,245.7,3.516
47.22,1,0.042,0.049,0.043,-0.005,-0.031,0.002,-1.556,0.0,0.385,46.11,89.1,40.50518,-3.364802,605.8,3,5,245.7,3.516
47.32,1,0.022,0.066,-0.018,0.012,0.036,0.008,-1.554,-0.001,0.386,46.11,89.1,40.50518,-3.364802,605.8,3,5,245.7,3.516
47.42,1,-0.019,0.02,-0.005,0.008,0.03,-0.001,-1.553,-0.001,0.386,47.09,88.2,40.505081,-3.365059,605.6,3,5,243.3,4.219
47.52,1,-0.028,-0.012,0.006,-0.022,0.011,-0.009,-1.549,0.009,0.386,47.09,88.2,40.505081,-3.365059,605.6,3,5,243.3,4.219
47.63,1,-0.048,-0.018,-0.009,-0.021,-0.005,0.005,-1.549,0.012,0.386,47.09,88.2,40.505081,-3.365059,605.6,3,5,243.3,4.219
47.73,1,-0.018,0.007,0.015,-0.04,-0.006,-0.002,-1.55,0.012,0.386,47.09,88.2,40.505081,-3.365059,605.6,3,5,243.3,4.219
47.82,1,0.036,0.081,0.024,0.006,0.034,0.017,-1.549,0.012,0.387,47.09,88.2,40.505081,-3.365059,605.6,3,5,243.3,4.219
47.92,1,0.008,0.026,-0.009,0.005,0.042,0.006,-1.544,0.006,0.387,47.09,88.2,40.505081,-3.365059,605.6,3,5,243.3,4.219
48.02,1,-0.038,0.003,0.019,-0.008,0.024,0.01,-1.544,0.004,0.387,47.09,88.2,40.505081,-3.365059,605.6,3,5,243.3,4.219
48.12,1,-0.021,-0.021,0.02,-0.03,0.004,0.009,-1.545,0.004,0.387,47.09,88.2,40.505081,-3.365059,605.6,3,5,243.3,4.219
48.22,1,0.016,0.029,0.047,0.001,0.007,0.04,-1.544,0.003,0.387,47.09,88.2,40.505081,-3.365059,605.6,3,5,243.3,4.219
48.33,1,-0.038,0.053,-0.035,-0.015,0.031,-0.002,-1.543,0.002,0.387,47.09,88.2,40.505081,-3.365059,605.6,3,5,243.3,4.219
48.42,1,-0.009,0.072,0.036,-0.014,0.058,0.013,-1.546,0.004,0.387,48.08,88.9,40.504982,-3.365322,606.0,3,5,242.6,3.164
48.52,1,-0.047,0.018,0.007,-0.024,0.041,0.014,-1.547,0.006,0.387,48.08,88.9,40.504982,-3.365322,606.0,3,5,242.6,3.164
48.62,1,0.018,0.014,0.028,-0.017,0.025,0.019,-1.547,0.008,0.387,48.08,88.9,40.504982,-3.365322,606.0,3,5,242.6,3.164
48.73,1,0.042,0.051,0.046,0.021,0.03,0.035,-1.545,0.006,0.388,48.08,88.9,40.504982,-3.365322,606.0,3,5,242.6,3.164
48.82,1,-0.006,0.03,-0.016,0.018,0.043,0.016,-1.542,0.009,0.389,48.08,88.9,40.504982,-3.365322,606.0,3,5,242.6,3.164
48.93,1,0.05,0.052,0.069,0.015,0.039,0.023,-1.542,0.01,0.389,48.08,88.9,40.504982,-3.365322,606.0,3,5,242.6,3.164
49.03,1,0.03,0.056,0.049,0.038,0.057,0.056,-1.539,0.011,0.389,48.08,88.9,40.504982,-3.365322,606.0,3,5,242.6,3.164
49.23,1,0.012,0.055,0.073,-0.004,0.057,0.034,-1.542,0.013,0.387,48.08,88.9,40.504982,-3.365322,606.0,3,5,242.6,3.164
49.34,1,-0.022,0.077,0.026,-0.007,0.071,0.044,-1.541,0.014,0.385,48.08,88.9,40.504982,-3.365322,606.0,3,5,242.6,3.164
49.43,1,-0.001,0.1,0.04,-0.012,0.079,0.031,-1.54,0.015,0.384,48.08,88.9,40.504982,-3.365322,606.0,3,5,242.6,3.164
49.53,1,-0.062,0.11,0.009,-0.032,0.096,0.032,-1.544,0.014,0.382,49.08,90.6,40.504871,-3.365584,605.7,3,5,241.2,2.109
49.63,1,0.003,0.1,0.071,-0.021,0.099,0.042,-1.547,0.013,0.38,49.08,90.6,40.504871,-3.365584,605.7,3,5,241.2,2.109
49.73,1,0.033,0.128,0.067,0.007,0.121,0.061,-1.547,0.015,0.379,49.08,90.6,40.504871,-3.365584,605.7,3,5,241.2,2.109
49.83,1,-0.011,0.108,0.036,0.005,0.114,0.05,-1.546,0.019,0.378,49.08,90.6,40.504871,-3.365584,605.7,3,5,241.2,2.109
49.93,1,-0.001,0.119,0.046,0.002,0.115,0.044,-1.545,0.024,0.376,49.08,90.6,40.504871,-3.365584,605.7,3,5,241.2,2.109
50.03,1,-0.014,0.128,0.03,-0.007,0.11,0.037,-1.546,0.026,0.375,49.08,90.6,40.504871,-3.365584,605.7,3,5,241.2,2.109
50.13,1,0.009,0.116,0.055,-0.005,0.126,0.043,-1.547,0.028,0.374,49.08,90.6,40.504871,-3.365584,605.7,3,5,241.2,2.109
50.23,1,0.02,0.078,0.038,0.011,0.106,0.048,-1.545,0.031,0.374,49.08,90.6,40.504871,-3.365584,605.7,3,5,241.2,2.109
50.33,1,-0.033,0.013,-0.006,-0.001,0.059,0.02,-1.544,0.035,0.375,49.08,90.6,40.504871,-3.365584,605.7,3,5,241.2,2.109
50.43,1,-0.022,0.029,0.03,-0.022,0.023,0.012,-1.547,0.038,0.377,49.08,90.6,40.504871,-3.365584,605.7,3,5,241.2,2.109
50.53,1,-0.005,-0.067,0.041,-0.014,0.0,0.036,-1.547,0.041,0.377,50.11,90.3,40.504761,-3.365841,606.0,3,5,240.1,2.461
50.63,1,-0.025,-0.06,-0.002,-0.019,-0.035,0.02,-1.545,0.043,0.377,50.11,90.3,40.504761,-3.365841,606.0,3,5,240.1,2.461
50.73,1,0.001,0.051,-0.005,-0.014,-0.012,0.003,-1.544,0.044,0.377,50.11,90.3,40.504761,-3.365841,606.0,3,5,240.1,2.461
50.83,1,0.055,0.042,0.075,0.03,0.028,0.038,-1.543,0.046,0.377,50.11,90.3,40.504761,-3.365841,606.0,3,5,240.1,2.461
50.93,1,0.001,0.065,-0.021,0.017,0.047,0.016,-1.541,0.047,0.377,50.11,90.3,40.504761,-3.365841,606.0,3,5,240.1,2.461
51.03,1,-0.03,0.032,0.0,-0.003,0.059,0.004,-1.542,0.048,0.376,50.11,90.3,40.504761,-3.365841,606.0,3,5,240.1,2.461
51.14,1,-0.026,0.01,0.027,-0.02,0.025,0.012,-1.544,0.05,0.377,50.11,90.3,40.504761,-3.365841,606.0,3,5,240.1,2.461
51.24,1,0.005,0.013,0.031,-0.01,0.013,0.023,-1.544,0.051,0.377,50.11,90.3,40.504761,-3.365841,606.0,3,5,240.1,2.461
51.33,1,-0.033,-0.061,-0.015,-0.013,-0.026,0.008,-1.542,0.053,0.378,50.11,90.3,40.504761,-3.365841,606.0,3,5,240.1,2.461
51.43,1,0.006,-0.044,0.003,-0.024,-0.034,-0.0,-1.541,0.055,0.378,50.11,90.3,40.504761,-3.365841,606.0,3,5,240.1,2.461
51.53,1,-0.009,0.031,-0.01,-0.013,-0.021,-0.007,-1.54,0.058,0.379,51.05,91.7,40.504646,-3.366099,606.0,3,5,239.8,1.406
51.64,1,0.056,0.072,0.042,0.021,0.036,0.015,-1.542,0.06,0.379,51.05,91.7,40.504646,-3.366099,606.0,3,5,239.8,1.406
51.74,1,-0.003,0.094,0.014,0.026,0.069,0.023,-1.541,0.062,0.379,51.05,91.7,40.504646,-3.366099,606.0,3,5,239.8,1.406
51.84,1,-0.033,0.065,0.002,-0.002,0.08,0.016,-1.54,0.064,0.379,51.05,91.7,40.504646,-3.366099,606.0,3,5,239.8,1.406
51.94,1,-0.046,0.038,-0.027,-0.028,0.058,-0.01,-1.54,0.066,0.379,51.05,91.7,40.504646,-3.366099,606.0,3,5,239.8,1.406
52.04,1,-0.004,0.056,0.027,-0.026,0.054,-0.002,-1.541,0.068,0.378,51.05,91.7,40.504646,-3.366099,606.0,3,5,239.8,1.406
52.14,1,0.005,0.083,0.031,-0.009,0.06,0.024,-1.541,0.069,0.377,51.05,91.7,40.504646,-3.366099,606.0,3,5,239.8,1.406
52.24,1,0.02,0.045,0.017,0.006,0.06,0.022,-1.538,0.071,0.376,51.05,91.7,40.504646,-3.366099,606.0,3,5,239.8,1.406
52.34,1,-0.034,0.047,-0.042,-0.006,0.052,-0.007,-1.525,0.061,0.375,51.05,91.7,40.504646,-3.366099,606.0,3,5,239.8,1.406
52.44,1,0.01,0.093,0.064,-0.009,0.068,0.015,-1.522,0.056,0.374,51.05,91.7,40.504646,-3.366099,606.0,3,5,239.8,1.406
52.54,1,-0.01,0.068,0.026,0.002,0.075,0.034,-1.522,0.06,0.373,52.11,91.3,40.504524,-3.366355,605.7,3,5,238.7,1.406
52.64,1,0.088,0.039,0.036,0.021,0.055,0.027,-1.52,0.061,0.372,52.11,91.3,40.504524,-3.366355,605.7,3,5,238.7,1.406
52.74,1,-0.018,0.063,-0.049,0.036,0.056,0.004,-1.507,0.056,0.369,52.11,91.3,40.504524,-3.366355,605.7,3,5,238.7,1.406
52.84,1,-0.017,0.017,0.04,-0.007,0.042,-0.001,-1.5,0.044,0.368,52.11,91.3,40.504524,-3.366355,605.7,3,5,238.7,1.406
52.94,1,-0.014,0.02,0.063,-0.019,0.019,0.034,-1.503,0.046,0.366,52.11,91.3,40.504524,-3.366355,605.7,3,5,238.7,1.406
53.04,1,-0.004,0.04,0.043,-0.001,0.025,0.049,-1.503,0.047,0.363,52.11,91.3,40.504524,-3.366355,605.7,3,5,238.7,1.406
53.14,1,-0.028,0.061,0.043,-0.014,0.037,0.041,-1.501,0.046,0.361,52.11,91.3,40.504524,-3.366355,605.7,3,5,238.7,1.406
53.24,1,0.035,0.059,0.029,0.0,0.067,0.042,-1.499,0.047,0.359,52.11,91.3,40.504524,-3.366355,605.7,3,5,238.7,1.406
53.34,1,-0.017,0.039,0.01,0.006,0.065,0.024,-1.496,0.05,0.357,52.11,91.3,40.504524,-3.366355,605.7,3,5,238.7,1.406
53.45,1,-0.041,-0.046,-0.009,-0.019,-0.002,0.007,-1.497,0.053,0.355,52.11,91.3,40.504524,-3.366355,605.7,3,5,238.7,1.406
53.55,1,-0.053,-0.049,0.036,-0.04,-0.031,0.007,-1.499,0.054,0.353,53.06,92.5,40.504398,-3.366614,605.5,3,5,237.3,2.461
53.65,1,-0.09,-0.005,0.041,-0.058,-0.011,0.04,-1.5,0.055,0.351,53.06,92.5,40.504398,-3.366614,605.5,3,5,237.3,2.461
53.74,1,-0.056,0.05,0.044,-0.069,-0.004,0.035,-1.5,0.056,0.349,53.06,92.5,40.504398,-3.366614,605.5,3,5,237.3,2.461
53.84,1,0.002,0.136,0.08,-0.035,0.066,0.056,-1.5,0.057,0.347,53.06,92.5,40.504398,-3.366614,605.5,3,5,237.3,2.461
53.94,1,0.002,0.127,0.014,-0.016,0.116,0.048,-1.498,0.057,0.346,53.06,92.5,40.504398,-3.366614,605.5,3,5,237.3,2.461
54.05,1,-0.011,0.118,0.044,-0.003,0.122,0.037,-1.498,0.058,0.344,53.06,92.5,40.504398,-3.366614,605.5,3,5,237.3,2.461
54.15,1,0.022,0.067,0.08,0.006,0.099,0.058,-1.499,0.058,0.342,53.06,92.5,40.504398,-3.366614,605.5,3,5,237.3,2.461
54.25,1,-0.1,0.014,0.012,-0.044,0.058,0.04,-1.499,0.057,0.34,53.06,92.5,40.504398,-3.366614,605.5,3,5,237.3,2.461
54.35,1,-0.067,0.005,0.043,-0.06,0.036,0.041,-1.501,0.055,0.338,53.06,92.5,40.504398,-3.366614,605.5,3,5,237.3,2.461
54.45,1,0.02,0.039,0.049,-0.031,0.016,0.041,-1.5,0.053,0.335,53.06,92.5,40.504398,-3.366614,605.5,3,5,237.3,2.461
54.55,1,-0.006,0.026,-0.02,-0.005,0.03,0.022,-1.497,0.053,0.333,54.06,92.2,40.504276,-3.366868,605.3,3,5,237.3,1.406
54.65,1,0.008,0.093,0.006,-0.004,0.04,-0.003,-1.497,0.053,0.331,54.06,92.2,40.504276,-3.366868,605.3,3,5,237.3,1.406
54.75,1,0.004,0.137,0.088,0.001,0.094,0.039,-1.5,0.054,0.329,54.06,92.2,40.504276,-3.366868,605.3,3,5,237.3,1.406
54.85,1,0.01,0.141,0.076,0.01,0.121,0.067,-1.5,0.054,0.327,54.06,92.2,40.504276,-3.366868,605.3,3,5,237.3,1.406
54.95,1,0.012,0.082,0.055,0.025,0.116,0.065,-1.499,0.055,0.324,54.06,92.2,40.504276,-3.366868,605.3,3,5,237.3,1.406
55.05,1,0.032,0.087,0.049,0.002,0.102,0.051,-1.497,0.054,0.322,54.06,92.2,40.504276,-3.366868,605.3,3,5,237.3,1.406
55.15,1,-0.051,0.07,-0.003,-0.0,0.088,0.036,-1.496,0.051,0.319,54.06,92.2,40.504276,-3.366868,605.3,3,5,237.3,1.406
55.26,1,-0.001,0.008,0.063,-0.026,0.048,0.033,-1.498,0.047,0.317,54.06,92.2,40.504276,-3.366868,605.3,3,5,237.3,1.406
55.35,1,-0.028,-0.003,0.013,-0.011,0.016,0.035,-1.51,0.02,0.315,54.06,92.2,40.504276,-3.366868,605.3,3,5,237.3,1.406
55.46,1,-0.039,0.041,0.011,-0.032,0.023,0.016,-1.51,0.022,0.313,54.06,92.2,40.504276,-3.366868,605.3,3,5,237.3,1.406
55.55,1,-0.065,0.031,0.034,-0.05,0.029,0.022,-1.512,0.023,0.311,55.06,93.0,40.50415,-3.367126,605.1,3,5,237.0,0.352
55.65,1,-0.016,0.026,0.068,-0.039,0.028,0.048,-1.527,0.022,0.309,55.06,93.0,40.50415,-3.367126,605.1,3,5,237.0,0.352
55.75,1,-0.025,0.034,0.006,-0.025,0.03,0.033,-1.532,0.013,0.307,55.06,93.0,40.50415,-3.367126,605.1,3,5,237.0,0.352
55.85,1,-0.009,0.032,0.007,-0.02,0.041,0.017,-1.531,0.007,0.305,55.06,93.0,40.50415,-3.367126,605.1,3,5,237.0,0.352
55.95,1,0.025,0.042,0.032,0.003,0.03,0.018,-1.532,0.012,0.302,55.06,93.0,40.50415,-3.367126,605.1,3,5,237.0,0.352
56.05,1,0.055,0.083,0.044,0.029,0.055,0.037,-1.537,0.007,0.3,55.06,93.0,40.50415,-3.367126,605.1,3,5,237.0,0.352
56.15,1,0.01,0.038,-0.017,0.024,0.054,0.012,-1.536,0.004,0.298,55.06,93.0,40.50415,-3.367126,605.1,3,5,237.0,0.352
56.25,1,0.033,0.03,0.006,0.025,0.036,-0.003,-1.538,0.002,0.297,55.06,93.0,40.50415,-3.367126,605.1,3,5,237.0,0.352
56.35,1,-0.013,-0.057,0.026,0.022,0.008,0.023,-1.538,0.002,0.295,55.06,93.0,40.50415,-3.367126,605.1,3,5,237.0,0.352
56.46,1,-0.061,-0.05,-0.014,-0.029,-0.037,0.001,-1.536,0.002,0.293,55.06,93.0,40.50415,-3.367126,605.1,3,5,237.0,0.352
56.55,1,-0.039,-0.063,0.039,-0.04,-0.038,0.013,-1.538,0.003,0.292,56.1,93.1,40.504025,-3.367383,606.7,3,5,237.3,0.352
56.66,1,-0.001,0.038,0.047,-0.02,-0.022,0.039,-1.537,0.003,0.29,56.1,93.1,40.504025,-3.367383,606.7,3,5,237.3,0.352
56.76,1,0.016,0.011,0.037,-0.014,-0.004,0.034,-1.537,0.002,0.289,56.1,93.1,40.504025,-3.367383,606.7,3,5,237.3,0.352
56.86,1,-0.008,0.1,-0.026,0.007,0.053,0.016,-1.536,0.002,0.288,56.1,93.1,40.504025,-3.367383,606.7,3,5,237.3,0.352
56.96,1,-0.002,0.071,0.026,0.001,0.069,0.004,-1.537,0.002,0.287,56.1,93.1,40.504025,-3.367383,606.7,3,5,237.3,0.352
57.06,1,-0.009,-0.056,0.016,-0.003,0.022,0.014,-1.539,0.001,0.286,56.1,93.1,40.504025,-3.367383,606.7,3,5,237.3,0.352
57.17,1,0.079,-0.048,0.073,0.027,-0.031,0.044,-1.538,0.0,0.284,56.1,93.1,40.504025,-3.367383,606.7,3,5,237.3,0.352
57.26,1,-0.036,-0.061,-0.018,0.018,-0.049,0.025,-1.534,0.0,0.283,56.1,93.1,40.504025,-3.367383,606.7,3,5,237.3,0.352
57.36,1,-0.082,0.02,-0.007,-0.033,-0.02,0.002,-1.534,0.001,0.282,56.1,93.1,40.504025,-3.367383,606.7,3,5,237.3,0.352
57.46,1,0.03,-0.006,0.088,-0.033,-0.009,0.033,-1.537,0.003,0.282,56.1,93.1,40.504025,-3.367383,606.7,3,5,237.3,0.352
57.56,1,-0.061,-0.007,0.013,-0.028,-0.022,0.037,-1.537,0.002,0.281,57.08,93.2,40.503902,-3.367634,606.7,3,5,237.3,0.352
57.66,1,0.007,0.014,-0.021,-0.018,0.02,0.013,-1.534,0.0,0.279,57.08,93.2,40.503902,-3.367634,606.7,3,5,237.3,0.352
57.76,1,0.008,0.083,0.024,0.0,0.039,0.005,-1.534,0.0,0.278,57.08,93.2,40.503902,-3.367634,606.7,3,5,237.3,0.352
57.87,1,-0.006,0.048,0.042,-0.002,0.058,0.022,-1.536,-0.001,0.277,57.08,93.2,40.503902,-3.367634,606.7,3,5,237.3,0.352
57.96,1,0.009,0.127,0.081,0.011,0.081,0.061,-1.536,-0.004,0.276,57.08,93.2,40.503902,-3.367634,606.7,3,5,237.3,0.352
58.06,1,-0.081,0.019,-0.019,-0.036,0.077,0.02,-1.536,-0.006,0.275,57.08,93.2,40.503902,-3.367634,606.7,3,5,237.3,0.352
58.16,1,0.041,-0.003,0.089,-0.007,0.031,0.051,-1.536,-0.008,0.273,57.08,93.2,40.503902,-3.367634,606.7,3,5,237.3,0.352
58.26,1,-0.064,-0.136,-0.044,-0.031,-0.045,0.012,-1.534,-0.006,0.271,57.08,93.2,40.503902,-3.367634,606.7,3,5,237.3,0.352
58.37,1,0.018,-0.07,0.04,-0.024,-0.094,0.012,-1.535,-0.005,0.27,57.08,93.2,40.503902,-3.367634,606.7,3,5,237.3,0.352
58.46,1,0.04,-0.014,0.027,0.026,-0.049,0.032,-1.536,-0.006,0.269,57.08,93.2,40.503902,-3.367634,606.7,3,5,237.3,0.352
58.56,1,-0.113,0.104,0.006,-0.028,0.022,0.017,-1.537,-0.007,0.269,58.06,93.8,40.503777,-3.3679,605.0,3,5,237.0,0.352
58.66,1,-0.012,-0.029,0.039,-0.048,0.008,0.02,-1.539,-0.008,0.268,58.06,93.8,40.503777,-3.3679,605.0,3,5,237.0,0.352
58.77,1,-0.056,-0.086,0.023,-0.041,-0.034,0.025,-1.539,-0.009,0.267,58.06,93.8,40.503777,-3.3679,605.0,3,5,237.0,0.352
58.87,1,-0.029,0.021,-0.029,-0.046,-0.01,0.003,-1.537,-0.01,0.265,58.06,93.8,40.503777,-3.3679,605.0,3,5,237.0,0.352
58.97,1,0.15,0.004,0.059,0.055,-0.014,0.025,-1.536,-0.009,0.263,58.06,93.8,40.503777,-3.3679,605.0,3,5,237.0,0.352
59.06,1,0.042,0.104,0.041,0.071,0.048,0.038,-1.532,-0.007,0.262,58.06,93.8,40.503777,-3.3679,605.0,3,5,237.0,0.352
59.27,1,0.054,-0.059,0.048,0.01,-0.024,-0.0,-1.531,-0.006,0.259,58.06,93.8,40.503777,-3.3679,605.0,3,5,237.0,0.352
59.37,1,-0.093,-0.008,-0.007,-0.032,-0.018,0.007,-1.533,-0.008,0.257,58.06,93.8,40.503777,-3.3679,605.0,3,5,237.0,0.352
59.47,1,-0.046,-0.013,0.009,-0.039,-0.019,0.007,-1.538,-0.018,0.254,58.06,93.8,40.503777,-3.3679,605.0,3,5,237.0,0.352
59.58,1,-0.052,0.024,0.041,-0.055,0.003,0.016,-1.544,-0.025,0.25,58.06,93.8,40.503777,-3.3679,605.0,3,5,237.0,0.352
59.67,1,-0.04,-0.033,-0.02,-0.046,-0.003,0.011,-1.541,-0.024,0.247,59.09,93.7,40.503651,-3.368158,604.7,4,5,237.0,0.352
59.77,1,0.025,0.054,0.022,-0.021,0.008,0.004,-1.54,-0.029,0.245,59.09,93.7,40.503651,-3.368158,604.7,4,5,237.0,0.352
59.87,1,0.041,0.051,0.017,0.017,0.037,0.011,-1.541,-0.029,0.243,59.09,93.7,40.503651,-3.368158,604.7,4,5,237.0,0.352
59.98,1,-0.008,0.02,0.002,0.012,0.029,0.016,-1.542,-0.029,0.242,59.09,93.7,40.503651,-3.368158,604.7,4,5,237.0,0.352
60.07,1,-0.023,0.028,0.019,-0.005,0.037,0.009,-1.543,-0.028,0.24,59.09,93.7,40.503651,-3.368158,604.7,4,5,237.0,0.352
60.17,1,0.026,0.016,0.045,-0.005,0.018,0.029,-1.544,-0.029,0.238,59.09,93.7,40.503651,-3.368158,604.7,4,5,237.0,0.352
60.27,1,0.036,0.026,-0.0,0.037,0.024,0.029,-1.543,-0.029,0.236,59.09,93.7,40.503651,-3.368158,604.7,4,5,237.0,0.352
60.37,1,-0.036,-0.007,0.001,-0.003,0.013,-0.002,-1.541,-0.028,0.234,59.09,93.7,40.503651,-3.368158,604.7,4,5,237.0,0.352
60.47,1,-0.027,-0.068,-0.028,-0.017,-0.034,-0.003,-1.541,-0.027,0.231,59.09,93.7,40.503651,-3.368158,604.7,4,5,237.0,0.352
60.58,1,-0.017,0.051,0.032,-0.017,-0.002,0.002,-1.544,-0.026,0.229,59.09,93.7,40.503651,-3.368158,604.7,4,5,237.0,0.352
60.67,1,-0.002,0.029,-0.004,-0.026,0.03,0.006,-1.546,-0.027,0.227,60.09,92.6,40.503513,-3.368414,604.3,4,5,236.6,0.352
60.78,1,-0.041,-0.024,-0.006,-0.009,0.007,0.002,-1.547,-0.028,0.225,60.09,92.6,40.503513,-3.368414,604.3,4,5,236.6,0.352
60.87,1,-0.082,-0.075,0.014,-0.048,-0.034,0.001,-1.547,-0.029,0.222,60.09,92.6,40.503513,-3.368414,604.3,4,5,236.6,0.352
60.97,1,-0.016,-0.005,0.016,-0.055,-0.041,0.008,-1.547,-0.028,0.22,60.09,92.6,40.503513,-3.368414,604.3,4,5,236.6,0.352
61.07,1,-0.01,0.008,-0.005,-0.024,-0.014,0.004,-1.548,-0.028,0.219,60.09,92.6,40.503513,-3.368414,604.3,4,5,236.6,0.352
61.17,1,-0.031,-0.035,-0.029,-0.017,0.003,-0.01,-1.549,-0.027,0.219,60.09,92.6,40.503513,-3.368414,604.3,4,5,236.6,0.352
61.27,1,-0.024,-0.11,0.031,-0.026,-0.058,0.006,-1.55,-0.027,0.217,60.09,92.6,40.503513,-3.368414,604.3,4,5,236.6,0.352
61.37,1,-0.043,-0.045,-0.001,-0.036,-0.075,0.004,-1.55,-0.026,0.216,60.09,92.6,40.503513,-3.368414,604.3,4,5,236.6,0.352
61.47,1,-0.032,0.002,-0.002,-0.037,-0.035,0.005,-1.55,-0.026,0.215,60.09,92.6,40.503513,-3.368414,604.3,4,5,236.6,0.352
61.57,1,0.042,-0.089,0.003,0.003,-0.052,-0.004,-1.551,-0.025,0.214,60.09,92.6,40.503513,-3.368414,604.3,4,5,236.6,0.352
61.67,1,-0.024,-0.044,0.001,-0.008,-0.052,0.007,-1.554,-0.023,0.213,61.08,95.5,40.503387,-3.36868,604.3,4,5,237.7,1.055
61.78,1,-0.061,0.006,0.014,-0.037,-0.026,0.003,-1.561,-0.016,0.212,61.08,95.5,40.503387,-3.36868,604.3,4,5,237.7,1.055
61.88,1,-0.011,-0.024,-0.012,-0.019,-0.017,0.01,-1.564,-0.025,0.21,61.08,95.5,40.503387,-3.36868,604.3,4,5,237.7,1.055
61.98,1,0.005,-0.053,0.008,-0.014,-0.035,-0.011,-1.562,-0.024,0.209,61.08,95.5,40.503387,-3.36868,604.3,4,5,237.7,1.055
62.08,1,-0.016,-0.056,-0.006,-0.008,-0.051,-0.0,-1.563,-0.024,0.208,61.08,95.5,40.503387,-3.36868,604.3,4,5,237.7,1.055
62.18,1,-0.014,-0.034,-0.02,-0.015,-0.041,-0.004,-1.562,-0.024,0.207,61.08,95.5,40.503387,-3.36868,604.3,4,5,237.7,1.055
62.28,1,-0.025,-0.014,-0.004,-0.014,-0.031,-0.014,-1.562,-0.02,0.206,61.08,95.5,40.503387,-3.36868,604.3,4,5,237.7,1.055
62.38,1,-0.085,-0.005,-0.034,-0.047,-0.02,-0.016,-1.563,-0.013,0.205,61.08,95.5,40.503387,-3.36868,604.3,4,5,237.7,1.055
62.48,1,-0.044,-0.011,0.008,-0.057,-0.008,-0.008,-1.567,-0.011,0.204,61.08,95.5,40.503387,-3.36868,604.3,4,5,237.7,1.055
62.58,1,-0.033,-0.044,-0.012,-0.041,-0.024,-0.005,-1.565,-0.002,0.203,61.08,95.5,40.503387,-3.36868,604.3,4,5,237.7,1.055
62.68,1,0.004,-0.081,-0.028,-0.03,-0.047,-0.021,-1.569,-0.006,0.202,62.06,96.7,40.503269,-3.368943,603.6,4,5,237.7,1.055
62.78,1,0.015,0.01,-0.003,0.02,-0.039,-0.009,-1.569,-0.007,0.202,62.06,96.7,40.503269,-3.368943,603.6,4,5,237.7,1.055
62.88,1,-0.088,0.044,-0.033,-0.04,0.012,-0.023,-1.568,-0.007,0.201,62.06,96.7,40.503269,-3.368943,603.6,4,5,237.7,1.055
62.98,1,0.029,-0.065,-0.021,-0.029,-0.007,-0.019,-1.569,-0.006,0.2,62.06,96.7,40.503269,-3.368943,603.6,4,5,237.7,1.055
63.09,1,-0.027,-0.016,-0.009,-0.007,-0.032,-0.019,-1.568,0.002,0.199,62.06,96.7,40.503269,-3.368943,603.6,4,5,237.7,1.055
63.19,1,0.001,0.004,-0.026,-0.012,-0.011,-0.025,-1.566,0.003,0.198,62.06,96.7,40.503269,-3.368943,603.6,4,5,237.7,1.055
63.28,1,0.014,0.012,0.001,0.011,-0.0,-0.007,-1.566,0.005,0.197,62.06,96.7,40.503269,-3.368943,603.6,4,5,237.7,1.055
63.38,1,0.009,-0.01,-0.005,-0.0,0.006,-0.007,-1.565,0.008,0.195,62.06,96.7,40.503269,-3.368943,603.6,4,5,237.7,1.055
63.48,1,0.001,-0.014,-0.016,0.009,-0.018,-0.011,-1.563,0.007,0.194,62.06,96.7,40.503269,-3.368943,603.6,4,5,237.7,1.055
63.58,1,-0.021,-0.002,-0.003,0.004,-0.001,-0.007,-1.562,0.003,0.193,62.06,96.7,40.503269,-3.368943,603.6,4,5,237.7,1.055
63.68,1,-0.058,0.009,0.001,-0.04,-0.001,-0.004,-1.561,0.004,0.192,63.07,97.2,40.503139,-3.369214,603.6,3,5,237.7,0.0
63.78,1,-0.051,-0.017,0.003,-0.054,-0.006,0.002,-1.562,0.003,0.191,63.07,97.2,40.503139,-3.369214,603.6,3,5,237.7,0.0
63.88,1,0.045,0.012,-0.013,-0.005,-0.003,-0.004,-1.564,0.001,0.191,63.07,97.2,40.503139,-3.369214,603.6,3,5,237.7,0.0
63.98,1,0.006,0.005,-0.009,0.006,0.004,-0.01,-1.565,-0.0,0.19,63.07,97.2,40.503139,-3.369214,603.6,3,5,237.7,0.0
64.09,1,0.012,-0.01,-0.011,-0.002,-0.01,-0.009,-1.562,-0.002,0.19,63.07,97.2,40.503139,-3.369214,603.6,3,5,237.7,0.0
64.19,1,0.017,0.01,-0.028,0.014,0.01,-0.017,-1.56,-0.002,0.189,63.07,97.2,40.503139,-3.369214,603.6,3,5,237.7,0.0
64.29,1,0.062,-0.015,-0.013,0.044,-0.002,-0.02,-1.561,-0.002,0.188,63.07,97.2,40.503139,-3.369214,603.6,3,5,237.7,0.0
64.39,1,-0.018,-0.004,-0.021,0.021,-0.01,-0.014,-1.562,-0.005,0.187,63.07,97.2,40.503139,-3.369214,603.6,3,5,237.7,0.0
64.48,1,-0.044,-0.026,-0.014,-0.016,-0.01,-0.026,-1.56,-0.006,0.186,63.07,97.2,40.503139,-3.369214,603.6,3,5,237.7,0.0
64.58,1,-0.053,-0.051,-0.024,-0.034,-0.031,-0.015,-1.559,-0.006,0.185,63.07,97.2,40.503139,-3.369214,603.6,3,5,237.7,0.0
64.69,1,-0.066,-0.002,-0.022,-0.051,-0.033,-0.02,-1.554,-0.013,0.184,64.08,97.7,40.503006,-3.369491,602.9,3,5,237.3,0.352
64.79,1,-0.041,0.034,-0.002,-0.044,0.009,-0.01,-1.554,-0.013,0.183,64.08,97.7,40.503006,-3.369491,602.9,3,5,237.3,0.352
64.9,1,0.07,-0.075,0.012,-0.014,-0.015,-0.009,-1.554,-0.014,0.182,64.08,97.7,40.503006,-3.369491,602.9,3,5,237.3,0.352
64.99,1,-0.038,0.003,-0.012,0.004,-0.029,0.004,-1.552,-0.015,0.18,64.08,97.7,40.503006,-3.369491,602.9,3,5,237.3,0.352
65.09,1,-0.041,0.057,-0.004,-0.03,0.015,-0.013,-1.552,-0.015,0.18,64.08,97.7,40.503006,-3.369491,602.9,3,5,237.3,0.352
65.19,1,0.035,-0.02,0.015,0.007,0.017,0.01,-1.553,-0.015,0.18,64.08,97.7,40.503006,-3.369491,602.9,3,5,237.3,0.352
65.3,1,0.032,-0.09,-0.009,0.017,-0.041,-0.004,-1.553,-0.014,0.178,64.08,97.7,40.503006,-3.369491,602.9,3,5,237.3,0.352
65.39,1,-0.074,0.006,0.016,-0.011,-0.039,0.005,-1.553,-0.015,0.178,64.08,97.7,40.503006,-3.369491,602.9,3,5,237.3,0.352
65.5,1,-0.024,-0.03,-0.036,-0.041,-0.013,-0.005,-1.552,-0.016,0.177,64.08,97.7,40.503006,-3.369491,602.9,3,5,237.3,0.352
65.6,1,0.016,-0.037,0.021,-0.025,-0.023,-0.009,-1.554,-0.022,0.176,64.08,97.7,40.503006,-3.369491,602.9,3,5,237.3,0.352
65.69,1,-0.055,-0.012,-0.016,-0.011,-0.028,0.002,-1.553,-0.023,0.175,65.15,97.7,40.502872,-3.36976,603.3,3,5,237.3,0.352
65.79,1,-0.016,-0.001,0.013,-0.019,-0.016,0.0,-1.553,-0.024,0.175,65.15,97.7,40.502872,-3.36976,603.3,3,5,237.3,0.352
65.9,1,0.004,-0.021,-0.023,-0.015,-0.013,-0.012,-1.548,-0.02,0.174,65.15,97.7,40.502872,-3.36976,603.3,3,5,237.3,0.352
65.99,1,0.042,-0.005,-0.007,0.011,-0.013,-0.009,-1.549,-0.017,0.173,65.15,97.7,40.502872,-3.36976,603.3,3,5,237.3,0.352
66.1,1,0.014,0.012,0.008,0.029,-0.001,0.0,-1.549,-0.018,0.172,65.15,97.7,40.502872,-3.36976,603.3,3,5,237.3,0.352
66.19,1,-0.013,-0.006,-0.024,0.003,0.004,-0.01,-1.547,-0.016,0.171,65.15,97.7,40.502872,-3.36976,603.3,3,5,237.3,0.352
66.29,1,0.066,-0.051,0.017,0.021,-0.028,-0.004,-1.547,-0.018,0.171,65.15,97.7,40.502872,-3.36976,603.3,3,5,237.3,0.352
66.39,1,0.002,0.001,-0.035,0.026,-0.022,-0.012,-1.546,-0.019,0.17,65.15,97.7,40.502872,-3.36976,603.3,3,5,237.3,0.352
66.49,1,-0.056,-0.055,-0.009,-0.028,-0.021,-0.014,-1.547,-0.02,0.17,65.15,97.7,40.502872,-3.36976,603.3,3,5,237.3,0.352
66.59,1,-0.055,-0.039,-0.035,-0.031,-0.042,-0.023,-1.548,-0.023,0.169,65.15,97.7,40.502872,-3.36976,603.3,3,5,237.3,0.352
66.7,1,0.06,-0.07,0.006,-0.002,-0.053,-0.014,-1.55,-0.022,0.168,66.06,98.3,40.502739,-3.370029,602.7,3,5,237.3,0.0
66.79,1,0.016,-0.081,-0.025,0.033,-0.06,-0.006,-1.549,-0.022,0.167,66.06,98.3,40.502739,-3.370029,602.7,3,5,237.3,0.0
66.89,1,0.056,-0.006,-0.005,0.032,-0.055,-0.016,-1.549,-0.023,0.166,66.06,98.3,40.502739,-3.370029,602.7,3,5,237.3,0.0
66.99,1,-0.036,0.03,-0.024,0.016,-0.002,-0.017,-1.548,-0.02,0.165,66.06,98.3,40.502739,-3.370029,602.7,3,5,237.3,0.0
67.09,1,-0.089,-0.048,-0.01,-0.051,-0.013,-0.015,-1.544,-0.012,0.164,66.06,98.3,40.502739,-3.370029,602.7,3,5,237.3,0.0
67.23,1,0.044,-0.008,0.01,-0.03,-0.024,-0.009,-1.543,-0.009,0.163,66.06,98.3,40.502739,-3.370029,602.7,3,5,237.3,0.0
67.3,1,-0.023,0.004,-0.023,-0.02,-0.012,-0.006,-1.539,-0.007,0.162,66.06,98.3,40.502739,-3.370029,602.7,3,5,237.3,0.0
67.4,1,-0.023,-0.005,0.033,0.001,0.0,0.007,-1.538,-0.008,0.162,66.06,98.3,40.502739,-3.370029,602.7,3,5,237.3,0.0
67.5,1,-0.026,-0.044,-0.023,-0.024,-0.021,-0.003,-1.531,-0.002,0.162,66.06,98.3,40.502739,-3.370029,602.7,3,5,237.3,0.0
67.6,1,0.008,-0.027,-0.003,0.003,-0.033,-0.001,-1.528,0.001,0.161,66.06,98.3,40.502739,-3.370029,602.7,3,5,237.3,0.0
67.7,1,-0.005,-0.038,-0.003,-0.006,-0.026,-0.01,-1.527,0.004,0.161,67.07,98.5,40.502613,-3.3703,603.0,3,5,237.3,0.0
67.81,1,-0.024,0.001,0.04,-0.013,-0.02,0.017,-1.53,0.012,0.161,67.07,98.5,40.502613,-3.3703,603.0,3,5,237.3,0.0
67.9,1,-0.017,0.011,0.008,-0.018,-0.003,0.018,-1.533,0.012,0.161,67.07,98.5,40.502613,-3.3703,603.0,3,5,237.3,0.0
68.0,1,0.037,-0.009,-0.002,-0.007,0.001,0.006,-1.532,0.006,0.16,67.07,98.5,40.502613,-3.3703,603.0,3,5,237.3,0.0
68.1,1,0.014,0.007,0.045,0.028,-0.003,0.023,-1.532,0.003,0.159,67.07,98.5,40.502613,-3.3703,603.0,3,5,237.3,0.0
68.2,1,-0.072,0.031,-0.04,-0.026,0.019,0.0,-1.53,0.004,0.159,67.07,98.5,40.502613,-3.3703,603.0,3,5,237.3,0.0
68.3,1,0.019,-0.034,0.031,-0.016,-0.003,-0.001,-1.53,0.01,0.158,67.07,98.5,40.502613,-3.3703,603.0,3,5,237.3,0.0
68.4,1,-0.039,-0.044,-0.008,-0.012,-0.026,0.012,-1.534,0.008,0.158,67.07,98.5,40.502613,-3.3703,603.0,3,5,237.3,0.0
68.5,1,-0.055,0.011,0.019,-0.036,-0.022,0.007,-1.535,0.01,0.157,67.07,98.5,40.502613,-3.3703,603.0,3,5,237.3,0.0
68.6,1,-0.048,0.021,-0.024,-0.05,0.009,0.001,-1.534,0.006,0.156,67.07,98.5,40.502613,-3.3703,603.0,3,5,237.3,0.0
68.7,1,0.014,0.01,-0.001,-0.021,0.011,-0.01,-1.535,0.003,0.155,68.08,98.2,40.502487,-3.370571,603.0,3,5,237.3,0.0
68.8,1,0.006,0.003,-0.004,-0.006,0.01,-0.004,-1.536,0.001,0.154,68.08,98.2,40.502487,-3.370571,603.0,3,5,237.3,0.0
68.91,1,0.055,-0.0,0.01,0.025,0.003,-0.003,-1.535,-0.003,0.153,68.08,98.2,40.502487,-3.370571,603.0,3,5,237.3,0.0
69.0,1,0.133,0.002,0.031,0.084,-0.001,0.019,-1.536,-0.0,0.152,68.08,98.2,40.502487,-3.370571,603.0,3,5,237.3,0.0
69.2,1,-0.057,-0.054,-0.029,-0.037,-0.001,-0.017,-1.537,-0.007,0.15,68.08,98.2,40.502487,-3.370571,603.0,3,5,237.3,0.0
69.3,1,0.045,-0.032,-0.009,0.011,-0.037,-0.004,-1.538,-0.011,0.15,68.08,98.2,40.502487,-3.370571,603.0,3,5,237.3,0.0
69.41,1,0.007,0.009,0.018,0.016,-0.006,0.003,-1.539,-0.011,0.149,68.08,98.2,40.502487,-3.370571,603.0,3,5,237.3,0.0
69.51,1,-0.116,-0.049,-0.02,-0.046,-0.021,-0.013,-1.539,-0.011,0.148,68.08,98.2,40.502487,-3.370571,603.0,3,5,237.3,0.0
69.62,1,0.039,-0.072,0.009,-0.043,-0.049,0.0,-1.538,-0.011,0.148,68.08,98.2,40.502487,-3.370571,603.0,3,5,237.3,0.0
69.7,1,0.121,-0.042,-0.013,0.051,-0.053,-0.004,-1.536,-0.016,0.147,68.08,98.2,40.502487,-3.370571,603.0,3,5,237.3,0.0
69.81,1,0.006,0.062,-0.004,0.056,-0.005,-0.006,-1.537,-0.019,0.147,69.07,98.5,40.502357,-3.370841,604.2,4,5,237.3,0.0
69.91,1,-0.083,-0.07,-0.015,-0.027,-0.012,-0.014,-1.537,-0.02,0.147,69.07,98.5,40.502357,-3.370841,604.2,4,5,237.3,0.0
70.02,1,-0.007,-0.103,-0.01,-0.013,-0.069,-0.001,-1.538,-0.019,0.146,69.07,98.5,40.502357,-3.370841,604.2,4,5,237.3,0.0
70.11,1,0.024,0.016,0.01,-0.003,-0.048,-0.008,-1.538,-0.019,0.146,69.07,98.5,40.502357,-3.370841,604.2,4,5,237.3,0.0
70.21,1,-0.082,-0.005,-0.042,-0.027,0.006,-0.018,-1.538,-0.018,0.146,69.07,98.5,40.502357,-3.370841,604.2,4,5,237.3,0.0
70.31,1,0.026,-0.101,0.037,-0.023,-0.05,0.005,-1.539,-0.017,0.146,69.07,98.5,40.502357,-3.370841,604.2,4,5,237.3,0.0
70.41,1,0.034,-0.053,-0.032,0.002,-0.066,-0.008,-1.538,-0.018,0.145,69.07,98.5,40.502357,-3.370841,604.2,4,5,237.3,0.0
70.51,1,-0.014,0.023,-0.008,0.013,-0.012,-0.012,-1.538,-0.019,0.144,69.07,98.5,40.502357,-3.370841,604.2,4,5,237.3,0.0
70.61,1,-0.092,-0.052,-0.02,-0.048,-0.034,-0.019,-1.54,-0.019,0.144,69.07,98.5,40.502357,-3.370841,604.2,4,5,237.3,0.0
70.71,1,0.006,-0.006,0.036,-0.016,-0.031,0.021,-1.541,-0.018,0.143,69.07,98.5,40.502357,-3.370841,604.2,4,5,237.3,0.0
70.81,1,0.062,-0.051,-0.01,0.021,-0.017,0.004,-1.536,-0.017,0.144,70.14,98.3,40.502224,-3.371106,602.5,3,5,237.3,0.0
70.91,1,0.03,-0.077,-0.019,0.046,-0.065,-0.019,-1.534,-0.017,0.144,70.14,98.3,40.502224,-3.371106,602.5,3,5,237.3,0.0
71.01,1,-0.031,-0.03,-0.023,0.004,-0.059,-0.01,-1.534,-0.019,0.143,70.14,98.3,40.502224,-3.371106,602.5,3,5,237.3,0.0
71.11,1,-0.056,-0.059,0.003,-0.052,-0.041,-0.018,-1.535,-0.02,0.142,70.14,98.3,40.502224,-3.371106,602.5,3,5,237.3,0.0
71.22,1,-0.046,-0.06,0.008,-0.033,-0.053,0.019,-1.535,-0.025,0.141,70.14,98.3,40.502224,-3.371106,602.5,3,5,237.3,0.0
71.31,1,-0.118,-0.041,-0.047,-0.081,-0.051,-0.032,-1.534,-0.025,0.141,70.14,98.3,40.502224,-3.371106,602.5,3,5,237.3,0.0
71.41,1,0.046,-0.04,0.012,-0.028,-0.046,-0.01,-1.534,-0.028,0.14,70.14,98.3,40.502224,-3.371106,602.5,3,5,237.3,0.0
71.51,1,0.056,-0.008,0.01,0.014,-0.023,0.004,-1.533,-0.031,0.139,70.14,98.3,40.502224,-3.371106,602.5,3,5,237.3,0.0
71.61,1,-0.009,-0.008,0.0,0.027,-0.02,0.003,-1.533,-0.031,0.138,70.14,98.3,40.502224,-3.371106,602.5,3,5,237.3,0.0
71.71,1,-0.047,-0.062,-0.02,-0.04,-0.03,-0.015,-1.531,-0.028,0.138,70.14,98.3,40.502224,-3.371106,602.5,3,5,237.3,0.0
71.81,1,0.005,-0.045,0.019,-0.012,-0.047,0.008,-1.534,-0.023,0.137,71.07,98.0,40.502087,-3.37137,602.6,3,5,237.0,0.352
71.92,1,-0.005,-0.049,0.004,0.0,-0.045,0.003,-1.534,-0.02,0.137,71.07,98.0,40.502087,-3.37137,602.6,3,5,237.0,0.352
72.02,1,-0.014,-0.019,0.02,-0.001,-0.03,0.012,-1.538,-0.02,0.136,71.07,98.0,40.502087,-3.37137,602.6,3,5,237.0,0.352
72.11,1,-0.009,-0.029,0.007,-0.006,-0.031,0.017,-1.536,-0.023,0.135,71.07,98.0,40.502087,-3.37137,602.6,3,5,237.0,0.352
72.21,1,0.051,-0.004,-0.005,0.002,-0.028,-0.003,-1.537,-0.022,0.135,71.07,98.0,40.502087,-3.37137,602.6,3,5,237.0,0.352
72.31,1,0.073,0.013,-0.018,0.043,-0.001,-0.008,-1.54,-0.023,0.135,71.07,98.0,40.502087,-3.37137,602.6,3,5,237.0,0.352
72.41,1,-0.072,-0.035,-0.017,0.022,0.0,-0.006,-1.542,-0.027,0.135,71.07,98.0,40.502087,-3.37137,602.6,3,5,237.0,0.352
72.53,1,-0.071,-0.08,0.004,-0.048,-0.048,-0.007,-1.544,-0.028,0.134,71.07,98.0,40.502087,-3.37137,602.6,3,5,237.0,0.352
72.62,1,0.01,-0.065,0.003,-0.035,-0.067,-0.009,-1.545,-0.03,0.133,71.07,98.0,40.502087,-3.37137,602.6,3,5,237.0,0.352
72.72,1,0.062,-0.004,0.001,0.018,-0.038,0.01,-1.544,-0.031,0.132,71.07,98.0,40.502087,-3.37137,602.6,3,5,237.0,0.352
72.82,1,-0.082,0.005,-0.018,-0.009,-0.012,-0.009,-1.541,-0.024,0.132,72.08,97.9,40.501953,-3.371636,602.2,3,5,237.3,0.352
72.93,1,-0.041,-0.055,-0.002,-0.053,-0.023,-0.014,-1.541,-0.022,0.132,72.08,97.9,40.501953,-3.371636,602.2,3,5,237.3,0.352
73.03,1,0.052,0.006,0.006,0.003,-0.028,0.002,-1.542,-0.016,0.132,72.08,97.9,40.501953,-3.371636,602.2,3,5,237.3,0.352
73.13,1,0.034,0.024,0.002,0.034,0.014,0.005,-1.54,-0.015,0.132,72.08,97.9,40.501953,-3.371636,602.2,3,5,237.3,0.352
73.23,1,-0.032,-0.003,-0.023,-0.002,-0.004,-0.007,-1.538,-0.014,0.132,72.08,97.9,40.501953,-3.371636,602.2,3,5,237.3,0.352
73.32,1,-0.002,-0.073,0.011,-0.008,-0.022,-0.009,-1.538,-0.012,0.132,72.08,97.9,40.501953,-3.371636,602.2,3,5,237.3,0.352
73.42,1,-0.125,-0.056,-0.02,-0.042,-0.05,0.001,-1.537,-0.011,0.132,72.08,97.9,40.501953,-3.371636,602.2,3,5,237.3,0.352
73.52,1,-0.052,-0.108,0.013,-0.075,-0.068,-0.009,-1.537,-0.009,0.132,72.08,97.9,40.501953,-3.371636,602.2,3,5,237.3,0.352
73.62,1,-0.062,-0.028,-0.045,-0.065,-0.072,-0.014,-1.538,-0.006,0.132,72.08,97.9,40.501953,-3.371636,602.2,3,5,237.3,0.352
73.73,1,0.054,0.026,0.04,-0.023,-0.022,-0.003,-1.541,-0.007,0.132,72.08,97.9,40.501953,-3.371636,602.2,3,5,237.3,0.352
73.82,1,-0.06,-0.012,-0.007,-0.005,-0.002,0.009,-1.54,-0.008,0.132,73.06,97.3,40.501823,-3.371907,601.6,3,5,237.7,0.703
73.92,1,-0.093,-0.081,0.012,-0.06,-0.034,0.005,-1.54,-0.012,0.132,73.06,97.3,40.501823,-3.371907,601.6,3,5,237.7,0.703
74.02,1,0.043,-0.049,-0.036,-0.03,-0.058,-0.012,-1.539,-0.013,0.133,73.06,97.3,40.501823,-3.371907,601.6,3,5,237.7,0.703
74.13,1,0.022,0.012,-0.006,0.009,-0.028,-0.008,-1.541,-0.002,0.134,73.06,97.3,40.501823,-3.371907,601.6,3,5,237.7,0.703
74.22,1,-0.042,-0.029,-0.001,-0.005,-0.01,-0.016,-1.542,-0.002,0.135,73.06,97.3,40.501823,-3.371907,601.6,3,5,237.7,0.703
74.32,1,-0.064,-0.05,-0.022,-0.031,-0.039,-0.0,-1.542,-0.002,0.136,73.06,97.3,40.501823,-3.371907,601.6,3,5,237.7,0.703
74.43,1,-0.037,-0.074,-0.025,-0.051,-0.056,-0.027,-1.541,-0.003,0.137,73.06,97.3,40.501823,-3.371907,601.6,3,5,237.7,0.703
74.52,1,-0.022,-0.04,-0.012,-0.047,-0.058,-0.016,-1.543,-0.004,0.138,73.06,97.3,40.501823,-3.371907,601.6,3,5,237.7,0.703
74.63,1,0.05,-0.011,0.031,0.01,-0.026,0.006,-1.544,-0.002,0.138,73.06,97.3,40.501823,-3.371907,601.6,3,5,237.7,0.703
74.73,1,-0.077,-0.056,-0.028,-0.016,-0.036,-0.004,-1.542,0.003,0.139,73.06,97.3,40.501823,-3.371907,601.6,3,5,237.7,0.703
74.82,1,-0.044,-0.037,-0.026,-0.046,-0.04,-0.023,-1.539,-0.0,0.139,74.07,97.3,40.501694,-3.372174,601.5,3,5,237.7,0.352
74.94,1,-0.004,0.001,-0.007,-0.025,-0.03,-0.012,-1.54,-0.004,0.138,74.07,97.3,40.501694,-3.372174,601.5,3,5,237.7,0.352
75.03,1,0.027,0.078,0.014,0.007,0.024,-0.002,-1.541,-0.006,0.137,74.07,97.3,40.501694,-3.372174,601.5,3,5,237.7,0.352
75.13,1,-0.048,-0.042,-0.011,-0.011,0.014,-0.004,-1.54,-0.008,0.136,74.07,97.3,40.501694,-3.372174,601.5,3,5,237.7,0.352
75.23,1,-0.028,-0.014,0.0,-0.022,-0.012,-0.0,-1.54,-0.008,0.135,74.07,97.3,40.501694,-3.372174,601.5,3,5,237.7,0.352
75.33,1,-0.1,-0.021,-0.027,-0.082,-0.025,-0.019,-1.541,-0.009,0.134,74.07,97.3,40.501694,-3.372174,601.5,3,5,237.7,0.352
75.43,1,-0.003,0.023,0.029,-0.028,-0.002,-0.0,-1.541,-0.009,0.133,74.07,97.3,40.501694,-3.372174,601.5,3,5,237.7,0.352
75.54,1,0.074,0.079,0.007,0.019,0.043,0.019,-1.542,-0.011,0.133,74.07,97.3,40.501694,-3.372174,601.5,3,5,237.7,0.352
75.63,1,0.053,0.013,0.01,0.049,0.043,0.01,-1.54,-0.011,0.131,74.07,97.3,40.501694,-3.372174,601.5,3,5,237.7,0.352
75.73,1,0.063,0.069,-0.013,0.051,0.046,-0.006,-1.54,-0.011,0.131,74.07,97.3,40.501694,-3.372174,601.5,3,5,237.7,0.352
75.83,1,-0.005,0.014,0.02,0.033,0.041,0.006,-1.54,-0.011,0.13,75.07,96.7,40.501556,-3.372445,601.6,4,5,237.0,0.703
75.93,1,-0.047,-0.011,0.008,-0.005,0.015,0.015,-1.54,-0.007,0.128,75.07,96.7,40.501556,-3.372445,601.6,4,5,237.0,0.703
76.03,1,-0.006,0.041,-0.001,-0.034,0.003,-0.006,-1.538,-0.014,0.127,75.07,96.7,40.501556,-3.372445,601.6,4,5,237.0,0.703
76.15,1,-0.045,-0.035,0.018,-0.018,0.009,0.015,-1.539,-0.014,0.127,75.07,96.7,40.501556,-3.372445,601.6,4,5,237.0,0.703
76.23,1,-0.042,-0.003,-0.006,-0.035,-0.013,0.007,-1.539,-0.013,0.126,75.07,96.7,40.501556,-3.372445,601.6,4,5,237.0,0.703
76.33,1,-0.061,-0.032,-0.002,-0.063,-0.016,-0.006,-1.538,-0.012,0.125,75.07,96.7,40.501556,-3.372445,601.6,4,5,237.0,0.703
76.43,1,-0.041,0.012,0.01,-0.051,-0.006,0.007,-1.537,-0.011,0.124,75.07,96.7,40.501556,-3.372445,601.6,4,5,237.0,0.703
76.53,1,0.013,-0.004,-0.0,-0.031,-0.001,-0.0,-1.533,-0.009,0.123,75.07,96.7,40.501556,-3.372445,601.6,4,5,237.0,0.703
76.63,1,0.036,0.0,0.017,0.035,-0.001,0.012,-1.536,-0.014,0.123,75.07,96.7,40.501556,-3.372445,601.6,4,5,237.0,0.703
76.73,1,-0.102,-0.036,0.003,-0.025,-0.015,0.009,-1.536,-0.019,0.122,75.07,96.7,40.501556,-3.372445,601.6,4,5,237.0,0.703
76.83,1,-0.006,-0.044,0.057,-0.045,-0.035,0.025,-1.535,-0.02,0.121,76.07,97.1,40.501419,-3.372716,601.6,3,5,237.0,0.703
76.93,1,0.065,0.045,-0.043,0.02,-0.002,0.01,-1.531,-0.021,0.12,76.07,97.1,40.501419,-3.372716,601.6,3,5,237.0,0.703
77.04,1,-0.031,-0.016,-0.012,0.009,0.017,-0.017,-1.53,-0.021,0.121,76.07,97.1,40.501419,-3.372716,601.6,3,5,237.0,0.703
77.13,1,0.013,-0.089,0.074,0.0,-0.047,0.025,-1.532,-0.02,0.12,76.07,97.1,40.501419,-3.372716,601.6,3,5,237.0,0.703
77.24,1,-0.074,-0.015,-0.015,-0.038,-0.048,0.016,-1.53,-0.021,0.119,76.07,97.1,40.501419,-3.372716,601.6,3,5,237.0,0.703
77.35,1,-0.046,0.01,-0.011,-0.053,-0.014,-0.001,-1.531,-0.021,0.118,76.07,97.1,40.501419,-3.372716,601.6,3,5,237.0,0.703
77.43,1,0.006,0.007,0.037,-0.037,-0.006,0.014,-1.533,-0.022,0.118,76.07,97.1,40.501419,-3.372716,601.6,3,5,237.0,0.703
77.54,1,0.022,-0.029,0.029,0.013,-0.009,0.027,-1.534,-0.022,0.119,76.07,97.1,40.501419,-3.372716,601.6,3,5,237.0,0.703
77.64,1,-0.063,-0.038,-0.0,-0.015,-0.018,0.011,-1.53,-0.011,0.12,76.07,97.1,40.501419,-3.372716,601.6,3,5,237.0,0.703
77.74,1,-0.038,-0.023,0.033,-0.048,-0.034,0.017,-1.528,-0.005,0.121,76.07,97.1,40.501419,-3.372716,601.6,3,5,237.0,0.703
77.84,1,-0.044,-0.022,0.022,-0.024,-0.019,0.028,-1.53,-0.003,0.121,77.09,97.0,40.501289,-3.372987,601.6,3,5,237.7,0.703
77.94,1,-0.086,-0.063,0.029,-0.061,-0.041,0.025,-1.532,-0.0,0.121,77.09,97.0,40.501289,-3.372987,601.6,3,5,237.7,0.703
78.04,1,-0.011,-0.039,-0.017,-0.057,-0.05,0.007,-1.534,-0.004,0.121,77.09,97.0,40.501289,-3.372987,601.6,3,5,237.7,0.703
78.14,1,0.04,0.076,0.015,0.016,0.012,0.01,-1.535,-0.005,0.122,77.09,97.0,40.501289,-3.372987,601.6,3,5,237.7,0.703
78.25,1,-0.019,0.038,0.049,0.001,0.036,0.025,-1.535,-0.004,0.122,77.09,97.0,40.501289,-3.372987,601.6,3,5,237.7,0.703
78.34,1,-0.107,-0.119,-0.005,-0.05,-0.016,0.018,-1.535,-0.004,0.122,77.09,97.0,40.501289,-3.372987,601.6,3,5,237.7,0.703
78.45,1,0.025,-0.058,0.033,-0.04,-0.076,0.013,-1.535,-0.003,0.121,77.09,97.0,40.501289,-3.372987,601.6,3,5,237.7,0.703
78.54,1,0.017,0.067,0.01,-0.0,0.0,0.02,-1.535,-0.001,0.122,77.09,97.0,40.501289,-3.372987,601.6,3,5,237.7,0.703
78.64,1,-0.039,-0.032,-0.022,-0.0,0.002,0.005,-1.534,-0.002,0.123,77.09,97.0,40.501289,-3.372987,601.6,3,5,237.7,0.703
78.74,1,0.014,-0.026,0.06,-0.02,-0.022,0.011,-1.536,-0.004,0.123,77.09,97.0,40.501289,-3.372987,601.6,3,5,237.7,0.703
78.84,1,-0.009,0.003,0.001,-0.003,-0.015,0.031,-1.534,-0.006,0.122,78.14,96.8,40.50116,-3.373253,601.0,3,5,237.7,0.703
78.94,1,0.012,-0.014,-0.009,0.003,-0.003,0.002,-1.533,-0.006,0.123,78.14,96.8,40.50116,-3.373253,601.0,3,5,237.7,0.703
79.04,1,-0.042,-0.037,0.009,-0.001,-0.024,0.003,-1.537,-0.005,0.123,78.14,96.8,40.50116,-3.373253,601.0,3,5,237.7,0.703
79.14,1,-0.082,-0.044,0.042,-0.051,-0.038,0.017,-1.54,-0.005,0.123,78.14,96.8,40.50116,-3.373253,601.0,3,5,237.7,0.703
79.24,1,-0.007,-0.023,-0.018,-0.053,-0.036,0.01,-1.539,-0.005,0.123,78.14,96.8,40.50116,-3.373253,601.0,3,5,237.7,0.703
79.35,1,0.121,0.075,0.051,0.046,0.017,0.028,-1.542,0.004,0.123,78.14,96.8,40.50116,-3.373253,601.0,3,5,237.7,0.703
79.45,1,-0.056,-0.013,0.02,0.013,0.015,0.018,-1.542,0.004,0.124,78.14,96.8,40.50116,-3.373253,601.0,3,5,237.7,0.703
79.54,1,-0.07,0.007,-0.001,-0.034,0.009,0.02,-1.542,0.003,0.123,78.14,96.8,40.50116,-3.373253,601.0,3,5,237.7,0.703
79.65,1,0.015,0.032,0.047,-0.032,0.009,0.019,-1.543,0.004,0.123,78.14,96.8,40.50116,-3.373253,601.0,3,5,237.7,0.703
79.74,1,0.02,0.042,-0.008,0.009,0.033,0.02,-1.544,0.0,0.123,78.14,96.8,40.50116,-3.373253,601.0,3,5,237.7,0.703
79.84,1,0.061,0.022,0.065,0.033,0.036,0.029,-1.544,-0.001,0.122,79.06,97.4,40.501022,-3.373524,600.5,3,5,237.3,0.352
79.94,1,0.136,0.062,0.001,0.075,0.038,0.026,-1.543,-0.002,0.12,79.06,97.4,40.501022,-3.373524,600.5,3,5,237.3,0.352
80.05,1,-0.0,0.055,0.013,0.071,0.049,0.021,-1.544,0.001,0.119,79.06,97.4,40.501022,-3.373524,600.5,3,5,237.3,0.352
80.15,1,-0.067,0.011,0.043,-0.014,0.042,0.02,-1.547,0.008,0.117,79.06,97.4,40.501022,-3.373524,600.5,3,5,237.3,0.352
80.25,1,0.082,0.025,-0.016,0.023,0.023,0.02,-1.546,0.01,0.117,79.06,97.4,40.501022,-3.373524,600.5,3,5,237.3,0.352
80.35,1,0.112,0.077,0.022,0.066,0.045,0.004,-1.546,0.013,0.117,79.06,97.4,40.501022,-3.373524,600.5,3,5,237.3,0.352
80.45,1,-0.037,0.072,-0.008,0.032,0.068,0.002,-1.545,0.01,0.117,79.06,97.4,40.501022,-3.373524,600.5,3,5,237.3,0.352
80.55,1,0.007,-0.014,0.076,-0.001,0.024,0.038,-1.544,0.008,0.117,79.06,97.4,40.501022,-3.373524,600.5,3,5,237.3,0.352
80.66,1,0.012,-0.016,-0.021,0.01,0.006,0.009,-1.542,0.009,0.118,79.06,97.4,40.501022,-3.373524,600.5,3,5,237.3,0.352
80.75,1,0.023,0.033,0.035,0.03,0.013,0.026,-1.542,0.016,0.119,79.06,97.4,40.501022,-3.373524,600.5,3,5,237.3,0.352
80.85,1,-0.043,-0.013,0.022,0.003,0.011,0.023,-1.541,0.02,0.12,80.07,98.0,40.500889,-3.373799,600.3,4,5,237.3,0.352
80.95,1,0.02,-0.071,0.01,-0.001,-0.029,0.019,-1.543,0.014,0.12,80.07,98.0,40.500889,-3.373799,600.3,4,5,237.3,0.352
81.05,1,0.105,-0.047,0.018,0.036,-0.052,0.013,-1.545,0.009,0.12,80.07,98.0,40.500889,-3.373799,600.3,4,5,237.3,0.352
81.15,1,-0.081,-0.044,-0.017,0.012,-0.034,0.007,-1.545,0.003,0.122,80.07,98.0,40.500889,-3.373799,600.3,4,5,237.3,0.352
81.25,1,-0.023,-0.066,0.056,-0.041,-0.049,0.018,-1.546,0.001,0.123,80.07,98.0,40.500889,-3.373799,600.3,4,5,237.3,0.352
81.35,1,-0.012,0.013,-0.001,-0.014,-0.039,0.017,-1.546,0.0,0.122,80.07,98.0,40.500889,-3.373799,600.3,4,5,237.3,0.352
81.45,1,-0.073,0.024,0.003,-0.03,0.004,0.009,-1.548,0.0,0.123,80.07,98.0,40.500889,-3.373799,600.3,4,5,237.3,0.352
81.55,1,-0.06,-0.038,0.012,-0.063,-0.007,0.01,-1.548,-0.001,0.122,80.07,98.0,40.500889,-3.373799,600.3,4,5,237.3,0.352
81.65,1,0.011,0.059,-0.014,-0.025,0.006,0.001,-1.547,-0.002,0.119,80.07,98.0,40.500889,-3.373799,600.3,4,5,237.3,0.352
81.76,1,0.031,0.073,0.036,0.002,0.049,0.01,-1.546,-0.004,0.118,80.07,98.0,40.500889,-3.373799,600.3,4,5,237.3,0.352
81.86,1,-0.034,-0.001,-0.043,-0.012,0.032,-0.007,-1.545,-0.004,0.118,81.12,97.7,40.500755,-3.374073,600.7,4,5,237.3,0.0
81.95,1,-0.052,-0.012,-0.004,-0.032,0.005,-0.015,-1.546,-0.005,0.118,81.12,97.7,40.500755,-3.374073,600.7,4,5,237.3,0.0
82.06,1,-0.028,-0.003,-0.0,-0.046,-0.003,-0.004,-1.547,-0.005,0.118,81.12,97.7,40.500755,-3.374073,600.7,4,5,237.3,0.0
82.15,1,0.047,-0.057,0.029,0.005,-0.023,0.01,-1.549,-0.01,0.118,81.12,97.7,40.500755,-3.374073,600.7,4,5,237.3,0.0
82.25,1,0.07,-0.019,-0.006,0.052,-0.033,0.01,-1.546,-0.006,0.12,81.12,97.7,40.500755,-3.374073,600.7,4,5,237.3,0.0
82.36,1,-0.016,-0.007,-0.001,0.017,-0.021,-0.008,-1.545,-0.001,0.122,81.12,97.7,40.500755,-3.374073,600.7,4,5,237.3,0.0
82.45,1,-0.068,-0.024,-0.007,-0.023,-0.016,0.002,-1.548,0.007,0.124,81.12,97.7,40.500755,-3.374073,600.7,4,5,237.3,0.0
82.56,1,0.1,-0.072,0.018,0.019,-0.04,0.004,-1.55,0.01,0.125,81.12,97.7,40.500755,-3.374073,600.7,4,5,237.3,0.0
82.66,1,-0.098,-0.091,-0.004,-0.005,-0.064,0.01,-1.552,0.014,0.126,81.12,97.7,40.500755,-3.374073,600.7,4,5,237.3,0.0
82.76,1,-0.056,-0.06,-0.005,-0.051,-0.074,-0.006,-1.547,0.002,0.127,81.12,97.7,40.500755,-3.374073,600.7,4,5,237.3,0.0
82.86,1,0.004,0.009,-0.014,-0.032,-0.035,-0.008,-1.547,0.0,0.128,82.08,99.1,40.500622,-3.374341,600.8,4,5,237.0,0.352
82.97,1,0.062,-0.006,0.037,0.024,-0.016,0.012,-1.546,-0.001,0.128,82.08,99.1,40.500622,-3.374341,600.8,4,5,237.0,0.352
83.07,1,0.047,0.001,0.013,0.036,-0.007,0.02,-1.545,0.006,0.127,82.08,99.1,40.500622,-3.374341,600.8,4,5,237.0,0.352
83.16,1,0.061,0.054,-0.023,0.041,0.022,-0.005,-1.543,0.005,0.126,82.08,99.1,40.500622,-3.374341,600.8,4,5,237.0,0.352
83.26,1,-0.008,0.013,-0.008,0.032,0.029,-0.008,-1.544,-0.001,0.125,82.08,99.1,40.500622,-3.374341,600.8,4,5,237.0,0.352
83.36,1,-0.094,0.032,0.006,-0.023,0.018,0.004,-1.548,-0.007,0.124,82.08,99.1,40.500622,-3.374341,600.8,4,5,237.0,0.352
83.46,1,-0.076,0.091,-0.014,-0.069,0.06,-0.009,-1.547,-0.013,0.122,82.08,99.1,40.500622,-3.374341,600.8,4,5,237.0,0.352
83.56,1,0.059,0.005,0.019,-0.01,0.044,0.001,-1.549,-0.012,0.12,82.08,99.1,40.500622,-3.374341,600.8,4,5,237.0,0.352
83.66,1,-0.074,0.034,-0.014,-0.023,0.029,0.003,-1.547,-0.013,0.119,82.08,99.1,40.500622,-3.374341,600.8,4,5,237.0,0.352
83.76,1,0.008,0.028,-0.02,-0.031,0.03,-0.017,-1.546,-0.015,0.118,82.08,99.1,40.500622,-3.374341,600.8,4,5,237.0,0.352
83.86,1,0.032,0.007,0.033,0.011,0.021,0.006,-1.547,-0.016,0.117,83.12,99.5,40.500488,-3.374609,600.1,4,5,237.3,0.352
83.96,1,-0.155,0.014,-0.035,-0.044,0.016,0.001,-1.546,-0.018,0.116,83.12,99.5,40.500488,-3.374609,600.1,4,5,237.3,0.352
84.06,1,0.004,-0.01,-0.014,-0.048,0.002,-0.02,-1.547,-0.019,0.116,83.12,99.5,40.500488,-3.374609,600.1,4,5,237.3,0.352
84.17,1,-0.009,-0.035,0.0,-0.038,-0.011,-0.009,-1.549,-0.019,0.116,83.12,99.5,40.500488,-3.374609,600.1,4,5,237.3,0.352
84.27,1,0.016,-0.016,-0.012,0.014,-0.025,-0.001,-1.544,-0.012,0.116,83.12,99.5,40.500488,-3.374609,600.1,4,5,237.3,0.352
84.36,1,0.006,-0.013,0.016,-0.013,-0.015,-0.01,-1.538,-0.0,0.117,83.12,99.5,40.500488,-3.374609,600.1,4,5,237.3,0.352
84.46,1,-0.053,-0.018,-0.003,-0.006,-0.018,0.01,-1.536,0.005,0.118,83.12,99.5,40.500488,-3.374609,600.1,4,5,237.3,0.352
84.57,1,-0.017,-0.046,0.007,-0.036,-0.034,-0.004,-1.535,0.009,0.118,83.12,99.5,40.500488,-3.374609,600.1,4,5,237.3,0.352
84.66,1,0.051,0.021,0.01,0.015,-0.014,0.006,-1.534,0.002,0.119,83.12,99.5,40.500488,-3.374609,600.1,4,5,237.3,0.352
84.76,1,-0.083,0.014,-0.025,-0.01,0.011,0.001,-1.538,-0.006,0.119,83.12,99.5,40.500488,-3.374609,600.1,4,5,237.3,0.352
84.87,1,-0.008,-0.056,0.002,-0.05,-0.016,-0.01,-1.539,-0.007,0.119,84.07,99.2,40.500347,-3.374874,599.9,4,5,236.2,1.055
84.98,1,-0.0,0.012,-0.018,-0.011,-0.018,-0.009,-1.538,-0.007,0.119,84.07,99.2,40.500347,-3.374874,599.9,4,5,236.2,1.055
85.06,1,-0.043,-0.008,-0.002,-0.015,0.001,-0.007,-1.539,-0.007,0.119,84.07,99.2,40.500347,-3.374874,599.9,4,5,236.2,1.055
85.17,1,-0.023,-0.02,0.004,-0.04,-0.018,-0.003,-1.539,-0.009,0.119,84.07,99.2,40.500347,-3.374874,599.9,4,5,236.2,1.055
85.27,1,0.033,-0.001,0.007,0.006,-0.006,0.006,-1.536,-0.002,0.119,84.07,99.2,40.500347,-3.374874,599.9,4,5,236.2,1.055
85.37,1,-0.0,0.024,-0.02,0.012,0.007,-0.007,-1.535,0.002,0.119,84.07,99.2,40.500347,-3.374874,599.9,4,5,236.2,1.055
85.47,1,-0.028,-0.006,-0.011,-0.011,0.009,-0.009,-1.535,0.003,0.119,84.07,99.2,40.500347,-3.374874,599.9,4,5,236.2,1.055
85.57,1,-0.009,-0.008,-0.008,-0.017,-0.003,-0.009,-1.534,0.001,0.119,84.07,99.2,40.500347,-3.374874,599.9,4,5,236.2,1.055
85.67,1,0.042,-0.031,0.007,0.009,-0.014,-0.003,-1.534,0.002,0.119,84.07,99.2,40.500347,-3.374874,599.9,4,5,236.2,1.055
85.77,1,-0.095,-0.006,-0.007,-0.027,-0.017,-0.002,-1.534,0.002,0.119,84.07,99.2,40.500347,-3.374874,599.9,4,5,236.2,1.055
85.88,1,-0.025,0.023,-0.029,-0.047,0.002,-0.015,-1.534,0.001,0.119,85.06,100.3,40.500217,-3.375137,599.6,4,5,237.0,0.703
85.97,1,0.006,-0.019,0.011,-0.004,0.002,-0.006,-1.536,0.0,0.119,85.06,100.3,40.500217,-3.375137,599.6,4,5,237.0,0.703
86.08,1,-0.062,-0.048,-0.023,-0.033,-0.032,-0.009,-1.536,-0.001,0.119,85.06,100.3,40.500217,-3.375137,599.6,4,5,237.0,0.703
86.18,1,0.013,0.048,-0.021,-0.018,-0.001,-0.018,-1.536,-0.001,0.119,85.06,100.3,40.500217,-3.375137,599.6,4,5,237.0,0.703
86.27,1,0.063,0.036,0.007,0.017,0.028,-0.008,-1.536,-0.0,0.12,85.06,100.3,40.500217,-3.375137,599.6,4,5,237.0,0.703
86.37,1,0.028,-0.008,-0.016,0.023,0.01,-0.013,-1.536,0.0,0.12,85.06,100.3,40.500217,-3.375137,599.6,4,5,237.0,0.703
86.47,1,-0.046,-0.044,-0.021,-0.0,-0.015,-0.012,-1.536,0.001,0.12,85.06,100.3,40.500217,-3.375137,599.6,4,5,237.0,0.703
86.57,1,-0.056,-0.075,-0.015,-0.025,-0.042,-0.021,-1.536,0.001,0.12,85.06,100.3,40.500217,-3.375137,599.6,4,5,237.0,0.703
86.67,1,-0.068,-0.02,-0.023,-0.048,-0.042,-0.013,-1.536,0.001,0.12,85.06,100.3,40.500217,-3.375137,599.6,4,5,237.0,0.703
86.77,1,0.002,0.028,-0.034,-0.047,-0.004,-0.029,-1.537,0.002,0.12,85.06,100.3,40.500217,-3.375137,599.6,4,5,237.0,0.703
86.87,1,0.068,-0.008,0.028,0.027,0.003,-0.002,-1.538,-0.0,0.119,86.13,100.1,40.500065,-3.375415,599.4,4,5,237.0,0.703
86.97,1,-0.075,-0.012,0.025,-0.013,-0.008,0.014,-1.536,-0.003,0.119,86.13,100.1,40.500065,-3.375415,599.4,4,5,237.0,0.703
87.08,1,0.042,-0.043,0.004,-0.004,-0.024,0.01,-1.536,-0.005,0.119,86.13,100.1,40.500065,-3.375415,599.4,4,5,237.0,0.703
87.17,1,-0.002,-0.025,-0.023,0.018,-0.031,-0.0,-1.534,-0.004,0.119,86.13,100.1,40.500065,-3.375415,599.4,4,5,237.0,0.703
87.28,1,-0.088,0.014,0.019,-0.03,-0.006,0.002,-1.534,-0.003,0.119,86.13,100.1,40.500065,-3.375415,599.4,4,5,237.0,0.703
87.38,1,-0.03,0.017,0.001,-0.056,0.009,0.007,-1.537,0.001,0.118,86.13,100.1,40.500065,-3.375415,599.4,4,5,237.0,0.703
87.47,1,0.003,0.007,0.034,-0.016,0.002,0.012,-1.538,0.007,0.118,86.13,100.1,40.500065,-3.375415,599.4,4,5,237.0,0.703
87.57,1,-0.018,0.013,0.01,-0.022,0.012,0.019,-1.538,0.006,0.118,86.13,100.1,40.500065,-3.375415,599.4,4,5,237.0,0.703
87.68,1,-0.074,-0.002,0.001,-0.035,0.007,0.011,-1.538,0.008,0.119,86.13,100.1,40.500065,-3.375415,599.4,4,5,237.0,0.703
87.77,1,0.057,-0.022,0.003,-0.019,-0.008,0.004,-1.535,0.012,0.119,86.13,100.1,40.500065,-3.375415,599.4,4,5,237.0,0.703
87.88,1,0.002,0.027,-0.002,0.02,0.002,-0.002,-1.534,0.011,0.119,87.08,98.3,40.499935,-3.375694,599.5,4,5,237.0,0.0
87.98,1,-0.026,0.001,0.018,0.002,0.009,0.009,-1.536,0.015,0.119,87.08,98.3,40.499935,-3.375694,599.5,4,5,237.0,0.0
88.08,1,0.01,-0.013,-0.022,-0.003,-0.001,-0.002,-1.535,0.017,0.119,87.08,98.3,40.499935,-3.375694,599.5,4,5,237.0,0.0
88.18,1,-0.008,0.059,0.018,-0.007,0.017,-0.003,-1.538,0.021,0.119,87.08,98.3,40.499935,-3.375694,599.5,4,5,237.0,0.0
88.28,1,-0.015,0.012,0.002,-0.007,0.03,0.013,-1.542,0.013,0.119,87.08,98.3,40.499935,-3.375694,599.5,4,5,237.0,0.0
88.38,1,-0.018,-0.01,0.007,-0.022,-0.003,0.002,-1.54,0.013,0.119,87.08,98.3,40.499935,-3.375694,599.5,4,5,237.0,0.0
88.49,1,0.01,0.026,-0.01,-0.004,0.017,-0.001,-1.54,0.012,0.118,87.08,98.3,40.499935,-3.375694,599.5,4,5,237.0,0.0
88.59,1,-0.008,0.049,-0.006,-0.002,0.03,-0.005,-1.54,0.011,0.119,87.08,98.3,40.499935,-3.375694,599.5,4,5,237.0,0.0
88.68,1,-0.007,-0.015,-0.006,0.003,0.027,-0.004,-1.54,0.011,0.118,87.08,98.3,40.499935,-3.375694,599.5,4,5,237.0,0.0
88.78,1,-0.086,-0.095,-0.01,-0.031,-0.044,0.002,-1.539,0.011,0.118,87.08,98.3,40.499935,-3.375694,599.5,4,5,237.0,0.0
88.88,1,-0.079,-0.07,-0.006,-0.076,-0.061,-0.025,-1.541,0.009,0.119,88.07,98.4,40.499798,-3.375964,599.4,4,5,237.0,0.0
88.98,1,0.0,0.055,0.04,-0.041,-0.022,0.023,-1.541,0.006,0.12,88.07,98.4,40.499798,-3.375964,599.4,4,5,237.0,0.0
89.08,1,-0.023,0.049,-0.016,-0.019,0.039,0.004,-1.54,0.005,0.12,88.07,98.4,40.499798,-3.375964,599.4,4,5,237.0,0.0
89.19,1,-0.032,-0.051,0.028,-0.032,-0.002,0.008,-1.542,0.008,0.12,88.07,98.4,40.499798,-3.375964,599.4,4,5,237.0,0.0
89.28,1,-0.051,-0.041,0.011,-0.036,-0.025,0.019,-1.542,0.01,0.12,88.07,98.4,40.499798,-3.375964,599.4,4,5,237.0,0.0
89.39,1,0.092,0.079,0.064,0.01,0.016,0.035,-1.542,0.01,0.121,88.07,98.4,40.499798,-3.375964,599.4,4,5,237.0,0.0
89.49,1,0.094,0.019,0.016,0.063,0.024,0.032,-1.539,0.01,0.121,88.07,98.4,40.499798,-3.375964,599.4,4,5,237.0,0.0
89.59,1,-0.038,-0.006,-0.012,0.015,0.003,0.006,-1.539,0.011,0.121,88.07,98.4,40.499798,-3.375964,599.4,4,5,237.0,0.0
89.69,1,0.019,0.044,0.027,0.007,0.018,0.016,-1.549,0.017,0.121,88.07,98.4,40.499798,-3.375964,599.4,4,5,237.0,0.0
89.78,1,0.032,0.015,0.018,0.042,0.027,0.017,-1.549,0.007,0.121,88.07,98.4,40.499798,-3.375964,599.4,4,5,237.0,0.0
89.88,1,-0.161,0.019,-0.01,-0.052,0.021,-0.001,-1.547,0.006,0.12,89.08,98.9,40.49966,-3.37623,599.4,4,5,236.6,0.352
89.99,1,0.007,0.058,0.039,-0.059,0.036,0.024,-1.549,0.007,0.119,89.08,98.9,40.49966,-3.37623,599.4,4,5,236.6,0.352
90.08,1,-0.075,-0.014,-0.029,-0.037,0.018,0.0,-1.552,0.008,0.119,89.08,98.9,40.49966,-3.37623,599.4,4,5,236.6,0.352
90.19,1,-0.043,0.046,0.041,-0.06,0.021,0.018,-1.553,-0.002,0.119,89.08,98.9,40.49966,-3.37623,599.4,4,5,236.6,0.352
90.28,1,0.05,0.039,0.001,-0.019,0.039,0.007,-1.555,0.002,0.12,89.08,98.9,40.49966,-3.37623,599.4,4,5,236.6,0.352
90.39,1,0.015,-0.015,0.029,0.019,0.015,0.019,-1.556,0.005,0.12,89.08,98.9,40.49966,-3.37623,599.4,4,5,236.6,0.352
90.49,1,-0.039,-0.008,-0.019,-0.014,-0.004,0.008,-1.554,0.009,0.12,89.08,98.9,40.49966,-3.37623,599.4,4,5,236.6,0.352
90.59,1,0.07,0.009,-0.012,0.026,0.004,-0.006,-1.553,0.008,0.12,89.08,98.9,40.49966,-3.37623,599.4,4,5,236.6,0.352
90.69,1,0.028,-0.009,0.027,0.033,-0.004,0.005,-1.554,0.006,0.12,89.08,98.9,40.49966,-3.37623,599.4,4,5,236.6,0.352
90.79,1,-0.128,0.031,0.003,-0.035,0.011,0.002,-1.551,0.006,0.12,89.08,98.9,40.49966,-3.37623,599.4,4,5,236.6,0.352
90.9,1,-0.072,0.01,-0.003,-0.087,0.032,0.009,-1.549,0.006,0.12,90.08,99.7,40.499535,-3.376502,599.4,4,5,236.6,0.352
90.99,1,0.007,-0.01,-0.028,-0.053,0.005,-0.018,-1.549,0.005,0.12,90.08,99.7,40.499535,-3.376502,599.4,4,5,236.6,0.352
91.09,1,0.04,0.016,0.012,0.033,-0.015,-0.002,-1.551,0.004,0.119,90.08,99.7,40.499535,-3.376502,599.4,4,5,236.6,0.352
91.19,1,-0.028,0.063,0.037,-0.005,0.034,0.021,-1.551,0.004,0.119,90.08,99.7,40.499535,-3.376502,599.4,4,5,236.6,0.352
91.29,1,0.006,0.022,-0.033,-0.001,0.03,-0.001,-1.55,0.003,0.119,90.08,99.7,40.499535,-3.376502,599.4,4,5,236.6,0.352
91.4,1,0.035,0.042,0.003,0.012,0.041,-0.013,-1.551,0.01,0.119,90.08,99.7,40.499535,-3.376502,599.4,4,5,236.6,0.352
91.49,1,-0.023,-0.003,-0.005,0.005,0.014,0.003,-1.552,0.012,0.118,90.08,99.7,40.499535,-3.376502,599.4,4,5,236.6,0.352
91.59,1,-0.021,-0.047,0.007,-0.014,-0.014,-0.004,-1.552,0.012,0.118,90.08,99.7,40.499535,-3.376502,599.4,4,5,236.6,0.352
91.69,1,0.014,0.047,-0.019,-0.009,0.004,-0.013,-1.552,0.012,0.118,90.08,99.7,40.499535,-3.376502,599.4,4,5,236.6,0.352
91.8,1,-0.008,0.014,-0.001,0.017,0.026,0.002,-1.552,0.011,0.118,90.08,99.7,40.499535,-3.376502,599.4,4,5,236.6,0.352
91.9,1,-0.12,0.01,-0.032,-0.061,0.014,-0.02,-1.551,0.014,0.118,91.08,99.8,40.499397,-3.376772,600.3,4,5,236.2,0.352
92.0,1,0.007,0.044,0.023,-0.046,0.019,0.003,-1.549,0.015,0.118,91.08,99.8,40.499397,-3.376772,600.3,4,5,236.2,0.352
92.09,1,-0.049,0.057,-0.024,-0.022,0.05,-0.006,-1.546,0.008,0.118,91.08,99.8,40.499397,-3.376772,600.3,4,5,236.2,0.352
92.19,1,0.005,-0.01,0.015,-0.036,0.022,-0.007,-1.547,0.016,0.118,91.08,99.8,40.499397,-3.376772,600.3,4,5,236.2,0.352
92.29,1,0.019,0.006,0.007,0.004,0.011,0.007,-1.551,0.018,0.118,91.08,99.8,40.499397,-3.376772,600.3,4,5,236.2,0.352
92.4,1,-0.112,-0.04,-0.013,-0.044,-0.008,-0.001,-1.551,0.018,0.118,91.08,99.8,40.499397,-3.376772,600.3,4,5,236.2,0.352
92.49,1,0.07,0.02,0.042,-0.024,-0.022,0.01,-1.55,0.019,0.118,91.08,99.8,40.499397,-3.376772,600.3,4,5,236.2,0.352
92.6,1,-0.003,0.035,-0.043,0.022,0.029,0.0,-1.548,0.021,0.119,91.08,99.8,40.499397,-3.376772,600.3,4,5,236.2,0.352
92.7,1,-0.042,-0.009,-0.011,-0.006,0.018,-0.011,-1.548,0.023,0.119,91.08,99.8,40.499397,-3.376772,600.3,4,5,236.2,0.352
92.79,1,-0.029,0.02,0.045,-0.045,0.014,0.004,-1.551,0.023,0.119,91.08,99.8,40.499397,-3.376772,600.3,4,5,236.2,0.352
92.9,1,-0.006,-0.035,0.008,0.001,-0.015,0.024,-1.551,0.022,0.119,92.05,100.7,40.499264,-3.377049,599.1,4,5,236.2,0.352
93.0,1,-0.15,0.028,-0.025,-0.068,0.004,0.001,-1.55,0.023,0.118,92.05,100.7,40.499264,-3.377049,599.1,4,5,236.2,0.352
93.1,1,-0.1,0.003,-0.022,-0.115,0.007,-0.025,-1.551,0.023,0.119,92.05,100.7,40.499264,-3.377049,599.1,4,5,236.2,0.352
93.2,1,0.091,0.032,0.045,-0.026,0.011,0.008,-1.553,0.023,0.12,92.05,100.7,40.499264,-3.377049,599.1,4,5,236.2,0.352
93.3,1,0.034,0.036,-0.038,0.036,0.032,0.003,-1.55,0.019,0.12,92.05,100.7,40.499264,-3.377049,599.1,4,5,236.2,0.352
93.4,1,-0.052,-0.047,-0.011,-0.018,-0.01,-0.02,-1.549,0.018,0.12,92.05,100.7,40.499264,-3.377049,599.1,4,5,236.2,0.352
93.5,1,-0.025,-0.008,-0.002,-0.021,-0.015,-0.004,-1.55,0.018,0.121,92.05,100.7,40.499264,-3.377049,599.1,4,5,236.2,0.352
93.6,1,0.045,-0.026,0.013,0.005,-0.007,-0.005,-1.551,0.019,0.121,92.05,100.7,40.499264,-3.377049,599.1,4,5,236.2,0.352
93.71,1,-0.022,0.03,-0.019,-0.005,-0.005,-0.004,-1.554,0.024,0.122,92.05,100.7,40.499264,-3.377049,599.1,4,5,236.2,0.352
93.81,1,0.072,0.051,0.014,0.033,0.027,0.011,-1.559,0.017,0.122,92.05,100.7,40.499264,-3.377049,599.1,4,5,236.2,0.352
93.9,1,-0.012,-0.054,-0.048,0.033,-0.001,-0.021,-1.558,0.018,0.121,93.06,101.2,40.499126,-3.377339,599.0,4,5,236.6,0.352
94.0,1,-0.105,0.019,-0.062,-0.03,-0.008,-0.04,-1.558,0.013,0.121,93.06,101.2,40.499126,-3.377339,599.0,4,5,236.6,0.352
94.1,1,0.013,0.033,0.016,-0.039,0.025,-0.034,-1.558,0.005,0.12,93.06,101.2,40.499126,-3.377339,599.0,4,5,236.6,0.352
94.2,1,-0.038,0.049,-0.008,-0.016,0.025,0.001,-1.564,0.006,0.119,93.06,101.2,40.499126,-3.377339,599.0,4,5,236.6,0.352
94.31,1,-0.03,0.031,-0.01,-0.036,0.043,-0.01,-1.565,0.003,0.119,93.06,101.2,40.499126,-3.377339,599.0,4,5,236.6,0.352
94.4,1,0.038,-0.026,0.016,-0.005,0.01,-0.003,-1.558,0.002,0.118,93.06,101.2,40.499126,-3.377339,599.0,4,5,236.6,0.352
94.5,1,-0.048,-0.002,-0.011,-0.006,-0.003,0.001,-1.558,0.001,0.117,93.06,101.2,40.499126,-3.377339,599.0,4,5,236.6,0.352
94.6,1,0.065,0.023,0.016,-0.005,0.013,-0.0,-1.557,0.003,0.117,93.06,101.2,40.499126,-3.377339,599.0,4,5,236.6,0.352
94.7,1,0.026,0.078,-0.008,0.048,0.03,0.016,-1.557,-0.001,0.117,93.06,101.2,40.499126,-3.377339,599.0,4,5,236.6,0.352
94.8,1,-0.057,-0.028,-0.021,-0.013,0.018,-0.021,-1.558,-0.005,0.116,93.06,101.2,40.499126,-3.377339,599.0,4,5,236.6,0.352
94.9,1,-0.034,0.034,0.007,-0.024,0.019,-0.004,-1.561,-0.006,0.114,94.09,101.1,40.498985,-3.377618,599.0,4,5,236.2,0.352
95.0,1,-0.071,0.041,0.011,-0.046,0.035,0.002,-1.563,-0.007,0.113,94.09,101.1,40.498985,-3.377618,599.0,4,5,236.2,0.352
95.1,1,-0.026,0.007,0.023,-0.051,0.027,0.016,-1.562,-0.01,0.112,94.09,101.1,40.498985,-3.377618,599.0,4,5,236.2,0.352
95.2,1,-0.02,0.019,-0.037,-0.017,0.013,-0.001,-1.555,-0.012,0.111,94.09,101.1,40.498985,-3.377618,599.0,4,5,236.2,0.352
95.3,1,0.05,-0.005,0.016,-0.01,0.008,-0.006,-1.556,-0.013,0.11,94.09,101.1,40.498985,-3.377618,599.0,4,5,236.2,0.352
95.41,1,0.045,-0.057,-0.001,0.027,-0.02,-0.003,-1.558,-0.013,0.109,94.09,101.1,40.498985,-3.377618,599.0,4,5,236.2,0.352
95.5,1,-0.049,-0.058,-0.016,0.008,-0.048,-0.005,-1.553,-0.006,0.108,94.09,101.1,40.498985,-3.377618,599.0,4,5,236.2,0.352
95.61,1,-0.019,0.044,0.005,-0.023,-0.013,-0.004,-1.553,-0.005,0.109,94.09,101.1,40.498985,-3.377618,599.0,4,5,236.2,0.352
95.71,1,-0.005,-0.021,0.003,-0.005,0.005,0.006,-1.554,-0.005,0.109,94.09,101.1,40.498985,-3.377618,599.0,4,5,236.2,0.352
95.81,1,-0.075,-0.031,-0.004,-0.051,-0.031,-0.005,-1.555,-0.004,0.109,94.09,101.1,40.498985,-3.377618,599.0,4,5,236.2,0.352
95.92,1,-0.045,-0.026,0.021,-0.047,-0.013,0.006,-1.557,-0.001,0.11,95.08,101.3,40.498844,-3.37789,599.2,4,5,236.2,0.352
96.01,1,-0.001,-0.07,0.023,-0.022,-0.048,0.022,-1.556,0.0,0.11,95.08,101.3,40.498844,-3.37789,599.2,4,5,236.2,0.352
96.12,1,-0.01,0.038,-0.027,-0.026,-0.013,-0.002,-1.554,0.0,0.111,95.08,101.3,40.498844,-3.37789,599.2,4,5,236.2,0.352
96.21,1,0.063,-0.049,0.019,0.008,-0.012,-0.001,-1.555,-0.001,0.11,95.08,101.3,40.498844,-3.37789,599.2,4,5,236.2,0.352
96.31,1,-0.047,0.042,0.001,0.027,-0.012,0.01,-1.554,-0.003,0.11,95.08,101.3,40.498844,-3.37789,599.2,4,5,236.2,0.352
96.41,1,0.045,-0.027,0.021,-0.009,0.01,0.01,-1.551,-0.008,0.11,95.08,101.3,40.498844,-3.37789,599.2,4,5,236.2,0.352
96.51,1,0.047,-0.117,-0.005,0.051,-0.067,0.006,-1.551,-0.008,0.11,95.08,101.3,40.498844,-3.37789,599.2,4,5,236.2,0.352
96.61,1,-0.033,0.04,0.012,-0.004,-0.033,0.002,-1.551,-0.009,0.11,95.08,101.3,40.498844,-3.37789,599.2,4,5,236.2,0.352
96.71,1,0.036,-0.07,0.018,0.018,-0.019,0.014,-1.551,-0.009,0.111,95.08,101.3,40.498844,-3.37789,599.2,4,5,236.2,0.352
96.81,1,-0.051,-0.039,0.007,-0.001,-0.058,0.015,-1.55,-0.009,0.111,95.08,101.3,40.498844,-3.37789,599.2,4,5,236.2,0.352
96.91,1,0.066,-0.03,0.026,-0.011,-0.02,0.007,-1.549,-0.009,0.111,96.11,103.0,40.498711,-3.378165,598.7,4,5,236.6,0.352
97.01,1,-0.002,-0.047,-0.0,0.038,-0.046,0.016,-1.549,-0.009,0.111,96.11,103.0,40.498711,-3.378165,598.7,4,5,236.6,0.352
97.12,1,-0.05,0.02,-0.024,-0.017,-0.011,-0.001,-1.549,-0.009,0.112,96.11,103.0,40.498711,-3.378165,598.7,4,5,236.6,0.352
97.21,1,0.019,-0.099,0.02,-0.003,-0.041,-0.006,-1.55,-0.009,0.112,96.11,103.0,40.498711,-3.378165,598.7,4,5,236.6,0.352
97.32,1,0.026,-0.057,-0.004,0.004,-0.07,0.005,-1.55,-0.009,0.112,96.11,103.0,40.498711,-3.378165,598.7,4,5,236.6,0.352
97.41,1,0.016,-0.009,-0.019,0.014,-0.031,-0.004,-1.549,-0.009,0.112,96.11,103.0,40.498711,-3.378165,598.7,4,5,236.6,0.352
97.51,1,-0.025,-0.009,-0.023,-0.006,-0.012,-0.02,-1.549,-0.009,0.112,96.11,103.0,40.498711,-3.378165,598.7,4,5,236.6,0.352
97.61,1,-0.053,-0.027,-0.02,-0.014,-0.031,-0.018,-1.551,-0.01,0.112,96.11,103.0,40.498711,-3.378165,598.7,4,5,236.6,0.352
97.71,1,-0.109,0.024,-0.01,-0.054,-0.004,-0.011,-1.551,-0.01,0.112,96.11,103.0,40.498711,-3.378165,598.7,4,5,236.6,0.352
97.81,1,0.046,-0.053,0.019,-0.046,-0.01,-0.009,-1.551,-0.011,0.112,96.11,103.0,40.498711,-3.378165,598.7,4,5,236.6,0.352
97.92,1,-0.069,-0.062,-0.061,-0.022,-0.045,-0.013,-1.548,-0.005,0.111,97.08,102.0,40.498577,-3.378446,598.2,4,5,236.6,0.352
98.01,1,0.031,0.012,0.029,-0.023,-0.026,-0.016,-1.549,-0.005,0.112,97.08,102.0,40.498577,-3.378446,598.2,4,5,236.6,0.352
98.11,1,0.035,0.009,-0.001,0.026,-0.002,0.008,-1.548,-0.006,0.112,97.08,102.0,40.498577,-3.378446,598.2,4,5,236.6,0.352
98.22,1,-0.064,-0.003,-0.039,-0.017,0.003,-0.013,-1.547,-0.01,0.112,97.08,102.0,40.498577,-3.378446,598.2,4,5,236.6,0.352
98.32,1,0.035,-0.104,0.007,-0.021,-0.043,-0.021,-1.548,-0.008,0.113,97.08,102.0,40.498577,-3.378446,598.2,4,5,236.6,0.352
98.42,1,0.036,-0.077,-0.011,0.043,-0.082,0.004,-1.548,-0.006,0.113,97.08,102.0,40.498577,-3.378446,598.2,4,5,236.6,0.352
98.52,1,-0.066,0.021,-0.009,-0.026,-0.028,-0.017,-1.548,-0.006,0.115,97.08,102.0,40.498577,-3.378446,598.2,4,5,236.6,0.352
98.62,1,0.06,-0.015,0.019,-0.003,-0.005,0.004,-1.549,-0.007,0.115,97.08,102.0,40.498577,-3.378446,598.2,4,5,236.6,0.352
98.72,1,-0.093,-0.021,-0.012,-0.016,-0.028,-0.0,-1.548,-0.007,0.115,97.08,102.0,40.498577,-3.378446,598.2,4,5,236.6,0.352
98.82,1,-0.04,0.003,-0.017,-0.037,0.001,-0.005,-1.546,-0.014,0.116,97.08,102.0,40.498577,-3.378446,598.2,4,5,236.6,0.352
98.92,1,0.001,-0.088,0.023,-0.026,-0.051,-0.011,-1.546,-0.021,0.116,98.11,102.2,40.498447,-3.378722,599.2,4,5,236.6,0.0
99.02,1,-0.003,0.024,-0.003,-0.009,-0.033,0.013,-1.545,-0.022,0.116,98.11,102.2,40.498447,-3.378722,599.2,4,5,236.6,0.0
99.22,1,-0.041,-0.001,0.022,-0.018,-0.035,0.003,-1.545,-0.024,0.115,98.11,102.2,40.498447,-3.378722,599.2,4,5,236.6,0.0
99.32,1,0.01,0.009,-0.019,-0.018,-0.004,-0.003,-1.545,-0.025,0.116,98.11,102.2,40.498447,-3.378722,599.2,4,5,236.6,0.0
99.42,1,0.024,-0.106,0.033,0.012,-0.041,0.012,-1.545,-0.025,0.116,98.11,102.2,40.498447,-3.378722,599.2,4,5,236.6,0.0
99.52,1,-0.03,-0.004,-0.009,-0.005,-0.033,0.008,-1.544,-0.026,0.116,98.11,102.2,40.498447,-3.378722,599.2,4,5,236.6,0.0
99.63,1,-0.008,-0.078,0.009,-0.013,-0.051,0.001,-1.545,-0.026,0.117,98.11,102.2,40.498447,-3.378722,599.2,4,5,236.6,0.0
99.73,1,-0.084,-0.043,-0.006,-0.038,-0.065,0.003,-1.546,-0.026,0.116,98.11,102.2,40.498447,-3.378722,599.2,4,5,236.6,0.0
99.82,1,-0.046,0.004,0.004,-0.043,-0.033,0.006,-1.546,-0.025,0.117,98.11,102.2,40.498447,-3.378722,599.2,4,5,236.6,0.0
99.92,1,0.121,-0.124,0.015,-0.001,-0.038,-0.001,-1.545,-0.025,0.116,98.11,102.2,40.498447,-3.378722,599.2,4,5,236.6,0.0
100.02,1,0.093,-0.118,-0.027,0.071,-0.088,-0.004,-1.542,-0.025,0.116,99.08,102.8,40.498306,-3.378992,599.2,4,5,236.6,0.0
100.12,1,-0.163,0.058,-0.046,-0.01,-0.058,-0.023,-1.542,-0.026,0.117,99.08,102.8,40.498306,-3.378992,599.2,4,5,236.6,0.0
100.23,1,0.047,-0.039,0.025,-0.03,-0.005,-0.014,-1.545,-0.027,0.117,99.08,102.8,40.498306,-3.378992,599.2,4,5,236.6,0.0
100.32,1,-0.003,-0.019,0.014,0.017,-0.039,0.008,-1.545,-0.026,0.117,99.08,102.8,40.498306,-3.378992,599.2,4,5,236.6,0.0
100.42,1,-0.101,0.055,-0.051,-0.052,0.016,-0.012,-1.543,-0.025,0.118,99.08,102.8,40.498306,-3.378992,599.2,4,5,236.6,0.0
100.52,1,0.017,-0.121,-0.01,-0.03,-0.028,-0.021,-1.544,-0.025,0.118,99.08,102.8,40.498306,-3.378992,599.2,4,5,236.6,0.0
100.63,1,-0.017,0.027,0.018,-0.012,-0.042,-0.005,-1.545,-0.026,0.117,99.08,102.8,40.498306,-3.378992,599.2,4,5,236.6,0.0
100.73,1,0.013,-0.012,-0.011,-0.014,0.003,-0.003,-1.543,-0.026,0.116,99.08,102.8,40.498306,-3.378992,599.2,4,5,236.6,0.0
100.83,1,0.037,-0.035,0.016,0.02,-0.022,0.003,-1.543,-0.025,0.115,99.08,102.8,40.498306,-3.378992,599.2,4,5,236.6,0.0
100.93,1,0.036,-0.045,-0.004,0.012,-0.029,0.001,-1.542,-0.026,0.114,99.08,102.8,40.498306,-3.378992,599.2,4,5,236.6,0.0
101.03,1,0.017,-0.015,0.001,0.052,-0.039,0.01,-1.539,-0.026,0.114,100.07,102.2,40.498173,-3.37928,599.8,4,5,236.2,0.352
101.13,1,-0.019,0.042,0.024,-0.005,0.006,0.005,-1.536,-0.029,0.114,100.07,102.2,40.498173,-3.37928,599.8,4,5,236.2,0.352
101.23,1,-0.01,-0.035,-0.009,0.006,-0.009,0.01,-1.538,-0.018,0.113,100.07,102.2,40.498173,-3.37928,599.8,4,5,236.2,0.352
101.33,1,-0.041,-0.044,-0.024,-0.039,-0.024,-0.013,-1.538,-0.017,0.113,100.07,102.2,40.498173,-3.37928,599.8,4,5,236.2,0.352
101.44,1,-0.033,-0.011,-0.025,-0.028,-0.028,-0.017,-1.535,-0.017,0.112,100.07,102.2,40.498173,-3.37928,599.8,4,5,236.2,0.352
101.53,1,0.035,0.0,0.029,0.007,-0.011,-0.004,-1.54,-0.015,0.111,100.07,102.2,40.498173,-3.37928,599.8,4,5,236.2,0.352
101.63,1,-0.011,0.059,-0.006,-0.006,0.023,0.003,-1.54,-0.014,0.11,100.07,102.2,40.498173,-3.37928,599.8,4,5,236.2,0.352
101.73,1,0.005,0.013,0.012,0.004,0.032,0.008,-1.541,-0.019,0.11,100.07,102.2,40.498173,-3.37928,599.8,4,5,236.2,0.352
101.83,1,-0.006,-0.041,-0.015,0.008,-0.013,-0.001,-1.543,-0.007,0.11,100.07,102.2,40.498173,-3.37928,599.8,4,5,236.2,0.352
101.93,1,-0.039,-0.0,0.013,-0.037,0.003,-0.002,-1.544,-0.005,0.111,100.07,102.2,40.498173,-3.37928,599.8,4,5,236.2,0.352
102.04,1,0.042,-0.074,0.016,0.014,-0.047,0.008,-1.544,-0.003,0.111,101.13,102.7,40.49802,-3.379563,599.8,4,5,235.9,0.703
102.14,1,0.002,-0.102,0.006,0.02,-0.073,0.014,-1.543,-0.002,0.11,101.13,102.7,40.49802,-3.379563,599.8,4,5,235.9,0.703
102.23,1,-0.089,0.022,-0.008,-0.039,-0.039,0.0,-1.543,-0.002,0.111,101.13,102.7,40.49802,-3.379563,599.8,4,5,235.9,0.703
102.33,1,-0.006,-0.007,0.042,-0.055,-0.001,0.017,-1.544,-0.003,0.111,101.13,102.7,40.49802,-3.379563,599.8,4,5,235.9,0.703
102.44,1,0.042,-0.059,0.019,0.027,-0.043,0.027,-1.543,-0.006,0.111,101.13,102.7,40.49802,-3.379563,599.8,4,5,235.9,0.703
102.53,1,-0.028,-0.012,-0.019,-0.01,-0.027,0.002,-1.542,-0.012,0.112,101.13,102.7,40.49802,-3.379563,599.8,4,5,235.9,0.703
102.64,1,0.072,-0.145,-0.003,0.011,-0.058,-0.009,-1.543,-0.012,0.113,101.13,102.7,40.49802,-3.379563,599.8,4,5,235.9,0.703
102.73,1,-0.006,-0.064,0.006,0.056,-0.113,0.014,-1.544,-0.013,0.114,101.13,102.7,40.49802,-3.379563,599.8,4,5,235.9,0.703
102.84,1,-0.117,0.031,-0.025,-0.048,-0.027,-0.012,-1.544,-0.013,0.116,101.13,102.7,40.49802,-3.379563,599.8,4,5,235.9,0.703
102.93,1,0.119,-0.101,0.077,0.009,-0.051,0.022,-1.546,-0.013,0.115,101.13,102.7,40.49802,-3.379563,599.8,4,5,235.9,0.703
103.04,1,-0.097,0.078,-0.036,-0.009,-0.004,0.011,-1.544,-0.013,0.116,102.09,102.3,40.497864,-3.379845,598.4,4,5,235.9,0.352
103.13,1,0.076,-0.125,0.053,-0.018,-0.017,0.007,-1.545,-0.014,0.116,102.09,102.3,40.497864,-3.379845,598.4,4,5,235.9,0.352
103.24,1,-0.024,0.033,0.013,0.022,-0.038,0.031,-1.545,-0.014,0.116,102.09,102.3,40.497864,-3.379845,598.4,4,5,235.9,0.352
103.34,1,-0.017,-0.049,0.003,-0.018,-0.017,0.01,-1.544,-0.012,0.117,102.09,102.3,40.497864,-3.379845,598.4,4,5,235.9,0.352
103.44,1,-0.034,-0.058,-0.001,-0.004,-0.056,0.011,-1.544,-0.012,0.117,102.09,102.3,40.497864,-3.379845,598.4,4,5,235.9,0.352
103.54,1,-0.018,-0.015,0.021,-0.039,-0.022,0.004,-1.544,-0.012,0.119,102.09,102.3,40.497864,-3.379845,598.4,4,5,235.9,0.352
103.64,1,0.063,-0.086,0.039,0.026,-0.072,0.024,-1.544,-0.013,0.12,102.09,102.3,40.497864,-3.379845,598.4,4,5,235.9,0.352
103.74,1,-0.057,0.022,-0.029,-0.0,-0.025,0.008,-1.542,-0.012,0.122,102.09,102.3,40.497864,-3.379845,598.4,4,5,235.9,0.352
103.85,1,0.026,-0.176,-0.003,-0.016,-0.064,-0.009,-1.542,-0.009,0.126,102.09,102.3,40.497864,-3.379845,598.4,4,5,235.9,0.352
103.94,1,-0.057,-0.106,0.008,-0.012,-0.117,0.005,-1.543,-0.006,0.132,102.09,102.3,40.497864,-3.379845,598.4,4,5,235.9,0.352
104.04,1,-0.019,-0.21,0.011,-0.032,-0.14,0.005,-1.543,-0.003,0.139,103.08,102.8,40.497726,-3.380125,598.4,4,5,236.2,0.352
104.14,1,-0.041,-0.232,0.019,-0.033,-0.204,0.012,-1.543,-0.001,0.145,103.08,102.8,40.497726,-3.380125,598.4,4,5,236.2,0.352
104.25,1,-0.037,-0.119,-0.013,-0.037,-0.173,0.002,-1.542,-0.001,0.149,103.08,102.8,40.497726,-3.380125,598.4,4,5,236.2,0.352
104.34,1,0.015,-0.145,0.011,-0.027,-0.144,0.001,-1.543,-0.003,0.153,103.08,102.8,40.497726,-3.380125,598.4,4,5,236.2,0.352
104.44,1,-0.026,-0.127,-0.008,0.0,-0.139,0.007,-1.543,-0.003,0.156,103.08,102.8,40.497726,-3.380125,598.4,4,5,236.2,0.352
104.54,1,0.004,-0.169,0.028,-0.006,-0.158,0.003,-1.543,-0.003,0.16,103.08,102.8,40.497726,-3.380125,598.4,4,5,236.2,0.352
104.64,1,-0.019,-0.096,0.013,-0.028,-0.12,0.014,-1.542,-0.003,0.165,103.08,102.8,40.497726,-3.380125,598.4,4,5,236.2,0.352
104.74,1,-0.025,-0.202,-0.021,-0.013,-0.155,-0.001,-1.541,-0.002,0.17,103.08,102.8,40.497726,-3.380125,598.4,4,5,236.2,0.352
104.84,1,0.047,-0.138,0.033,0.018,-0.165,0.019,-1.54,-0.002,0.174,103.08,102.8,40.497726,-3.380125,598.4,4,5,236.2,0.352
104.95,1,-0.024,-0.095,-0.007,0.005,-0.128,0.001,-1.54,-0.005,0.176,103.08,102.8,40.497726,-3.380125,598.4,4,5,236.2,0.352
105.04,1,-0.046,-0.071,0.017,-0.024,-0.099,0.009,-1.539,-0.006,0.176,104.07,103.4,40.497585,-3.38041,598.4,4,5,236.2,0.352
105.14,1,-0.001,0.009,0.009,-0.016,-0.053,0.009,-1.541,0.002,0.173,104.07,103.4,40.497585,-3.38041,598.4,4,5,236.2,0.352
105.24,1,-0.022,0.07,0.02,-0.025,0.02,0.013,-1.543,-0.008,0.17,104.07,103.4,40.497585,-3.38041,598.4,4,5,236.2,0.352
105.34,1,-0.004,0.05,0.016,-0.02,0.05,0.014,-1.543,-0.012,0.168,104.07,103.4,40.497585,-3.38041,598.4,4,5,236.2,0.352
105.44,1,-0.074,0.115,0.001,-0.012,0.059,0.012,-1.543,-0.014,0.167,104.07,103.4,40.497585,-3.38041,598.4,4,5,236.2,0.352
105.55,1,-0.024,0.067,0.001,-0.06,0.094,0.003,-1.544,-0.013,0.165,104.07,103.4,40.497585,-3.38041,598.4,4,5,236.2,0.352
105.64,1,0.036,-0.044,0.027,0.005,0.011,0.014,-1.544,-0.013,0.162,104.07,103.4,40.497585,-3.38041,598.4,4,5,236.2,0.352
105.74,1,-0.14,0.161,-0.021,-0.04,0.057,0.012,-1.544,-0.013,0.159,104.07,103.4,40.497585,-3.38041,598.4,4,5,236.2,0.352
105.84,1,0.066,0.01,0.018,-0.037,0.073,-0.004,-1.544,-0.014,0.156,104.07,103.4,40.497585,-3.38041,598.4,4,5,236.2,0.352
105.94,1,-0.029,0.131,0.042,0.011,0.066,0.026,-1.545,-0.014,0.153,104.07,103.4,40.497585,-3.38041,598.4,4,5,236.2,0.352
106.05,1,-0.006,0.074,-0.005,-0.052,0.124,0.005,-1.543,-0.014,0.15,105.07,103.5,40.497433,-3.380689,598.7,4,5,234.1,2.109
106.15,1,-0.079,0.125,-0.014,-0.024,0.084,0.006,-1.544,-0.014,0.146,105.07,103.5,40.497433,-3.380689,598.7,4,5,234.1,2.109
106.25,1,-0.038,0.123,0.023,-0.068,0.138,-0.001,-1.544,-0.015,0.143,105.07,103.5,40.497433,-3.380689,598.7,4,5,234.1,2.109
106.35,1,0.069,0.04,0.033,0.022,0.063,0.027,-1.544,-0.016,0.139,105.07,103.5,40.497433,-3.380689,598.7,4,5,234.1,2.109
106.45,1,-0.057,0.168,0.006,-0.019,0.124,0.013,-1.544,-0.018,0.135,105.07,103.5,40.497433,-3.380689,598.7,4,5,234.1,2.109
106.55,1,-0.072,0.193,-0.029,-0.034,0.147,0.001,-1.543,-0.02,0.131,105.07,103.5,40.497433,-3.380689,598.7,4,5,234.1,2.109
106.65,1,-0.062,0.208,-0.008,-0.042,0.165,-0.007,-1.543,-0.022,0.126,105.07,103.5,40.497433,-3.380689,598.7,4,5,234.1,2.109
106.75,1,-0.094,0.255,-0.019,-0.07,0.218,-0.013,-1.543,-0.022,0.121,105.07,103.5,40.497433,-3.380689,598.7,4,5,234.1,2.109
106.85,1,0.065,0.086,0.035,-0.041,0.193,-0.004,-1.544,-0.022,0.116,105.07,103.5,40.497433,-3.380689,598.7,4,5,234.1,2.109
106.95,1,-0.056,0.187,-0.005,0.004,0.14,0.016,-1.544,-0.022,0.112,105.07,103.5,40.497433,-3.380689,598.7,4,5,234.1,2.109
107.05,1,-0.025,0.084,0.002,-0.05,0.154,-0.006,-1.544,-0.021,0.107,106.09,103.7,40.497276,-3.38097,597.5,4,5,234.1,2.109
107.15,1,-0.052,0.092,0.012,-0.018,0.084,0.009,-1.546,-0.02,0.103,106.09,103.7,40.497276,-3.38097,597.5,4,5,234.1,2.109
107.25,1,0.046,0.07,0.026,-0.034,0.112,0.013,-1.546,-0.019,0.099,106.09,103.7,40.497276,-3.38097,597.5,4,5,234.1,2.109
107.36,1,0.031,0.12,0.0,0.041,0.077,0.018,-1.544,-0.017,0.095,106.09,103.7,40.497276,-3.38097,597.5,4,5,234.1,2.109
107.46,1,-0.069,0.155,-0.015,-0.014,0.138,-0.006,-1.543,-0.015,0.093,106.09,103.7,40.497276,-3.38097,597.5,4,5,234.1,2.109
107.55,1,-0.058,0.093,0.003,-0.037,0.112,-0.001,-1.545,-0.013,0.09,106.09,103.7,40.497276,-3.38097,597.5,4,5,234.1,2.109
107.65,1,-0.086,0.036,0.017,-0.085,0.091,0.002,-1.547,-0.01,0.09,106.09,103.7,40.497276,-3.38097,597.5,4,5,234.1,2.109
107.75,1,-0.002,-0.047,0.018,-0.03,0.01,0.019,-1.548,-0.007,0.088,106.09,103.7,40.497276,-3.38097,597.5,4,5,234.1,2.109
107.85,1,-0.009,0.022,0.01,-0.033,0.017,0.012,-1.546,-0.005,0.09,106.09,103.7,40.497276,-3.38097,597.5,4,5,234.1,2.109
107.95,1,0.025,-0.062,-0.007,0.008,-0.023,0.006,-1.544,-0.002,0.092,106.09,103.7,40.497276,-3.38097,597.5,4,5,234.1,2.109
108.05,1,-0.016,-0.033,-0.008,-0.008,-0.029,-0.008,-1.544,-0.001,0.094,107.06,104.0,40.497124,-3.381241,597.5,4,5,234.5,0.352
108.15,1,-0.041,-0.054,0.01,-0.003,-0.052,0.003,-1.546,-0.001,0.095,107.06,104.0,40.497124,-3.381241,597.5,4,5,234.5,0.352
108.25,1,-0.064,-0.027,0.024,-0.058,-0.032,0.011,-1.546,-0.001,0.096,107.06,104.0,40.497124,-3.381241,597.5,4,5,234.5,0.352
108.36,1,0.011,-0.083,0.011,-0.012,-0.06,0.018,-1.548,-0.007,0.095,107.06,104.0,40.497124,-3.381241,597.5,4,5,234.5,0.352
108.46,1,-0.019,-0.006,-0.0,-0.02,-0.045,0.006,-1.546,-0.001,0.096,107.06,104.0,40.497124,-3.381241,597.5,4,5,234.5,0.352
108.56,1,-0.045,-0.053,-0.004,-0.026,-0.035,-0.0,-1.548,-0.002,0.096,107.06,104.0,40.497124,-3.381241,597.5,4,5,234.5,0.352
108.66,1,-0.028,-0.022,0.035,-0.027,-0.036,0.019,-1.55,-0.003,0.097,107.06,104.0,40.497124,-3.381241,597.5,4,5,234.5,0.352
108.76,1,-0.006,-0.039,0.006,-0.031,-0.023,0.011,-1.55,-0.002,0.097,107.06,104.0,40.497124,-3.381241,597.5,4,5,234.5,0.352
108.86,1,0.051,-0.085,0.023,0.028,-0.067,0.024,-1.548,-0.001,0.097,107.06,104.0,40.497124,-3.381241,597.5,4,5,234.5,0.352
108.96,1,-0.047,0.041,-0.034,-0.015,-0.02,-0.015,-1.547,-0.001,0.098,107.06,104.0,40.497124,-3.381241,597.5,4,5,234.5,0.352
109.06,1,-0.038,0.018,-0.007,-0.024,0.018,-0.003,-1.548,-0.001,0.099,108.05,104.7,40.496971,-3.381531,596.6,4,5,236.6,2.461
109.16,1,-0.019,-0.044,0.006,-0.018,-0.025,-0.003,-1.547,0.0,0.099,108.05,104.7,40.496971,-3.381531,596.6,4,5,236.6,2.461
109.26,1,0.02,-0.012,-0.017,-0.023,-0.007,-0.01,-1.547,0.001,0.1,108.05,104.7,40.496971,-3.381531,596.6,4,5,236.6,2.461
109.36,1,0.002,-0.061,-0.009,0.012,-0.037,-0.007,-1.547,0.001,0.1,108.05,104.7,40.496971,-3.381531,596.6,4,5,236.6,2.461
109.46,1,-0.031,0.004,-0.011,-0.02,-0.014,-0.017,-1.548,0.002,0.101,108.05,104.7,40.496971,-3.381531,596.6,4,5,236.6,2.461
109.56,1,-0.022,-0.029,-0.008,0.001,-0.046,-0.005,-1.548,0.001,0.101,108.05,104.7,40.496971,-3.381531,596.6,4,5,236.6,2.461
109.66,1,-0.066,0.007,-0.041,-0.053,0.002,-0.021,-1.548,0.0,0.102,108.05,104.7,40.496971,-3.381531,596.6,4,5,236.6,2.461
109.76,1,0.023,-0.037,-0.005,-0.009,-0.035,-0.018,-1.548,-0.002,0.102,108.05,104.7,40.496971,-3.381531,596.6,4,5,236.6,2.461
109.86,1,-0.076,0.078,-0.043,-0.037,0.027,-0.025,-1.547,-0.003,0.103,108.05,104.7,40.496971,-3.381531,596.6,4,5,236.6,2.461
109.96,1,0.07,-0.074,0.007,-0.003,-0.009,-0.017,-1.547,-0.003,0.103,108.05,104.7,40.496971,-3.381531,596.6,4,5,236.6,2.461
110.06,1,-0.077,0.056,-0.038,-0.004,-0.0,-0.014,-1.546,-0.003,0.104,109.06,105.2,40.496822,-3.381815,596.6,4,5,236.2,1.758
110.16,1,0.067,-0.079,0.008,0.009,-0.024,-0.015,-1.546,-0.003,0.104,109.06,105.2,40.496822,-3.381815,596.6,4,5,236.2,1.758
110.26,1,-0.048,-0.002,-0.023,-0.016,-0.01,-0.016,-1.547,-0.003,0.104,109.06,105.2,40.496822,-3.381815,596.6,4,5,236.2,1.758
110.36,1,-0.025,-0.047,-0.011,-0.028,-0.036,-0.015,-1.549,-0.003,0.104,109.06,105.2,40.496822,-3.381815,596.6,4,5,236.2,1.758
110.47,1,-0.076,0.051,-0.026,-0.046,0.001,-0.023,-1.55,-0.003,0.104,109.06,105.2,40.496822,-3.381815,596.6,4,5,236.2,1.758
110.56,1,0.058,-0.051,0.022,-0.008,-0.009,0.0,-1.55,-0.004,0.103,109.06,105.2,40.496822,-3.381815,596.6,4,5,236.2,1.758
110.66,1,-0.058,0.075,-0.026,-0.015,0.021,-0.007,-1.55,-0.005,0.103,109.06,105.2,40.496822,-3.381815,596.6,4,5,236.2,1.758
110.76,1,-0.07,0.018,-0.017,-0.032,0.019,-0.015,-1.55,-0.004,0.102,109.06,105.2,40.496822,-3.381815,596.6,4,5,236.2,1.758
110.86,1,-0.084,0.061,-0.011,-0.083,0.05,-0.012,-1.551,-0.005,0.101,109.06,105.2,40.496822,-3.381815,596.6,4,5,236.2,1.758
110.96,1,0.04,-0.035,0.011,-0.026,0.009,-0.007,-1.551,-0.005,0.1,109.06,105.2,40.496822,-3.381815,596.6,4,5,236.2,1.758
111.06,1,0.078,-0.02,0.023,0.042,-0.017,0.016,-1.551,-0.004,0.099,110.05,105.1,40.496674,-3.382097,596.2,4,5,236.2,0.352
111.16,1,-0.147,0.077,-0.031,-0.051,0.037,-0.013,-1.55,-0.003,0.1,110.05,105.1,40.496674,-3.382097,596.2,4,5,236.2,0.352
111.26,1,-0.019,0.012,0.044,-0.053,0.038,0.016,-1.55,-0.002,0.101,110.05,105.1,40.496674,-3.382097,596.2,4,5,236.2,0.352
111.37,1,0.012,-0.042,-0.021,-0.013,-0.012,0.001,-1.547,-0.003,0.1,110.05,105.1,40.496674,-3.382097,596.2,4,5,236.2,0.352
111.48,1,-0.036,0.011,-0.012,-0.023,0.0,-0.004,-1.547,-0.004,0.101,110.05,105.1,40.496674,-3.382097,596.2,4,5,236.2,0.352
111.57,1,0.021,-0.02,0.033,0.01,-0.015,0.008,-1.553,-0.005,0.101,110.05,105.1,40.496674,-3.382097,596.2,4,5,236.2,0.352
