Timestamp_Accel,SystemActivated,accelerometerXAxis,accelerometerYAxis,accelerometerZAxis,AccelX_KF,AccelY_KF,AccelZ_KF,gyroscopeXAxis,gyroscopeYAxis,gyroscopeZAxis,Timestamp_GPS,Speed,latitude,longitude,Altitude,VerticalAccuracy,HorizontalAccuracy,Course,Difcourse
21.29,1,0.037,-0.012,0.01,0.024,-0.011,-0.006,-1.555,0.029,0.156,21.34,94.0,40.518887,-3.409928,620.3,4,5,324.5,0.0
21.39,1,0.03,-0.003,-0.023,0.029,-0.004,-0.015,-1.552,0.022,0.155,21.34,94.0,40.518887,-3.409928,620.3,4,5,324.5,0.0
21.49,1,-0.009,0.003,-0.014,0.015,-0.003,-0.012,-1.553,0.015,0.156,21.34,94.0,40.518887,-3.409928,620.3,4,5,324.5,0.0
21.6,1,-0.061,0.019,-0.03,-0.023,0.008,-0.027,-1.561,0.001,0.156,21.34,94.0,40.518887,-3.409928,620.3,4,5,324.5,0.0
21.69,1,-0.034,-0.006,0.019,-0.041,0.005,-0.002,-1.571,-0.006,0.159,21.34,94.0,40.518887,-3.409928,620.3,4,5,324.5,0.0
21.79,1,0.038,-0.03,-0.014,-0.005,-0.011,-0.004,-1.566,-0.0,0.159,21.34,94.0,40.518887,-3.409928,620.3,4,5,324.5,0.0
21.89,1,0.009,-0.003,-0.013,0.012,-0.013,-0.009,-1.563,-0.0,0.159,21.34,94.0,40.518887,-3.409928,620.3,4,5,324.5,0.0
21.99,1,-0.008,-0.002,0.008,0.001,-0.005,-0.003,-1.562,0.003,0.157,21.34,94.0,40.518887,-3.409928,620.3,4,5,324.5,0.0
22.09,1,-0.011,0.011,-0.017,-0.006,0.001,-0.006,-1.56,0.009,0.154,21.34,94.0,40.518887,-3.409928,620.3,4,5,324.5,0.0
22.2,1,-0.012,0.001,0.005,-0.007,0.001,-0.006,-1.558,0.02,0.149,21.34,94.0,40.518887,-3.409928,620.3,4,5,324.5,0.0
22.29,1,-0.052,0.001,-0.033,-0.019,0.002,-0.015,-1.559,0.025,0.147,22.33,93.3,40.519077,-3.410102,620.7,4,5,324.5,0.0
22.39,1,-0.071,-0.012,0.017,-0.059,-0.001,-0.011,-1.566,0.031,0.148,22.33,93.3,40.519077,-3.410102,620.7,4,5,324.5,0.0
22.49,1,-0.014,-0.026,-0.012,-0.044,-0.014,0.004,-1.568,0.041,0.148,22.33,93.3,40.519077,-3.410102,620.7,4,5,324.5,0.0
22.59,1,0.016,-0.003,-0.014,-0.007,-0.012,-0.013,-1.565,0.037,0.149,22.33,93.3,40.519077,-3.410102,620.7,4,5,324.5,0.0
22.69,1,0.03,0.023,-0.012,0.013,0.001,-0.009,-1.564,0.034,0.149,22.33,93.3,40.519077,-3.410102,620.7,4,5,324.5,0.0
22.8,1,0.021,0.022,-0.005,0.018,0.017,-0.014,-1.559,0.024,0.148,22.33,93.3,40.519077,-3.410102,620.7,4,5,324.5,0.0
22.9,1,0.027,0.027,0.01,0.021,0.022,0.002,-1.557,0.015,0.147,22.33,93.3,40.519077,-3.410102,620.7,4,5,324.5,0.0
23.02,1,0.018,0.005,-0.03,0.028,0.016,-0.007,-1.551,0.008,0.146,22.33,93.3,40.519077,-3.410102,620.7,4,5,324.5,0.0
23.09,1,-0.035,0.008,-0.009,-0.003,0.012,-0.018,-1.549,0.007,0.147,22.33,93.3,40.519077,-3.410102,620.7,4,5,324.5,0.0
23.19,1,-0.037,-0.009,0.006,-0.024,0.0,-0.002,-1.554,0.007,0.147,22.33,93.3,40.519077,-3.410102,620.7,4,5,324.5,0.0
23.3,1,-0.04,-0.005,-0.01,-0.036,-0.001,-0.009,-1.555,0.005,0.146,23.34,92.9,40.519268,-3.410277,620.8,4,5,324.5,0.0
23.4,1,-0.026,0.011,0.001,-0.036,0.001,-0.001,-1.555,0.002,0.145,23.34,92.9,40.519268,-3.410277,620.8,4,5,324.5,0.0
23.5,1,0.013,-0.001,-0.018,-0.012,0.002,-0.006,-1.555,0.002,0.145,23.34,92.9,40.519268,-3.410277,620.8,4,5,324.5,0.0
23.6,1,0.027,0.005,-0.01,0.008,0.002,-0.014,-1.555,0.003,0.143,23.34,92.9,40.519268,-3.410277,620.8,4,5,324.5,0.0
23.7,1,0.02,0.011,-0.006,0.019,0.005,-0.005,-1.553,0.002,0.143,23.34,92.9,40.519268,-3.410277,620.8,4,5,324.5,0.0
23.8,1,0.007,-0.014,-0.01,0.018,0.0,-0.01,-1.55,0.003,0.143,23.34,92.9,40.519268,-3.410277,620.8,4,5,324.5,0.0
23.9,1,-0.043,-0.015,-0.017,-0.01,-0.008,-0.015,-1.553,0.008,0.143,23.34,92.9,40.519268,-3.410277,620.8,4,5,324.5,0.0
24.01,1,-0.072,-0.001,-0.004,-0.045,-0.009,-0.009,-1.556,0.009,0.144,23.34,92.9,40.519268,-3.410277,620.8,4,5,324.5,0.0
24.11,1,-0.03,-0.017,-0.017,-0.045,-0.009,-0.01,-1.555,0.009,0.144,23.34,92.9,40.519268,-3.410277,620.8,4,5,324.5,0.0
24.2,1,-0.008,0.003,-0.011,-0.027,-0.007,-0.013,-1.554,0.008,0.143,23.34,92.9,40.519268,-3.410277,620.8,4,5,324.5,0.0
24.3,1,0.01,0.011,0.022,-0.012,0.002,0.002,-1.552,0.008,0.143,24.33,92.7,40.519455,-3.410453,621.2,4,5,324.8,0.352
24.4,1,0.038,-0.01,-0.01,0.017,-0.001,0.003,-1.547,0.01,0.143,24.33,92.7,40.519455,-3.410453,621.2,4,5,324.8,0.352
24.5,1,0.018,-0.011,-0.014,0.025,-0.006,-0.009,-1.546,0.01,0.143,24.33,92.7,40.519455,-3.410453,621.2,4,5,324.8,0.352
24.6,1,-0.04,-0.011,0.003,-0.005,-0.011,-0.003,-1.551,0.012,0.144,24.33,92.7,40.519455,-3.410453,621.2,4,5,324.8,0.352
24.7,1,-0.033,-0.002,0.009,-0.026,-0.006,0.003,-1.552,0.012,0.144,24.33,92.7,40.519455,-3.410453,621.2,4,5,324.8,0.352
24.8,1,0.012,0.009,0.002,-0.014,0.003,0.002,-1.55,0.009,0.142,24.33,92.7,40.519455,-3.410453,621.2,4,5,324.8,0.352
24.9,1,0.024,0.003,-0.004,0.007,0.003,0.001,-1.549,0.011,0.143,24.33,92.7,40.519455,-3.410453,621.2,4,5,324.8,0.352
25.0,1,0.01,-0.018,-0.006,0.016,-0.004,-0.001,-1.548,0.013,0.143,24.33,92.7,40.519455,-3.410453,621.2,4,5,324.8,0.352
25.1,1,-0.037,-0.009,-0.014,-0.005,-0.007,-0.012,-1.548,0.015,0.143,24.33,92.7,40.519455,-3.410453,621.2,4,5,324.8,0.352
25.21,1,-0.043,-0.009,0.022,-0.033,-0.012,0.006,-1.552,0.016,0.143,24.33,92.7,40.519455,-3.410453,621.2,4,5,324.8,0.352
25.3,1,-0.023,-0.002,-0.001,-0.027,-0.01,0.006,-1.551,0.014,0.143,25.36,92.7,40.519646,-3.410628,621.3,6,5,324.8,0.352
25.4,1,-0.009,0.003,-0.014,-0.02,0.001,-0.005,-1.551,0.012,0.143,25.36,92.7,40.519646,-3.410628,621.3,6,5,324.8,0.352
25.5,1,0.013,-0.013,0.002,-0.002,-0.006,-0.004,-1.553,0.01,0.143,25.36,92.7,40.519646,-3.410628,621.3,6,5,324.8,0.352
25.6,1,0.007,-0.035,-0.005,0.003,-0.019,-0.0,-1.55,0.011,0.144,25.36,92.7,40.519646,-3.410628,621.3,6,5,324.8,0.352
25.7,1,-0.045,-0.033,-0.004,-0.015,-0.026,-0.006,-1.547,0.016,0.144,25.36,92.7,40.519646,-3.410628,621.3,6,5,324.8,0.352
25.8,1,-0.018,0.024,0.016,-0.022,-0.016,0.004,-1.548,0.017,0.144,25.36,92.7,40.519646,-3.410628,621.3,6,5,324.8,0.352
25.9,1,0.003,0.01,0.006,-0.015,0.006,0.003,-1.546,0.018,0.144,25.36,92.7,40.519646,-3.410628,621.3,6,5,324.8,0.352
26.0,1,0.03,-0.019,0.003,0.01,-0.002,0.011,-1.548,0.017,0.144,25.36,92.7,40.519646,-3.410628,621.3,6,5,324.8,0.352
26.1,1,0.06,-0.029,0.014,0.038,-0.018,0.006,-1.548,0.018,0.145,25.36,92.7,40.519646,-3.410628,621.3,6,5,324.8,0.352
26.21,1,-0.018,-0.002,-0.008,0.015,-0.013,0.0,-1.547,0.018,0.145,25.36,92.7,40.519646,-3.410628,621.3,6,5,324.8,0.352
26.3,1,-0.052,0.011,0.016,-0.024,0.002,0.006,-1.547,0.016,0.146,26.37,92.2,40.519836,-3.4108,621.9,4,5,324.5,0.352
26.4,1,-0.003,0.013,0.029,-0.024,0.008,0.016,-1.549,0.017,0.146,26.37,92.2,40.519836,-3.4108,621.9,4,5,324.5,0.352
26.51,1,0.013,0.0,0.005,0.007,0.003,0.02,-1.548,0.017,0.146,26.37,92.2,40.519836,-3.4108,621.9,4,5,324.5,0.352
26.6,1,-0.017,0.003,-0.027,-0.003,0.003,-0.005,-1.548,0.015,0.147,26.37,92.2,40.519836,-3.4108,621.9,4,5,324.5,0.352
26.71,1,0.013,0.011,0.037,-0.004,0.007,0.009,-1.552,0.016,0.147,26.37,92.2,40.519836,-3.4108,621.9,4,5,324.5,0.352
26.81,1,0.027,-0.004,-0.008,0.013,0.004,0.011,-1.553,0.018,0.147,26.37,92.2,40.519836,-3.4108,621.9,4,5,324.5,0.352
26.91,1,0.018,-0.018,-0.001,0.016,-0.01,-0.004,-1.555,0.017,0.148,26.37,92.2,40.519836,-3.4108,621.9,4,5,324.5,0.352
27.01,1,0.031,0.003,0.023,0.02,-0.008,0.012,-1.556,0.019,0.148,26.37,92.2,40.519836,-3.4108,621.9,4,5,324.5,0.352
27.11,1,-0.062,0.038,-0.035,-0.004,0.019,-0.006,-1.557,0.018,0.148,26.37,92.2,40.519836,-3.4108,621.9,4,5,324.5,0.352
27.21,1,-0.021,0.042,0.015,-0.029,0.033,-0.006,-1.559,0.018,0.147,26.37,92.2,40.519836,-3.4108,621.9,4,5,324.5,0.352
27.31,1,0.004,0.036,0.001,-0.006,0.034,0.007,-1.559,0.015,0.146,27.33,92.2,40.52002,-3.410976,622.5,4,5,324.1,0.703
27.41,1,-0.043,0.031,0.0,-0.024,0.034,-0.004,-1.558,0.014,0.144,27.33,92.2,40.52002,-3.410976,622.5,4,5,324.1,0.703
27.52,1,-0.009,0.037,-0.01,-0.024,0.037,-0.003,-1.557,0.012,0.143,27.33,92.2,40.52002,-3.410976,622.5,4,5,324.1,0.703
27.61,1,0.002,0.027,0.005,-0.006,0.032,-0.0,-1.556,0.01,0.142,27.33,92.2,40.52002,-3.410976,622.5,4,5,324.1,0.703
27.72,1,-0.015,0.021,0.012,-0.013,0.027,0.005,-1.557,0.011,0.142,27.33,92.2,40.52002,-3.410976,622.5,4,5,324.1,0.703
27.81,1,0.008,-0.025,-0.012,-0.002,0.005,0.004,-1.555,0.01,0.142,27.33,92.2,40.52002,-3.410976,622.5,4,5,324.1,0.703
27.91,1,-0.023,-0.005,0.01,-0.008,-0.004,-0.003,-1.555,0.01,0.141,27.33,92.2,40.52002,-3.410976,622.5,4,5,324.1,0.703
28.01,1,-0.005,0.031,0.026,-0.01,0.005,0.016,-1.555,0.009,0.141,27.33,92.2,40.52002,-3.410976,622.5,4,5,324.1,0.703
28.11,1,0.05,0.021,0.005,0.023,0.017,0.017,-1.555,0.007,0.141,27.33,92.2,40.52002,-3.410976,622.5,4,5,324.1,0.703
28.21,1,0.03,0.03,0.005,0.024,0.023,0.005,-1.553,0.005,0.141,27.33,92.2,40.52002,-3.410976,622.5,4,5,324.1,0.703
28.31,1,-0.002,-0.004,0.015,0.019,0.012,0.01,-1.557,0.009,0.141,28.37,91.5,40.520206,-3.411161,622.4,4,5,324.5,0.352
28.41,1,-0.081,-0.006,-0.004,-0.023,0.005,0.004,-1.557,0.01,0.141,28.37,91.5,40.520206,-3.411161,622.4,4,5,324.5,0.352
28.51,1,-0.104,-0.001,0.001,-0.069,0.001,0.005,-1.558,0.011,0.142,28.37,91.5,40.520206,-3.411161,622.4,4,5,324.5,0.352
28.61,1,-0.068,-0.041,0.005,-0.072,-0.019,0.005,-1.563,0.01,0.142,28.37,91.5,40.520206,-3.411161,622.4,4,5,324.5,0.352
28.72,1,-0.082,-0.005,-0.003,-0.085,-0.023,-0.008,-1.566,0.01,0.142,28.37,91.5,40.520206,-3.411161,622.4,4,5,324.5,0.352
28.81,1,-0.019,0.035,0.036,-0.054,0.013,0.023,-1.568,0.009,0.141,28.37,91.5,40.520206,-3.411161,622.4,4,5,324.5,0.352
28.92,1,0.008,-0.029,-0.057,-0.023,-0.001,-0.01,-1.569,0.006,0.142,28.37,91.5,40.520206,-3.411161,622.4,4,5,324.5,0.352
29.01,1,-0.047,-0.039,-0.037,-0.024,-0.025,-0.045,-1.571,0.008,0.143,28.37,91.5,40.520206,-3.411161,622.4,4,5,324.5,0.352
29.11,1,-0.01,-0.018,0.034,-0.038,-0.026,-0.006,-1.574,0.009,0.143,28.37,91.5,40.520206,-3.411161,622.4,4,5,324.5,0.352
29.21,1,0.058,0.005,0.013,0.015,-0.009,0.018,-1.57,0.01,0.143,28.37,91.5,40.520206,-3.411161,622.4,4,5,324.5,0.352
29.32,1,0.042,0.003,-0.028,0.039,-0.0,-0.007,-1.565,0.009,0.143,29.34,91.8,40.520382,-3.411326,622.7,4,5,324.5,0.352
29.41,1,0.041,-0.007,0.003,0.045,-0.002,-0.001,-1.562,0.01,0.143,29.34,91.8,40.520382,-3.411326,622.7,4,5,324.5,0.352
29.51,1,0.025,-0.014,0.018,0.036,-0.005,0.005,-1.56,0.012,0.143,29.34,91.8,40.520382,-3.411326,622.7,4,5,324.5,0.352
29.61,1,-0.052,-0.014,-0.013,-0.001,-0.011,0.001,-1.561,0.014,0.143,29.34,91.8,40.520382,-3.411326,622.7,4,5,324.5,0.352
29.71,1,-0.045,0.001,0.013,-0.033,-0.009,0.005,-1.563,0.014,0.143,29.34,91.8,40.520382,-3.411326,622.7,4,5,324.5,0.352
29.82,1,-0.026,0.007,0.034,-0.035,-0.001,0.015,-1.571,0.013,0.143,29.34,91.8,40.520382,-3.411326,622.7,4,5,324.5,0.352
29.92,1,0.052,0.021,0.005,-0.004,0.012,0.017,-1.572,0.012,0.143,29.34,91.8,40.520382,-3.411326,622.7,4,5,324.5,0.352
30.02,1,0.111,0.002,0.001,0.059,0.007,0.005,-1.571,0.015,0.143,29.34,91.8,40.520382,-3.411326,622.7,4,5,324.5,0.352
30.12,1,-0.004,0.003,-0.046,0.058,0.002,-0.015,-1.567,0.014,0.143,29.34,91.8,40.520382,-3.411326,622.7,4,5,324.5,0.352
30.22,1,-0.116,0.028,-0.025,-0.035,0.014,-0.027,-1.568,0.011,0.142,29.34,91.8,40.520382,-3.411326,622.7,4,5,324.5,0.352
30.32,1,-0.123,0.034,0.023,-0.096,0.03,-0.003,-1.572,0.01,0.142,30.34,92.2,40.520573,-3.411505,623.2,4,5,324.5,0.0
30.52,1,0.109,0.036,0.016,0.029,0.045,0.021,-1.57,0.012,0.141,30.34,92.2,40.520573,-3.411505,623.2,4,5,324.5,0.0
30.62,1,0.115,-0.021,0.011,0.082,0.011,0.012,-1.566,0.015,0.14,30.34,92.2,40.520573,-3.411505,623.2,4,5,324.5,0.0
30.72,1,0.041,0.007,-0.008,0.078,0.002,0.004,-1.565,0.015,0.139,30.34,92.2,40.520573,-3.411505,623.2,4,5,324.5,0.0
30.82,1,-0.05,0.009,0.001,0.014,0.005,-0.002,-1.566,0.012,0.138,30.34,92.2,40.520573,-3.411505,623.2,4,5,324.5,0.0
30.92,1,-0.085,0.022,0.008,-0.041,0.013,0.007,-1.57,0.006,0.137,30.34,92.2,40.520573,-3.411505,623.2,4,5,324.5,0.0
31.02,1,-0.085,0.003,-0.012,-0.07,0.013,-0.003,-1.575,0.003,0.137,30.34,92.2,40.520573,-3.411505,623.2,4,5,324.5,0.0
31.12,1,-0.037,-0.005,0.007,-0.064,0.003,-0.0,-1.579,0.002,0.137,30.34,92.2,40.520573,-3.411505,623.2,4,5,324.5,0.0
31.22,1,0.003,-0.015,-0.023,-0.027,-0.001,-0.005,-1.578,0.003,0.136,30.34,92.2,40.520573,-3.411505,623.2,4,5,324.5,0.0
31.33,1,0.034,0.012,0.004,0.006,-0.001,-0.006,-1.576,0.004,0.136,30.34,92.2,40.520573,-3.411505,623.2,4,5,324.5,0.0
31.42,1,-0.006,-0.012,-0.013,0.009,-0.005,-0.01,-1.577,0.004,0.136,31.34,93.3,40.520767,-3.411677,623.5,4,5,324.8,0.352
31.52,1,-0.013,0.003,-0.007,-0.006,-0.003,-0.003,-1.577,0.003,0.136,31.34,93.3,40.520767,-3.411677,623.5,4,5,324.8,0.352
31.63,1,-0.01,0.006,0.031,-0.008,-0.004,0.0,-1.578,0.003,0.136,31.34,93.3,40.520767,-3.411677,623.5,4,5,324.8,0.352
31.72,1,-0.016,-0.001,-0.005,-0.012,0.004,0.011,-1.574,0.003,0.135,31.34,93.3,40.520767,-3.411677,623.5,4,5,324.8,0.352
31.82,1,-0.029,-0.022,0.007,-0.022,-0.005,-0.001,-1.573,0.002,0.135,31.34,93.3,40.520767,-3.411677,623.5,4,5,324.8,0.352
31.92,1,0.003,-0.015,0.001,-0.012,-0.016,0.009,-1.573,0.005,0.135,31.34,93.3,40.520767,-3.411677,623.5,4,5,324.8,0.352
32.02,1,-0.019,0.004,0.003,-0.013,-0.005,0.003,-1.571,0.007,0.135,31.34,93.3,40.520767,-3.411677,623.5,4,5,324.8,0.352
32.13,1,-0.029,-0.002,0.001,-0.021,-0.003,0.003,-1.571,0.009,0.135,31.34,93.3,40.520767,-3.411677,623.5,4,5,324.8,0.352
32.22,1,-0.066,0.019,0.009,-0.045,0.008,0.004,-1.572,0.01,0.135,31.34,93.3,40.520767,-3.411677,623.5,4,5,324.8,0.352
32.33,1,-0.048,0.017,-0.013,-0.044,0.015,0.0,-1.572,0.01,0.135,31.34,93.3,40.520767,-3.411677,623.5,4,5,324.8,0.352
32.42,1,-0.003,-0.027,0.011,-0.025,-0.001,0.009,-1.57,0.013,0.136,32.36,93.3,40.520966,-3.411858,623.8,4,5,324.8,0.352
32.53,1,-0.026,-0.001,0.001,-0.019,-0.011,-0.001,-1.567,0.019,0.135,32.36,93.3,40.520966,-3.411858,623.8,4,5,324.8,0.352
32.62,1,-0.026,0.02,-0.005,-0.022,-0.001,0.002,-1.568,0.021,0.135,32.36,93.3,40.520966,-3.411858,623.8,4,5,324.8,0.352
32.72,1,-0.026,0.002,0.017,-0.032,0.008,-0.001,-1.568,0.022,0.136,32.36,93.3,40.520966,-3.411858,623.8,4,5,324.8,0.352
32.82,1,0.016,0.02,0.019,-0.015,0.016,0.016,-1.568,0.023,0.136,32.36,93.3,40.520966,-3.411858,623.8,4,5,324.8,0.352
32.93,1,0.011,-0.009,-0.047,0.004,0.008,-0.001,-1.567,0.025,0.137,32.36,93.3,40.520966,-3.411858,623.8,4,5,324.8,0.352
33.04,1,-0.081,-0.033,-0.006,-0.02,-0.015,-0.024,-1.568,0.027,0.138,32.36,93.3,40.520966,-3.411858,623.8,4,5,324.8,0.352
33.13,1,-0.043,-0.028,0.01,-0.055,-0.032,-0.012,-1.569,0.028,0.138,32.36,93.3,40.520966,-3.411858,623.8,4,5,324.8,0.352
33.23,1,0.045,-0.011,0.043,-0.005,-0.021,0.024,-1.573,0.029,0.138,32.36,93.3,40.520966,-3.411858,623.8,4,5,324.8,0.352
33.33,1,-0.023,0.01,-0.027,0.006,-0.005,0.005,-1.571,0.028,0.138,32.36,93.3,40.520966,-3.411858,623.8,4,5,324.8,0.352
33.43,1,-0.099,-0.009,0.01,-0.041,-0.001,-0.0,-1.569,0.028,0.139,33.39,95.4,40.52116,-3.412039,624.1,4,5,325.2,0.352
33.53,1,-0.108,0.006,-0.017,-0.099,0.003,-0.007,-1.572,0.028,0.139,33.39,95.4,40.52116,-3.412039,624.1,4,5,325.2,0.352
33.63,1,-0.045,-0.028,-0.007,-0.073,-0.01,-0.001,-1.574,0.029,0.14,33.39,95.4,40.52116,-3.412039,624.1,4,5,325.2,0.352
33.73,1,0.02,-0.01,0.009,-0.029,-0.016,-0.002,-1.571,0.029,0.14,33.39,95.4,40.52116,-3.412039,624.1,4,5,325.2,0.352
33.83,1,0.038,0.022,0.013,0.009,0.001,0.009,-1.57,0.027,0.14,33.39,95.4,40.52116,-3.412039,624.1,4,5,325.2,0.352
33.93,1,-0.009,0.026,-0.016,0.017,0.016,-0.005,-1.567,0.025,0.141,33.39,95.4,40.52116,-3.412039,624.1,4,5,325.2,0.352
34.03,1,-0.055,-0.009,0.01,-0.022,0.009,0.001,-1.569,0.028,0.142,33.39,95.4,40.52116,-3.412039,624.1,4,5,325.2,0.352
34.14,1,-0.057,-0.029,0.011,-0.046,-0.011,0.007,-1.57,0.032,0.143,33.39,95.4,40.52116,-3.412039,624.1,4,5,325.2,0.352
34.23,1,-0.024,-0.018,0.011,-0.04,-0.018,0.01,-1.569,0.034,0.143,33.39,95.4,40.52116,-3.412039,624.1,4,5,325.2,0.352
34.33,1,0.057,0.008,0.016,-0.001,-0.01,0.007,-1.567,0.032,0.142,33.39,95.4,40.52116,-3.412039,624.1,4,5,325.2,0.352
34.43,1,0.024,0.032,-0.003,0.028,0.015,0.011,-1.565,0.03,0.143,34.34,94.6,40.521362,-3.412218,624.8,4,5,324.8,0.352
34.53,1,-0.021,0.003,-0.007,0.01,0.016,-0.002,-1.563,0.03,0.144,34.34,94.6,40.521362,-3.412218,624.8,4,5,324.8,0.352
34.63,1,-0.067,0.001,0.007,-0.034,0.006,-0.003,-1.565,0.029,0.144,34.34,94.6,40.521362,-3.412218,624.8,4,5,324.8,0.352
34.74,1,-0.035,0.005,0.031,-0.041,0.002,0.021,-1.57,0.03,0.145,34.34,94.6,40.521362,-3.412218,624.8,4,5,324.8,0.352
34.83,1,-0.014,-0.013,-0.001,-0.028,-0.002,0.008,-1.568,0.03,0.145,34.34,94.6,40.521362,-3.412218,624.8,4,5,324.8,0.352
34.94,1,0.002,0.014,0.011,-0.012,0.001,0.012,-1.567,0.029,0.145,34.34,94.6,40.521362,-3.412218,624.8,4,5,324.8,0.352
35.03,1,-0.009,0.017,0.003,-0.007,0.012,0.006,-1.565,0.026,0.144,34.34,94.6,40.521362,-3.412218,624.8,4,5,324.8,0.352
35.13,1,-0.017,0.001,0.017,-0.007,0.007,0.01,-1.567,0.025,0.145,34.34,94.6,40.521362,-3.412218,624.8,4,5,324.8,0.352
35.23,1,0.01,0.015,0.013,-0.012,0.01,0.011,-1.567,0.024,0.145,34.34,94.6,40.521362,-3.412218,624.8,4,5,324.8,0.352
35.34,1,0.023,0.014,-0.023,0.012,0.013,0.002,-1.565,0.023,0.145,34.34,94.6,40.521362,-3.412218,624.8,4,5,324.8,0.352
35.44,1,-0.041,-0.001,0.01,-0.002,0.01,-0.004,-1.565,0.024,0.145,35.34,94.6,40.521557,-3.412398,625.4,4,5,324.5,0.703
35.53,1,-0.04,0.01,0.017,-0.031,0.004,0.009,-1.57,0.025,0.145,35.34,94.6,40.521557,-3.412398,625.4,4,5,324.5,0.703
35.63,1,-0.02,0.021,-0.011,-0.029,0.01,0.004,-1.57,0.023,0.145,35.34,94.6,40.521557,-3.412398,625.4,4,5,324.5,0.703
35.73,1,-0.002,0.012,0.02,-0.021,0.016,0.001,-1.568,0.025,0.145,35.34,94.6,40.521557,-3.412398,625.4,4,5,324.5,0.703
35.83,1,0.072,-0.009,0.038,0.015,0.005,0.02,-1.568,0.026,0.145,35.34,94.6,40.521557,-3.412398,625.4,4,5,324.5,0.703
35.94,1,-0.058,0.02,-0.009,0.009,0.006,0.016,-1.565,0.025,0.145,35.34,94.6,40.521557,-3.412398,625.4,4,5,324.5,0.703
36.04,1,-0.037,0.001,-0.004,-0.035,0.008,0.001,-1.566,0.025,0.144,35.34,94.6,40.521557,-3.412398,625.4,4,5,324.5,0.703
36.15,1,0.01,-0.001,0.032,-0.006,0.003,0.013,-1.568,0.023,0.144,35.34,94.6,40.521557,-3.412398,625.4,4,5,324.5,0.703
36.24,1,-0.059,0.014,-0.007,-0.026,0.005,0.011,-1.569,0.022,0.145,35.34,94.6,40.521557,-3.412398,625.4,4,5,324.5,0.703
36.34,1,-0.068,0.015,0.037,-0.053,0.013,0.016,-1.57,0.024,0.145,35.34,94.6,40.521557,-3.412398,625.4,4,5,324.5,0.703
36.44,1,0.037,-0.008,0.018,-0.02,0.004,0.021,-1.569,0.025,0.145,36.37,93.6,40.521736,-3.412566,625.9,4,5,324.5,0.352
36.54,1,-0.029,0.003,-0.018,-0.009,0.002,0.005,-1.568,0.023,0.145,36.37,93.6,40.521736,-3.412566,625.9,4,5,324.5,0.352
36.64,1,0.006,-0.005,0.024,-0.011,-0.003,0.006,-1.57,0.022,0.144,36.37,93.6,40.521736,-3.412566,625.9,4,5,324.5,0.352
36.75,1,-0.02,0.013,-0.002,-0.002,0.002,0.011,-1.573,0.021,0.145,36.37,93.6,40.521736,-3.412566,625.9,4,5,324.5,0.352
36.84,1,-0.029,-0.001,-0.002,-0.021,0.004,0.0,-1.574,0.021,0.145,36.37,93.6,40.521736,-3.412566,625.9,4,5,324.5,0.352
36.94,1,-0.001,-0.02,0.019,-0.016,-0.006,0.007,-1.576,0.021,0.145,36.37,93.6,40.521736,-3.412566,625.9,4,5,324.5,0.352
37.04,1,-0.018,-0.007,-0.013,-0.011,-0.013,0.005,-1.578,0.019,0.145,36.37,93.6,40.521736,-3.412566,625.9,4,5,324.5,0.352
37.14,1,-0.039,-0.022,-0.011,-0.022,-0.011,-0.007,-1.577,0.018,0.145,36.37,93.6,40.521736,-3.412566,625.9,4,5,324.5,0.352
37.24,1,-0.006,-0.01,0.015,-0.029,-0.012,0.005,-1.58,0.019,0.145,36.37,93.6,40.521736,-3.412566,625.9,4,5,324.5,0.352
37.35,1,0.031,0.003,0.001,0.007,-0.008,0.006,-1.581,0.02,0.145,36.37,93.6,40.521736,-3.412566,625.9,4,5,324.5,0.352
37.44,1,-0.013,-0.007,-0.023,0.005,-0.004,-0.014,-1.577,0.022,0.144,37.34,94.1,40.521919,-3.412734,626.5,4,5,324.5,0.0
37.54,1,-0.018,0.003,0.01,-0.009,-0.003,-0.005,-1.578,0.024,0.144,37.34,94.1,40.521919,-3.412734,626.5,4,5,324.5,0.0
37.64,1,-0.033,0.007,-0.017,-0.014,-0.001,-0.002,-1.579,0.026,0.144,37.34,94.1,40.521919,-3.412734,626.5,4,5,324.5,0.0
37.74,1,-0.035,-0.019,-0.017,-0.033,-0.003,-0.012,-1.578,0.027,0.144,37.34,94.1,40.521919,-3.412734,626.5,4,5,324.5,0.0
37.85,1,-0.017,0.013,-0.0,-0.027,0.001,-0.011,-1.576,0.023,0.144,37.34,94.1,40.521919,-3.412734,626.5,4,5,324.5,0.0
37.94,1,-0.031,-0.009,0.006,-0.029,-0.002,-0.001,-1.577,0.02,0.144,37.34,94.1,40.521919,-3.412734,626.5,4,5,324.5,0.0
38.05,1,0.008,-0.001,0.005,-0.011,-0.004,0.003,-1.578,0.02,0.143,37.34,94.1,40.521919,-3.412734,626.5,4,5,324.5,0.0
38.15,1,0.033,0.011,-0.005,0.008,0.004,-0.001,-1.578,0.017,0.143,37.34,94.1,40.521919,-3.412734,626.5,4,5,324.5,0.0
38.24,1,-0.026,0.007,-0.032,0.003,0.006,-0.014,-1.576,0.015,0.143,37.34,94.1,40.521919,-3.412734,626.5,4,5,324.5,0.0
38.35,1,-0.041,0.019,-0.009,-0.023,0.012,-0.016,-1.577,0.014,0.143,37.34,94.1,40.521919,-3.412734,626.5,4,5,324.5,0.0
38.44,1,-0.016,0.013,-0.012,-0.033,0.014,-0.013,-1.579,0.015,0.143,38.36,94.0,40.522106,-3.412912,627.1,4,5,324.5,0.0
38.56,1,0.024,-0.023,-0.006,0.005,-0.004,-0.007,-1.583,0.017,0.143,38.36,94.0,40.522106,-3.412912,627.1,4,5,324.5,0.0
38.65,1,-0.016,0.015,-0.021,-0.002,0.002,-0.017,-1.583,0.017,0.143,38.36,94.0,40.522106,-3.412912,627.1,4,5,324.5,0.0
38.74,1,-0.019,-0.008,0.017,-0.013,0.0,-0.001,-1.583,0.016,0.143,38.36,94.0,40.522106,-3.412912,627.1,4,5,324.5,0.0
38.84,1,-0.035,-0.026,-0.039,-0.024,-0.009,-0.012,-1.58,0.016,0.144,38.36,94.0,40.522106,-3.412912,627.1,4,5,324.5,0.0
38.94,1,-0.076,-0.016,0.001,-0.047,-0.018,-0.015,-1.579,0.018,0.144,38.36,94.0,40.522106,-3.412912,627.1,4,5,324.5,0.0
39.05,1,-0.03,0.007,0.012,-0.053,-0.009,0.0,-1.581,0.014,0.143,38.36,94.0,40.522106,-3.412912,627.1,4,5,324.5,0.0
39.15,1,-0.017,-0.006,-0.031,-0.023,-0.006,-0.007,-1.583,0.008,0.144,38.36,94.0,40.522106,-3.412912,627.1,4,5,324.5,0.0
39.25,1,-0.07,-0.015,-0.018,-0.044,-0.006,-0.023,-1.581,0.007,0.144,38.36,94.0,40.522106,-3.412912,627.1,4,5,324.5,0.0
39.35,1,-0.093,-0.026,-0.011,-0.075,-0.017,-0.012,-1.586,0.005,0.145,38.36,94.0,40.522106,-3.412912,627.1,4,5,324.5,0.0
39.45,1,-0.003,-0.044,-0.009,-0.048,-0.031,-0.009,-1.588,0.003,0.146,39.34,94.0,40.522297,-3.413091,627.8,4,5,324.5,0.0
39.56,1,0.01,-0.005,0.001,-0.009,-0.022,-0.013,-1.588,0.0,0.146,39.34,94.0,40.522297,-3.413091,627.8,4,5,324.5,0.0
39.65,1,0.009,0.002,0.026,0.0,-0.01,0.014,-1.588,-0.001,0.147,39.34,94.0,40.522297,-3.413091,627.8,4,5,324.5,0.0
39.75,1,0.008,-0.011,-0.012,0.006,-0.003,0.005,-1.586,-0.0,0.149,39.34,94.0,40.522297,-3.413091,627.8,4,5,324.5,0.0
39.85,1,-0.014,-0.05,-0.002,0.003,-0.029,-0.001,-1.586,0.003,0.151,39.34,94.0,40.522297,-3.413091,627.8,4,5,324.5,0.0
39.95,1,-0.032,-0.033,0.013,-0.019,-0.034,0.002,-1.586,0.006,0.152,39.34,94.0,40.522297,-3.413091,627.8,4,5,324.5,0.0
40.05,1,-0.012,-0.017,-0.023,-0.019,-0.021,-0.001,-1.591,0.007,0.153,39.34,94.0,40.522297,-3.413091,627.8,4,5,324.5,0.0
40.15,1,-0.048,-0.042,-0.0,-0.029,-0.032,-0.013,-1.592,0.008,0.155,39.34,94.0,40.522297,-3.413091,627.8,4,5,324.5,0.0
40.26,1,-0.022,-0.039,-0.008,-0.033,-0.036,0.004,-1.589,0.009,0.158,39.34,94.0,40.522297,-3.413091,627.8,4,5,324.5,0.0
40.35,1,0.06,-0.067,-0.016,0.015,-0.055,-0.017,-1.584,0.011,0.16,39.34,94.0,40.522297,-3.413091,627.8,4,5,324.5,0.0
40.46,1,-0.008,-0.063,0.005,0.008,-0.059,-0.01,-1.583,0.015,0.162,40.35,93.1,40.522484,-3.413265,628.8,4,5,324.5,0.0
40.55,1,0.002,-0.071,0.027,0.006,-0.064,0.013,-1.583,0.021,0.165,40.35,93.1,40.522484,-3.413265,628.8,4,5,324.5,0.0
40.65,1,-0.016,-0.055,-0.003,-0.005,-0.06,0.008,-1.58,0.022,0.168,40.35,93.1,40.522484,-3.413265,628.8,4,5,324.5,0.0
40.75,1,-0.035,-0.033,0.009,-0.021,-0.053,0.004,-1.578,0.024,0.17,40.35,93.1,40.522484,-3.413265,628.8,4,5,324.5,0.0
40.85,1,-0.053,-0.037,0.029,-0.033,-0.04,0.017,-1.578,0.027,0.174,40.35,93.1,40.522484,-3.413265,628.8,4,5,324.5,0.0
40.96,1,-0.025,-0.046,0.0,-0.04,-0.042,0.01,-1.578,0.03,0.177,40.35,93.1,40.522484,-3.413265,628.8,4,5,324.5,0.0
41.05,1,-0.004,-0.038,0.025,-0.021,-0.039,0.019,-1.579,0.032,0.18,40.35,93.1,40.522484,-3.413265,628.8,4,5,324.5,0.0
41.15,1,-0.034,-0.025,-0.002,-0.018,-0.034,0.012,-1.579,0.033,0.183,40.35,93.1,40.522484,-3.413265,628.8,4,5,324.5,0.0
41.25,1,-0.05,-0.019,0.005,-0.04,-0.023,0.006,-1.579,0.033,0.186,40.35,93.1,40.522484,-3.413265,628.8,4,5,324.5,0.0
41.35,1,-0.026,-0.045,0.04,-0.036,-0.036,0.015,-1.582,0.033,0.189,40.35,93.1,40.522484,-3.413265,628.8,4,5,324.5,0.0
41.45,1,-0.026,-0.05,0.016,-0.025,-0.041,0.025,-1.585,0.036,0.192,41.34,93.3,40.522663,-3.413459,629.8,4,5,322.7,1.758
41.55,1,-0.043,-0.014,0.018,-0.032,-0.035,0.016,-1.584,0.035,0.195,41.34,93.3,40.522663,-3.413459,629.8,4,5,322.7,1.758
41.69,1,-0.007,-0.021,0.023,-0.032,-0.022,0.025,-1.587,0.034,0.199,41.34,93.3,40.522663,-3.413459,629.8,4,5,322.7,1.758
41.76,1,0.017,-0.02,0.021,0.001,-0.023,0.024,-1.59,0.034,0.201,41.34,93.3,40.522663,-3.413459,629.8,4,5,322.7,1.758
41.85,1,0.0,-0.032,0.006,0.004,-0.027,0.012,-1.588,0.034,0.204,41.34,93.3,40.522663,-3.413459,629.8,4,5,322.7,1.758
41.95,1,0.008,-0.009,0.013,0.004,-0.019,0.013,-1.588,0.033,0.207,41.34,93.3,40.522663,-3.413459,629.8,4,5,322.7,1.758
42.06,1,-0.034,-0.009,-0.006,-0.009,-0.014,0.006,-1.588,0.033,0.211,41.34,93.3,40.522663,-3.413459,629.8,4,5,322.7,1.758
42.16,1,-0.067,0.008,-0.003,-0.046,-0.002,-0.003,-1.59,0.036,0.214,41.34,93.3,40.522663,-3.413459,629.8,4,5,322.7,1.758
42.26,1,0.022,-0.008,0.016,-0.025,-0.004,0.005,-1.591,0.037,0.217,41.34,93.3,40.522663,-3.413459,629.8,4,5,322.7,1.758
42.35,1,-0.001,-0.01,0.01,0.004,-0.007,0.013,-1.594,0.037,0.22,41.34,93.3,40.522663,-3.413459,629.8,4,5,322.7,1.758
42.46,1,-0.018,-0.003,-0.006,-0.012,-0.007,0.001,-1.597,0.037,0.223,42.34,94.8,40.522846,-3.413656,630.5,4,5,320.6,3.867
42.56,1,-0.046,-0.002,0.018,-0.025,-0.005,0.007,-1.6,0.035,0.227,42.34,94.8,40.522846,-3.413656,630.5,4,5,320.6,3.867
42.66,1,-0.023,-0.032,0.032,-0.026,-0.012,0.021,-1.601,0.035,0.23,42.34,94.8,40.522846,-3.413656,630.5,4,5,320.6,3.867
42.76,1,-0.03,-0.012,-0.011,-0.028,-0.02,0.013,-1.599,0.034,0.233,42.34,94.8,40.522846,-3.413656,630.5,4,5,320.6,3.867
42.87,1,-0.027,-0.009,0.005,-0.03,-0.012,-0.0,-1.597,0.03,0.236,42.34,94.8,40.522846,-3.413656,630.5,4,5,320.6,3.867
42.97,1,0.007,-0.017,-0.012,-0.014,-0.012,-0.003,-1.597,0.026,0.24,42.34,94.8,40.522846,-3.413656,630.5,4,5,320.6,3.867
43.06,1,-0.027,-0.014,-0.005,-0.008,-0.014,-0.002,-1.599,0.026,0.243,42.34,94.8,40.522846,-3.413656,630.5,4,5,320.6,3.867
43.16,1,-0.025,-0.024,0.01,-0.023,-0.018,-0.005,-1.6,0.027,0.247,42.34,94.8,40.522846,-3.413656,630.5,4,5,320.6,3.867
43.26,1,0.015,-0.038,-0.005,-0.012,-0.03,0.001,-1.601,0.029,0.251,42.34,94.8,40.522846,-3.413656,630.5,4,5,320.6,3.867
43.36,1,0.005,-0.032,-0.002,0.004,-0.034,-0.005,-1.599,0.03,0.254,42.34,94.8,40.522846,-3.413656,630.5,4,5,320.6,3.867
43.46,1,0.008,-0.027,0.006,0.004,-0.028,0.005,-1.598,0.027,0.257,43.34,94.1,40.523033,-3.413853,631.5,4,5,318.2,4.57
43.56,1,0.036,-0.005,0.006,0.017,-0.021,0.005,-1.598,0.024,0.261,43.34,94.1,40.523033,-3.413853,631.5,4,5,318.2,4.57
43.66,1,-0.02,0.016,0.002,0.008,-0.002,0.001,-1.598,0.023,0.265,43.34,94.1,40.523033,-3.413853,631.5,4,5,318.2,4.57
43.76,1,0.003,0.003,0.021,-0.005,0.01,0.013,-1.597,0.022,0.269,43.34,94.1,40.523033,-3.413853,631.5,4,5,318.2,4.57
43.87,1,-0.014,-0.035,-0.009,-0.0,-0.015,0.008,-1.595,0.024,0.272,43.34,94.1,40.523033,-3.413853,631.5,4,5,318.2,4.57
43.96,1,-0.029,-0.027,-0.013,-0.018,-0.022,-0.01,-1.596,0.023,0.275,43.34,94.1,40.523033,-3.413853,631.5,4,5,318.2,4.57
44.07,1,0.033,0.018,0.023,-0.001,-0.012,0.002,-1.598,0.023,0.278,43.34,94.1,40.523033,-3.413853,631.5,4,5,318.2,4.57
44.17,1,0.071,0.051,-0.003,0.034,0.026,0.009,-1.592,0.023,0.281,43.34,94.1,40.523033,-3.413853,631.5,4,5,318.2,4.57
44.26,1,0.005,-0.004,-0.011,0.041,0.015,-0.001,-1.591,0.025,0.285,43.34,94.1,40.523033,-3.413853,631.5,4,5,318.2,4.57
44.37,1,-0.083,0.001,-0.02,-0.017,0.005,-0.01,-1.595,0.025,0.288,43.34,94.1,40.523033,-3.413853,631.5,4,5,318.2,4.57
44.46,1,-0.119,-0.009,0.007,-0.076,0.001,-0.006,-1.598,0.025,0.291,44.36,95.4,40.523216,-3.41407,632.7,6,5,316.1,4.57
44.56,1,-0.096,0.009,0.027,-0.101,0.005,0.008,-1.601,0.025,0.294,44.36,95.4,40.523216,-3.41407,632.7,6,5,316.1,4.57
44.66,1,0.006,-0.009,0.014,-0.058,-0.002,0.016,-1.602,0.023,0.297,44.36,95.4,40.523216,-3.41407,632.7,6,5,316.1,4.57
44.76,1,0.017,-0.005,-0.004,-0.008,-0.006,0.005,-1.6,0.022,0.3,44.36,95.4,40.523216,-3.41407,632.7,6,5,316.1,4.57
44.86,1,0.051,0.004,0.009,0.017,-0.0,0.006,-1.599,0.021,0.302,44.36,95.4,40.523216,-3.41407,632.7,6,5,316.1,4.57
44.96,1,0.071,0.001,0.01,0.053,-0.002,0.012,-1.596,0.02,0.304,44.36,95.4,40.523216,-3.41407,632.7,6,5,316.1,4.57
45.07,1,-0.061,0.003,-0.051,0.015,0.003,-0.019,-1.593,0.018,0.308,44.36,95.4,40.523216,-3.41407,632.7,6,5,316.1,4.57
45.16,1,-0.084,-0.008,0.002,-0.053,0.001,-0.017,-1.594,0.018,0.31,44.36,95.4,40.523216,-3.41407,632.7,6,5,316.1,4.57
45.27,1,-0.024,-0.013,0.047,-0.045,-0.008,0.015,-1.595,0.02,0.313,44.36,95.4,40.523216,-3.41407,632.7,6,5,316.1,4.57
45.38,1,-0.015,-0.033,-0.018,-0.026,-0.026,0.002,-1.595,0.02,0.316,44.36,95.4,40.523216,-3.41407,632.7,6,5,316.1,4.57
45.46,1,-0.055,-0.003,0.048,-0.038,-0.02,0.02,-1.596,0.02,0.319,45.42,95.5,40.523399,-3.414298,633.6,4,5,313.9,4.219
45.57,1,-0.021,0.035,-0.007,-0.035,0.013,0.02,-1.596,0.02,0.322,45.42,95.5,40.523399,-3.414298,633.6,4,5,313.9,4.219
45.67,1,0.041,0.005,-0.015,0.011,0.015,-0.0,-1.597,0.021,0.325,45.42,95.5,40.523399,-3.414298,633.6,4,5,313.9,4.219
45.77,1,0.029,0.012,0.002,0.023,0.007,-0.003,-1.597,0.02,0.328,45.42,95.5,40.523399,-3.414298,633.6,4,5,313.9,4.219
45.87,1,-0.007,0.009,0.004,0.004,0.01,-0.003,-1.593,0.018,0.331,45.42,95.5,40.523399,-3.414298,633.6,4,5,313.9,4.219
45.97,1,0.001,-0.003,0.015,0.001,0.005,0.007,-1.594,0.015,0.333,45.42,95.5,40.523399,-3.414298,633.6,4,5,313.9,4.219
46.07,1,0.023,0.007,0.03,0.008,0.006,0.016,-1.595,0.015,0.336,45.42,95.5,40.523399,-3.414298,633.6,4,5,313.9,4.219
46.17,1,0.039,-0.018,-0.007,0.025,-0.001,0.014,-1.594,0.017,0.339,45.42,95.5,40.523399,-3.414298,633.6,4,5,313.9,4.219
46.27,1,0.027,-0.0,0.01,0.035,-0.006,0.006,-1.592,0.02,0.341,45.42,95.5,40.523399,-3.414298,633.6,4,5,313.9,4.219
46.37,1,-0.006,0.01,0.036,0.01,0.001,0.019,-1.592,0.02,0.344,45.42,95.5,40.523399,-3.414298,633.6,4,5,313.9,4.219
46.48,1,-0.017,0.015,-0.03,-0.003,0.009,0.002,-1.59,0.023,0.347,46.34,96.9,40.523567,-3.414539,634.6,6,5,312.2,3.867
46.58,1,0.005,0.01,0.016,-0.004,0.009,-0.001,-1.59,0.02,0.349,46.34,96.9,40.523567,-3.414539,634.6,6,5,312.2,3.867
46.67,1,0.007,0.004,0.007,0.001,0.009,0.008,-1.59,0.018,0.351,46.34,96.9,40.523567,-3.414539,634.6,6,5,312.2,3.867
46.77,1,0.002,0.005,-0.005,0.004,0.007,0.001,-1.591,0.018,0.354,46.34,96.9,40.523567,-3.414539,634.6,6,5,312.2,3.867
46.87,1,0.002,0.028,0.028,-0.001,0.018,0.012,-1.591,0.011,0.356,46.34,96.9,40.523567,-3.414539,634.6,6,5,312.2,3.867
46.97,1,-0.005,0.016,0.021,0.01,0.013,0.021,-1.593,0.012,0.359,46.34,96.9,40.523567,-3.414539,634.6,6,5,312.2,3.867
47.07,1,0.002,-0.009,0.004,0.001,0.003,0.016,-1.592,0.014,0.361,46.34,96.9,40.523567,-3.414539,634.6,6,5,312.2,3.867
47.17,1,-0.036,0.011,0.008,-0.02,0.006,0.003,-1.593,0.017,0.364,46.34,96.9,40.523567,-3.414539,634.6,6,5,312.2,3.867
47.27,1,0.046,-0.003,0.017,0.002,0.005,0.016,-1.594,0.019,0.367,46.34,96.9,40.523567,-3.414539,634.6,6,5,312.2,3.867
47.37,1,0.018,0.024,-0.008,0.024,0.009,0.004,-1.591,0.023,0.369,46.34,96.9,40.523567,-3.414539,634.6,6,5,312.2,3.867
47.47,1,-0.0,0.022,0.03,0.007,0.019,0.007,-1.593,0.024,0.372,47.35,96.7,40.523731,-3.414781,635.8,6,5,310.1,3.867
47.57,1,0.006,-0.02,-0.004,0.01,0.004,0.016,-1.593,0.025,0.375,47.35,96.7,40.523731,-3.414781,635.8,6,5,310.1,3.867
47.67,1,-0.022,0.013,0.013,-0.001,0.002,0.006,-1.59,0.026,0.377,47.35,96.7,40.523731,-3.414781,635.8,6,5,310.1,3.867
47.77,1,-0.006,-0.002,0.046,-0.012,0.006,0.019,-1.594,0.025,0.38,47.35,96.7,40.523731,-3.414781,635.8,6,5,310.1,3.867
47.87,1,0.061,-0.035,0.02,0.012,-0.018,0.033,-1.593,0.028,0.383,47.35,96.7,40.523731,-3.414781,635.8,6,5,310.1,3.867
47.97,1,-0.001,-0.035,-0.013,0.022,-0.026,0.009,-1.588,0.029,0.387,47.35,96.7,40.523731,-3.414781,635.8,6,5,310.1,3.867
48.07,1,0.051,-0.041,0.036,0.035,-0.037,0.013,-1.586,0.031,0.39,47.35,96.7,40.523731,-3.414781,635.8,6,5,310.1,3.867
48.17,1,0.001,-0.029,-0.007,0.019,-0.039,0.011,-1.586,0.032,0.394,47.35,96.7,40.523731,-3.414781,635.8,6,5,310.1,3.867
48.27,1,-0.079,0.007,0.012,-0.021,-0.019,0.008,-1.587,0.031,0.397,47.35,96.7,40.523731,-3.414781,635.8,6,5,310.1,3.867
48.37,1,-0.046,0.022,0.006,-0.046,0.01,0.013,-1.59,0.033,0.399,47.35,96.7,40.523731,-3.414781,635.8,6,5,310.1,3.867
48.47,1,0.032,0.021,0.036,-0.015,0.015,0.01,-1.589,0.034,0.401,48.36,97.1,40.52388,-3.415034,636.8,6,5,307.6,4.57
48.57,1,0.01,0.048,-0.02,0.004,0.029,0.009,-1.59,0.029,0.404,48.36,97.1,40.52388,-3.415034,636.8,6,5,307.6,4.57
48.67,1,0.007,0.027,0.005,0.004,0.037,-0.001,-1.589,0.026,0.406,48.36,97.1,40.52388,-3.415034,636.8,6,5,307.6,4.57
48.78,1,-0.014,0.038,0.029,0.008,0.031,0.018,-1.59,0.024,0.407,48.36,97.1,40.52388,-3.415034,636.8,6,5,307.6,4.57
48.88,1,-0.012,0.038,-0.006,-0.012,0.039,0.009,-1.59,0.022,0.409,48.36,97.1,40.52388,-3.415034,636.8,6,5,307.6,4.57
48.98,1,0.003,0.066,0.029,-0.017,0.05,0.014,-1.591,0.024,0.41,48.36,97.1,40.52388,-3.415034,636.8,6,5,307.6,4.57
49.08,1,-0.027,0.019,-0.016,-0.0,0.042,0.01,-1.591,0.024,0.411,48.36,97.1,40.52388,-3.415034,636.8,6,5,307.6,4.57
49.18,1,-0.024,0.031,0.008,-0.02,0.026,-0.005,-1.59,0.024,0.412,48.36,97.1,40.52388,-3.415034,636.8,6,5,307.6,4.57
49.28,1,-0.02,0.016,0.002,-0.02,0.027,0.009,-1.591,0.024,0.414,48.36,97.1,40.52388,-3.415034,636.8,6,5,307.6,4.57
49.38,1,-0.048,0.029,-0.002,-0.036,0.027,-0.0,-1.592,0.023,0.416,48.36,97.1,40.52388,-3.415034,636.8,6,5,307.6,4.57
49.48,1,0.031,-0.008,0.026,-0.015,0.007,0.008,-1.592,0.02,0.417,49.35,98.3,40.524025,-3.415292,637.3,4,5,306.2,3.867
49.58,1,0.008,0.023,-0.013,0.015,0.009,0.003,-1.589,0.018,0.418,49.35,98.3,40.524025,-3.415292,637.3,4,5,306.2,3.867
49.68,1,0.033,0.029,0.017,0.014,0.025,0.004,-1.589,0.017,0.419,49.35,98.3,40.524025,-3.415292,637.3,4,5,306.2,3.867
49.78,1,0.025,0.015,-0.001,0.027,0.023,0.012,-1.591,0.016,0.421,49.35,98.3,40.524025,-3.415292,637.3,4,5,306.2,3.867
49.88,1,0.018,0.026,-0.011,0.019,0.025,-0.006,-1.59,0.016,0.422,49.35,98.3,40.524025,-3.415292,637.3,4,5,306.2,3.867
49.98,1,-0.024,0.011,-0.009,-0.001,0.017,-0.008,-1.589,0.015,0.424,49.35,98.3,40.524025,-3.415292,637.3,4,5,306.2,3.867
50.09,1,-0.009,0.016,0.029,-0.008,0.013,0.009,-1.592,0.013,0.426,49.35,98.3,40.524025,-3.415292,637.3,4,5,306.2,3.867
50.19,1,0.034,-0.022,-0.002,0.01,0.001,0.003,-1.593,0.014,0.427,49.35,98.3,40.524025,-3.415292,637.3,4,5,306.2,3.867
50.28,1,0.071,-0.02,0.012,0.04,-0.014,0.014,-1.592,0.017,0.429,49.35,98.3,40.524025,-3.415292,637.3,4,5,306.2,3.867
50.48,1,-0.012,0.002,0.002,0.006,-0.009,0.011,-1.592,0.019,0.432,49.35,98.3,40.524025,-3.415292,637.3,4,5,306.2,3.867
50.58,1,-0.02,-0.011,0.031,-0.02,-0.007,0.017,-1.595,0.019,0.434,50.35,99.9,40.524174,-3.415573,638.0,4,5,303.8,3.867
50.69,1,0.027,-0.013,-0.003,0.017,-0.011,0.017,-1.597,0.018,0.436,50.35,99.9,40.524174,-3.415573,638.0,4,5,303.8,3.867
50.79,1,0.011,0.021,-0.004,0.014,-0.001,-0.003,-1.597,0.017,0.437,50.35,99.9,40.524174,-3.415573,638.0,4,5,303.8,3.867
50.88,1,0.009,0.014,0.01,0.008,0.014,0.002,-1.597,0.02,0.439,50.35,99.9,40.524174,-3.415573,638.0,4,5,303.8,3.867
50.99,1,-0.018,0.002,-0.03,0.003,0.005,-0.004,-1.597,0.021,0.441,50.35,99.9,40.524174,-3.415573,638.0,4,5,303.8,3.867
51.08,1,-0.051,-0.0,-0.016,-0.03,0.004,-0.021,-1.598,0.021,0.442,50.35,99.9,40.524174,-3.415573,638.0,4,5,303.8,3.867
51.18,1,0.014,-0.013,0.007,-0.013,-0.002,-0.003,-1.6,0.021,0.443,50.35,99.9,40.524174,-3.415573,638.0,4,5,303.8,3.867
51.29,1,0.053,0.02,0.002,0.019,0.005,0.0,-1.598,0.021,0.444,50.35,99.9,40.524174,-3.415573,638.0,4,5,303.8,3.867
51.39,1,0.035,0.015,-0.021,0.032,0.012,-0.009,-1.597,0.023,0.446,50.35,99.9,40.524174,-3.415573,638.0,4,5,303.8,3.867
51.48,1,0.0,-0.007,0.003,0.015,0.004,-0.007,-1.595,0.023,0.447,50.35,99.9,40.524174,-3.415573,638.0,4,5,303.8,3.867
51.59,1,-0.033,-0.011,0.029,-0.007,-0.004,0.009,-1.596,0.023,0.449,51.41,100.8,40.524307,-3.415846,638.6,4,5,301.6,4.57
51.69,1,-0.012,-0.013,-0.007,-0.011,-0.009,0.005,-1.596,0.025,0.45,51.41,100.8,40.524307,-3.415846,638.6,4,5,301.6,4.57
51.79,1,-0.075,-0.025,-0.019,-0.038,-0.02,-0.004,-1.595,0.025,0.452,51.41,100.8,40.524307,-3.415846,638.6,4,5,301.6,4.57
51.88,1,-0.031,-0.03,-0.015,-0.045,-0.019,-0.013,-1.595,0.026,0.453,51.41,100.8,40.524307,-3.415846,638.6,4,5,301.6,4.57
51.99,1,-0.004,0.002,-0.025,-0.027,-0.016,-0.018,-1.593,0.027,0.454,51.41,100.8,40.524307,-3.415846,638.6,4,5,301.6,4.57
52.09,1,0.008,-0.005,-0.03,-0.007,-0.009,-0.022,-1.589,0.026,0.456,51.41,100.8,40.524307,-3.415846,638.6,4,5,301.6,4.57
52.19,1,0.003,-0.02,-0.038,0.003,-0.009,-0.035,-1.585,0.029,0.458,51.41,100.8,40.524307,-3.415846,638.6,4,5,301.6,4.57
52.29,1,-0.033,-0.046,-0.028,-0.013,-0.028,-0.029,-1.581,0.036,0.461,51.41,100.8,40.524307,-3.415846,638.6,4,5,301.6,4.57
52.39,1,-0.008,-0.035,-0.039,-0.012,-0.037,-0.035,-1.577,0.04,0.463,51.41,100.8,40.524307,-3.415846,638.6,4,5,301.6,4.57
52.49,1,0.012,-0.033,-0.047,-0.004,-0.033,-0.042,-1.569,0.044,0.465,51.41,100.8,40.524307,-3.415846,638.6,4,5,301.6,4.57
52.59,1,-0.013,-0.027,-0.039,-0.001,-0.031,-0.038,-1.566,0.046,0.467,52.35,101.8,40.524433,-3.416128,639.1,4,5,299.2,4.57
52.69,1,-0.025,-0.021,-0.068,-0.014,-0.027,-0.056,-1.565,0.045,0.469,52.35,101.8,40.524433,-3.416128,639.1,4,5,299.2,4.57
52.79,1,0.018,-0.012,-0.071,-0.001,-0.018,-0.063,-1.561,0.042,0.471,52.35,101.8,40.524433,-3.416128,639.1,4,5,299.2,4.57
52.89,1,0.034,-0.024,-0.076,0.013,-0.022,-0.066,-1.553,0.046,0.473,52.35,101.8,40.524433,-3.416128,639.1,4,5,299.2,4.57
53.0,1,-0.004,-0.017,-0.07,0.012,-0.017,-0.072,-1.548,0.047,0.475,52.35,101.8,40.524433,-3.416128,639.1,4,5,299.2,4.57
53.09,1,0.002,-0.027,-0.055,0.003,-0.023,-0.067,-1.542,0.046,0.477,52.35,101.8,40.524433,-3.416128,639.1,4,5,299.2,4.57
53.19,1,0.01,-0.017,-0.051,0.007,-0.023,-0.053,-1.54,0.047,0.478,52.35,101.8,40.524433,-3.416128,639.1,4,5,299.2,4.57
53.29,1,0.053,-0.013,-0.029,0.027,-0.021,-0.048,-1.538,0.045,0.48,52.35,101.8,40.524433,-3.416128,639.1,4,5,299.2,4.57
53.39,1,0.015,-0.019,-0.041,0.029,-0.014,-0.034,-1.534,0.046,0.482,52.35,101.8,40.524433,-3.416128,639.1,4,5,299.2,4.57
53.49,1,-0.027,0.004,-0.018,0.005,-0.012,-0.034,-1.532,0.046,0.483,52.35,101.8,40.524433,-3.416128,639.1,4,5,299.2,4.57
53.59,1,-0.045,-0.003,-0.022,-0.029,-0.0,-0.025,-1.53,0.048,0.485,53.4,100.9,40.524551,-3.416423,639.0,4,5,296.4,5.273
53.69,1,-0.044,-0.01,-0.006,-0.04,-0.006,-0.015,-1.527,0.049,0.486,53.4,100.9,40.524551,-3.416423,639.0,4,5,296.4,5.273
53.8,1,0.028,-0.004,-0.007,-0.013,-0.007,-0.01,-1.527,0.047,0.488,53.4,100.9,40.524551,-3.416423,639.0,4,5,296.4,5.273
53.89,1,0.059,0.009,-0.012,0.03,0.002,-0.009,-1.525,0.047,0.489,53.4,100.9,40.524551,-3.416423,639.0,4,5,296.4,5.273
53.99,1,0.032,-0.006,-0.03,0.036,0.001,-0.019,-1.52,0.046,0.491,53.4,100.9,40.524551,-3.416423,639.0,4,5,296.4,5.273
54.09,1,-0.002,0.003,-0.007,0.021,-0.001,-0.013,-1.518,0.046,0.492,53.4,100.9,40.524551,-3.416423,639.0,4,5,296.4,5.273
54.22,1,-0.026,0.005,0.013,-0.008,0.006,-0.003,-1.515,0.045,0.494,53.4,100.9,40.524551,-3.416423,639.0,4,5,296.4,5.273
54.29,1,-0.027,0.011,0.006,-0.019,0.005,0.005,-1.514,0.046,0.496,53.4,100.9,40.524551,-3.416423,639.0,4,5,296.4,5.273
54.4,1,0.014,-0.006,-0.003,-0.006,0.002,-0.0,-1.512,0.044,0.497,53.4,100.9,40.524551,-3.416423,639.0,4,5,296.4,5.273
54.5,1,0.003,-0.005,-0.003,0.002,-0.003,-0.003,-1.508,0.044,0.498,53.4,100.9,40.524551,-3.416423,639.0,4,5,296.4,5.273
54.59,1,0.002,0.021,-0.029,0.005,0.006,-0.013,-1.501,0.044,0.499,54.42,99.8,40.524654,-3.416723,638.7,4,5,294.3,4.922
54.69,1,-0.027,0.016,-0.001,-0.013,0.011,-0.019,-1.499,0.045,0.5,54.42,99.8,40.524654,-3.416723,638.7,4,5,294.3,4.922
54.8,1,0.035,0.01,0.018,0.001,0.014,0.012,-1.494,0.047,0.501,54.42,99.8,40.524654,-3.416723,638.7,4,5,294.3,4.922
54.89,1,0.054,0.006,0.022,0.033,0.011,0.011,-1.493,0.046,0.502,54.42,99.8,40.524654,-3.416723,638.7,4,5,294.3,4.922
54.99,1,0.038,0.006,0.001,0.046,0.005,0.013,-1.492,0.046,0.503,54.42,99.8,40.524654,-3.416723,638.7,4,5,294.3,4.922
55.09,1,-0.039,0.03,0.002,0.008,0.016,0.003,-1.489,0.044,0.505,54.42,99.8,40.524654,-3.416723,638.7,4,5,294.3,4.922
55.2,1,-0.025,0.028,0.005,-0.017,0.025,0.006,-1.488,0.042,0.506,54.42,99.8,40.524654,-3.416723,638.7,4,5,294.3,4.922
55.3,1,0.011,0.012,0.042,-0.004,0.019,0.015,-1.487,0.041,0.507,54.42,99.8,40.524654,-3.416723,638.7,4,5,294.3,4.922
55.4,1,0.009,0.021,-0.015,0.002,0.02,0.017,-1.486,0.039,0.508,54.42,99.8,40.524654,-3.416723,638.7,4,5,294.3,4.922
55.5,1,-0.03,0.035,0.011,-0.01,0.024,0.001,-1.488,0.037,0.508,54.42,99.8,40.524654,-3.416723,638.7,4,5,294.3,4.922
55.6,1,-0.06,0.025,-0.022,-0.036,0.027,-0.003,-1.49,0.037,0.509,55.35,97.8,40.52475,-3.417015,638.4,3,5,291.4,4.922
55.7,1,-0.036,0.003,-0.008,-0.053,0.019,-0.013,-1.491,0.04,0.509,55.35,97.8,40.52475,-3.417015,638.4,3,5,291.4,4.922
55.8,1,0.012,0.016,0.02,-0.01,0.012,0.006,-1.491,0.04,0.509,55.35,97.8,40.52475,-3.417015,638.4,3,5,291.4,4.922
55.9,1,-0.008,0.029,-0.021,-0.004,0.019,-0.004,-1.491,0.041,0.509,55.35,97.8,40.52475,-3.417015,638.4,3,5,291.4,4.922
56.0,1,0.035,0.009,-0.021,0.015,0.017,-0.017,-1.488,0.043,0.509,55.35,97.8,40.52475,-3.417015,638.4,3,5,291.4,4.922
56.1,1,-0.048,0.016,-0.001,-0.007,0.016,-0.008,-1.489,0.044,0.508,55.35,97.8,40.52475,-3.417015,638.4,3,5,291.4,4.922
56.2,1,-0.11,0.06,-0.014,-0.06,0.035,-0.01,-1.49,0.04,0.508,55.35,97.8,40.52475,-3.417015,638.4,3,5,291.4,4.922
56.3,1,-0.02,0.046,0.027,-0.064,0.044,0.001,-1.494,0.038,0.507,55.35,97.8,40.52475,-3.417015,638.4,3,5,291.4,4.922
56.4,1,0.098,0.028,0.019,0.015,0.034,0.022,-1.496,0.04,0.507,55.35,97.8,40.52475,-3.417015,638.4,3,5,291.4,4.922
56.5,1,0.133,0.021,-0.017,0.091,0.023,-0.001,-1.491,0.041,0.505,55.35,97.8,40.52475,-3.417015,638.4,3,5,291.4,4.922
56.6,1,0.046,0.047,-0.021,0.081,0.042,-0.011,-1.486,0.038,0.504,56.35,96.8,40.52483,-3.417312,637.7,3,5,289.3,4.922
56.7,1,-0.116,0.052,-0.02,0.002,0.051,-0.012,-1.484,0.034,0.503,56.35,96.8,40.52483,-3.417312,637.7,3,5,289.3,4.922
56.81,1,-0.147,0.006,-0.006,-0.096,0.034,-0.019,-1.487,0.035,0.502,56.35,96.8,40.52483,-3.417312,637.7,3,5,289.3,4.922
56.91,1,-0.092,0.004,0.034,-0.11,0.012,0.009,-1.489,0.036,0.501,56.35,96.8,40.52483,-3.417312,637.7,3,5,289.3,4.922
57.0,1,-0.044,0.014,-0.007,-0.082,0.007,0.011,-1.491,0.033,0.5,56.35,96.8,40.52483,-3.417312,637.7,3,5,289.3,4.922
57.1,1,0.052,0.059,0.029,-0.025,0.03,0.011,-1.489,0.029,0.498,56.35,96.8,40.52483,-3.417312,637.7,3,5,289.3,4.922
57.2,1,0.077,0.047,-0.016,0.041,0.045,0.008,-1.49,0.022,0.497,56.35,96.8,40.52483,-3.417312,637.7,3,5,289.3,4.922
57.31,1,-0.021,0.053,-0.02,0.031,0.046,-0.012,-1.489,0.018,0.495,56.35,96.8,40.52483,-3.417312,637.7,3,5,289.3,4.922
57.4,1,-0.095,0.049,-0.01,-0.033,0.056,-0.017,-1.49,0.019,0.493,56.35,96.8,40.52483,-3.417312,637.7,3,5,289.3,4.922
57.5,1,-0.065,0.02,0.012,-0.067,0.037,-0.001,-1.489,0.015,0.492,56.35,96.8,40.52483,-3.417312,637.7,3,5,289.3,4.922
57.6,1,-0.009,-0.002,0.009,-0.041,0.016,0.009,-1.488,0.013,0.49,57.35,95.7,40.524906,-3.417613,636.9,3,5,287.9,3.516
57.7,1,-0.017,0.01,0.001,-0.013,0.008,0.001,-1.487,0.014,0.488,57.35,95.7,40.524906,-3.417613,636.9,3,5,287.9,3.516
57.8,1,-0.053,0.035,0.003,-0.031,0.02,0.008,-1.489,0.009,0.486,57.35,95.7,40.524906,-3.417613,636.9,3,5,287.9,3.516
57.91,1,-0.071,0.021,-0.028,-0.065,0.024,-0.014,-1.491,0.004,0.485,57.35,95.7,40.524906,-3.417613,636.9,3,5,287.9,3.516
58.01,1,0.006,0.043,0.025,-0.036,0.031,0.005,-1.492,0.002,0.483,57.35,95.7,40.524906,-3.417613,636.9,3,5,287.9,3.516
58.11,1,0.002,0.018,-0.001,-0.006,0.028,-0.002,-1.492,0.003,0.481,57.35,95.7,40.524906,-3.417613,636.9,3,5,287.9,3.516
58.2,1,0.029,0.005,0.011,0.004,0.017,0.007,-1.493,0.006,0.479,57.35,95.7,40.524906,-3.417613,636.9,3,5,287.9,3.516
58.3,1,0.022,0.019,0.013,0.017,0.018,0.01,-1.494,0.008,0.477,57.35,95.7,40.524906,-3.417613,636.9,3,5,287.9,3.516
58.41,1,0.013,0.01,0.004,0.023,0.015,0.011,-1.495,0.01,0.475,57.35,95.7,40.524906,-3.417613,636.9,3,5,287.9,3.516
58.51,1,-0.003,0.006,-0.018,0.007,0.01,-0.001,-1.492,0.011,0.473,57.35,95.7,40.524906,-3.417613,636.9,3,5,287.9,3.516
58.61,1,-0.044,0.026,-0.016,-0.017,0.014,-0.017,-1.491,0.011,0.471,58.35,94.1,40.524975,-3.417906,636.2,3,5,287.2,2.109
58.71,1,-0.027,0.013,0.005,-0.026,0.017,-0.001,-1.494,0.012,0.47,58.35,94.1,40.524975,-3.417906,636.2,3,5,287.2,2.109
58.81,1,-0.016,0.008,-0.003,-0.021,0.013,-0.006,-1.492,0.012,0.468,58.35,94.1,40.524975,-3.417906,636.2,3,5,287.2,2.109
58.91,1,-0.031,0.019,-0.023,-0.025,0.014,-0.007,-1.493,0.013,0.466,58.35,94.1,40.524975,-3.417906,636.2,3,5,287.2,2.109
59.01,1,-0.021,-0.001,0.007,-0.028,0.011,-0.006,-1.495,0.016,0.465,58.35,94.1,40.524975,-3.417906,636.2,3,5,287.2,2.109
59.11,1,-0.024,0.002,-0.008,-0.021,0.004,-0.003,-1.495,0.019,0.463,58.35,94.1,40.524975,-3.417906,636.2,3,5,287.2,2.109
59.22,1,0.003,-0.006,0.0,-0.015,-0.003,-0.003,-1.493,0.018,0.461,58.35,94.1,40.524975,-3.417906,636.2,3,5,287.2,2.109
59.31,1,-0.021,0.025,0.004,-0.009,0.005,0.001,-1.491,0.017,0.459,58.35,94.1,40.524975,-3.417906,636.2,3,5,287.2,2.109
59.41,1,-0.038,-0.007,-0.025,-0.028,0.008,-0.016,-1.491,0.017,0.458,58.35,94.1,40.524975,-3.417906,636.2,3,5,287.2,2.109
59.51,1,0.005,0.008,0.035,-0.016,0.006,0.006,-1.493,0.017,0.456,58.35,94.1,40.524975,-3.417906,636.2,3,5,287.2,2.109
59.61,1,0.029,-0.002,-0.013,0.009,0.003,0.008,-1.49,0.021,0.453,59.33,93.9,40.525043,-3.418201,635.3,4,5,286.2,1.758
59.72,1,0.02,0.011,-0.004,0.018,0.006,-0.004,-1.488,0.025,0.451,59.33,93.9,40.525043,-3.418201,635.3,4,5,286.2,1.758
59.81,1,0.002,0.016,-0.026,0.016,0.009,-0.011,-1.488,0.026,0.449,59.33,93.9,40.525043,-3.418201,635.3,4,5,286.2,1.758
59.93,1,-0.036,0.0,-0.015,-0.013,0.008,-0.015,-1.49,0.025,0.446,59.33,93.9,40.525043,-3.418201,635.3,4,5,286.2,1.758
60.01,1,-0.083,0.037,-0.002,-0.045,0.015,-0.008,-1.492,0.025,0.444,59.33,93.9,40.525043,-3.418201,635.3,4,5,286.2,1.758
60.11,1,-0.038,0.032,-0.006,-0.054,0.031,-0.007,-1.492,0.028,0.441,59.33,93.9,40.525043,-3.418201,635.3,4,5,286.2,1.758
60.21,1,0.008,0.012,0.026,-0.027,0.02,0.0,-1.49,0.032,0.438,59.33,93.9,40.525043,-3.418201,635.3,4,5,286.2,1.758
60.31,1,-0.005,0.012,-0.014,-0.005,0.019,0.01,-1.49,0.031,0.435,59.33,93.9,40.525043,-3.418201,635.3,4,5,286.2,1.758
60.53,1,-0.004,0.035,-0.021,0.02,0.039,-0.008,-1.489,0.027,0.428,59.33,93.9,40.525043,-3.418201,635.3,4,5,286.2,1.758
60.61,1,-0.074,0.031,0.01,-0.029,0.032,-0.009,-1.489,0.028,0.424,59.33,93.9,40.525043,-3.418201,635.3,4,5,286.2,1.758
60.71,1,-0.003,0.036,-0.001,-0.029,0.037,0.004,-1.49,0.025,0.421,60.33,92.2,40.525108,-3.418489,635.0,4,5,285.8,1.406
60.81,1,-0.003,0.017,-0.014,-0.009,0.026,-0.002,-1.488,0.02,0.417,60.33,92.2,40.525108,-3.418489,635.0,4,5,285.8,1.406
60.92,1,0.007,0.014,0.01,-0.005,0.018,-0.005,-1.488,0.017,0.413,60.33,92.2,40.525108,-3.418489,635.0,4,5,285.8,1.406
61.01,1,0.026,0.045,0.01,0.01,0.03,0.011,-1.485,0.015,0.41,60.33,92.2,40.525108,-3.418489,635.0,4,5,285.8,1.406
61.12,1,0.013,0.029,-0.016,0.021,0.031,-0.004,-1.483,0.011,0.406,60.33,92.2,40.525108,-3.418489,635.0,4,5,285.8,1.406
61.22,1,-0.075,0.05,-0.009,-0.022,0.036,-0.018,-1.483,0.007,0.403,60.33,92.2,40.525108,-3.418489,635.0,4,5,285.8,1.406
61.31,1,-0.073,0.027,0.016,-0.054,0.04,0.003,-1.485,0.003,0.4,60.33,92.2,40.525108,-3.418489,635.0,4,5,285.8,1.406
61.41,1,-0.048,-0.013,-0.003,-0.064,0.016,0.004,-1.486,0.004,0.397,60.33,92.2,40.525108,-3.418489,635.0,4,5,285.8,1.406
61.52,1,0.025,-0.003,0.013,-0.023,0.001,0.007,-1.487,0.006,0.393,60.33,92.2,40.525108,-3.418489,635.0,4,5,285.8,1.406
61.62,1,0.046,0.035,0.002,0.02,0.014,0.007,-1.485,0.004,0.389,60.33,92.2,40.525108,-3.418489,635.0,4,5,285.8,1.406
61.73,1,-0.008,0.029,-0.008,0.018,0.027,-0.001,-1.484,0.001,0.384,61.35,92.2,40.525166,-3.418784,634.3,6,5,285.5,0.703
61.82,1,-0.037,0.016,0.009,-0.012,0.024,0.001,-1.484,-0.0,0.38,61.35,92.2,40.525166,-3.418784,634.3,6,5,285.5,0.703
61.92,1,-0.0,0.017,0.008,-0.015,0.017,0.006,-1.482,-0.002,0.376,61.35,92.2,40.525166,-3.418784,634.3,6,5,285.5,0.703
62.02,1,-0.005,0.042,-0.006,-0.007,0.027,-0.002,-1.483,-0.002,0.371,61.35,92.2,40.525166,-3.418784,634.3,6,5,285.5,0.703
62.12,1,0.001,0.032,0.014,-0.003,0.033,0.005,-1.484,-0.0,0.367,61.35,92.2,40.525166,-3.418784,634.3,6,5,285.5,0.703
62.22,1,-0.022,0.022,-0.006,-0.014,0.029,0.005,-1.486,0.002,0.363,61.35,92.2,40.525166,-3.418784,634.3,6,5,285.5,0.703
62.33,1,-0.002,0.005,-0.006,-0.007,0.02,-0.004,-1.486,0.0,0.359,61.35,92.2,40.525166,-3.418784,634.3,6,5,285.5,0.703
62.43,1,-0.04,0.029,-0.007,-0.014,0.018,-0.003,-1.487,-0.002,0.354,61.35,92.2,40.525166,-3.418784,634.3,6,5,285.5,0.703
62.52,1,-0.063,0.011,0.009,-0.043,0.018,0.0,-1.485,-0.003,0.35,61.35,92.2,40.525166,-3.418784,634.3,6,5,285.5,0.703
62.62,1,0.005,-0.002,0.018,-0.029,0.008,0.007,-1.485,-0.004,0.345,61.35,92.2,40.525166,-3.418784,634.3,6,5,285.5,0.703
62.72,1,-0.009,0.018,0.01,-0.013,0.008,0.011,-1.486,-0.005,0.341,62.38,90.0,40.525238,-3.419053,633.7,6,5,286.5,1.055
62.82,1,-0.009,0.017,0.008,-0.012,0.011,0.007,-1.486,-0.008,0.336,62.38,90.0,40.525238,-3.419053,633.7,6,5,286.5,1.055
62.92,1,0.001,0.003,0.0,-0.003,0.012,0.008,-1.485,-0.01,0.332,62.38,90.0,40.525238,-3.419053,633.7,6,5,286.5,1.055
63.02,1,-0.021,0.002,0.006,-0.013,0.014,0.006,-1.484,-0.014,0.327,62.38,90.0,40.525238,-3.419053,633.7,6,5,286.5,1.055
63.12,1,0.051,0.013,0.023,0.01,0.006,0.015,-1.484,-0.014,0.323,62.38,90.0,40.525238,-3.419053,633.7,6,5,286.5,1.055
63.22,1,-0.027,0.012,-0.005,0.016,0.004,0.007,-1.483,-0.013,0.318,62.38,90.0,40.525238,-3.419053,633.7,6,5,286.5,1.055
63.33,1,-0.055,0.008,0.003,-0.034,0.012,-0.0,-1.484,-0.011,0.313,62.38,90.0,40.525238,-3.419053,633.7,6,5,286.5,1.055
63.42,1,-0.045,0.014,0.017,-0.039,0.015,0.011,-1.487,-0.011,0.309,62.38,90.0,40.525238,-3.419053,633.7,6,5,286.5,1.055
63.53,1,-0.023,0.005,-0.0,-0.034,0.007,0.005,-1.489,-0.012,0.304,62.38,90.0,40.525238,-3.419053,633.7,6,5,286.5,1.055
63.63,1,-0.028,-0.04,0.004,-0.029,-0.016,0.003,-1.489,-0.015,0.3,62.38,90.0,40.525238,-3.419053,633.7,6,5,286.5,1.055
63.73,1,-0.014,-0.019,-0.0,-0.026,-0.018,0.003,-1.488,-0.016,0.296,63.35,89.0,40.525299,-3.419339,632.8,6,5,287.2,1.758
63.82,1,-0.007,0.004,0.009,-0.013,-0.012,0.002,-1.49,-0.015,0.291,63.35,89.0,40.525299,-3.419339,632.8,6,5,287.2,1.758
63.93,1,0.012,-0.0,0.016,-0.006,-0.002,0.013,-1.494,-0.016,0.287,63.35,89.0,40.525299,-3.419339,632.8,6,5,287.2,1.758
64.02,1,0.022,-0.005,-0.016,0.011,-0.004,0.003,-1.493,-0.013,0.283,63.35,89.0,40.525299,-3.419339,632.8,6,5,287.2,1.758
64.12,1,-0.037,-0.027,-0.012,0.002,-0.01,-0.008,-1.494,-0.01,0.278,63.35,89.0,40.525299,-3.419339,632.8,6,5,287.2,1.758
64.23,1,-0.067,0.001,0.02,-0.041,-0.008,0.001,-1.496,-0.009,0.274,63.35,89.0,40.525299,-3.419339,632.8,6,5,287.2,1.758
64.32,1,0.01,0.002,-0.007,-0.028,-0.005,0.006,-1.496,-0.008,0.27,63.35,89.0,40.525299,-3.419339,632.8,6,5,287.2,1.758
64.42,1,0.029,-0.008,-0.005,0.007,-0.007,-0.002,-1.496,-0.006,0.265,63.35,89.0,40.525299,-3.419339,632.8,6,5,287.2,1.758
64.53,1,-0.081,-0.007,-0.034,-0.019,-0.009,-0.015,-1.497,-0.006,0.261,63.35,89.0,40.525299,-3.419339,632.8,6,5,287.2,1.758
64.63,1,-0.161,-0.031,-0.028,-0.097,-0.019,-0.031,-1.5,-0.004,0.257,63.35,89.0,40.525299,-3.419339,632.8,6,5,287.2,1.758
64.73,1,-0.018,-0.004,0.041,-0.084,-0.013,0.004,-1.503,-0.001,0.252,64.35,88.5,40.525364,-3.41961,632.0,6,5,287.6,1.055
64.84,1,0.059,0.014,-0.009,-0.004,0.001,0.01,-1.503,-0.003,0.248,64.35,88.5,40.525364,-3.41961,632.0,6,5,287.6,1.055
64.93,1,0.042,0.016,-0.028,0.033,0.011,-0.013,-1.499,-0.0,0.243,64.35,88.5,40.525364,-3.41961,632.0,6,5,287.6,1.055
65.03,1,-0.013,-0.003,-0.025,0.011,0.008,-0.025,-1.497,0.004,0.238,64.35,88.5,40.525364,-3.41961,632.0,6,5,287.6,1.055
65.13,1,-0.021,0.009,0.0,-0.008,0.005,-0.01,-1.498,0.005,0.234,64.35,88.5,40.525364,-3.41961,632.0,6,5,287.6,1.055
65.23,1,-0.021,-0.0,-0.01,-0.016,0.003,-0.008,-1.499,0.004,0.229,64.35,88.5,40.525364,-3.41961,632.0,6,5,287.6,1.055
65.33,1,0.024,0.001,0.009,-0.002,0.004,-0.002,-1.497,0.003,0.224,64.35,88.5,40.525364,-3.41961,632.0,6,5,287.6,1.055
65.43,1,-0.015,0.025,-0.028,-0.001,0.012,-0.008,-1.497,0.004,0.219,64.35,88.5,40.525364,-3.41961,632.0,6,5,287.6,1.055
65.53,1,-0.05,-0.0,0.002,-0.024,0.007,-0.015,-1.496,0.006,0.215,64.35,88.5,40.525364,-3.41961,632.0,6,5,287.6,1.055
65.63,1,-0.056,-0.014,0.014,-0.041,-0.004,0.003,-1.5,0.007,0.21,64.35,88.5,40.525364,-3.41961,632.0,6,5,287.6,1.055
65.73,1,-0.035,0.008,0.026,-0.043,0.0,0.021,-1.503,0.005,0.205,65.37,87.4,40.525429,-3.419884,631.3,6,5,289.0,1.758
65.83,1,-0.009,0.016,0.005,-0.027,0.007,0.011,-1.503,0.004,0.2,65.37,87.4,40.525429,-3.419884,631.3,6,5,289.0,1.758
65.94,1,-0.01,0.013,0.012,-0.016,0.011,0.01,-1.505,0.001,0.195,65.37,87.4,40.525429,-3.419884,631.3,6,5,289.0,1.758
66.04,1,0.005,0.003,0.014,-0.006,0.007,0.011,-1.505,0.003,0.191,65.37,87.4,40.525429,-3.419884,631.3,6,5,289.0,1.758
66.13,1,0.003,-0.007,0.021,0.001,0.002,0.021,-1.503,0.004,0.186,65.37,87.4,40.525429,-3.419884,631.3,6,5,289.0,1.758
66.23,1,0.004,0.003,0.014,0.005,0.001,0.013,-1.503,0.002,0.18,65.37,87.4,40.525429,-3.419884,631.3,6,5,289.0,1.758
66.33,1,-0.008,0.005,0.018,-0.001,0.007,0.017,-1.506,-0.002,0.175,65.37,87.4,40.525429,-3.419884,631.3,6,5,289.0,1.758
66.43,1,-0.009,-0.002,0.028,-0.004,-0.0,0.023,-1.508,-0.01,0.17,65.37,87.4,40.525429,-3.419884,631.3,6,5,289.0,1.758
66.53,1,-0.031,0.006,-0.018,-0.019,0.001,0.007,-1.509,-0.012,0.164,65.37,87.4,40.525429,-3.419884,631.3,6,5,289.0,1.758
66.63,1,-0.023,-0.004,-0.007,-0.023,0.003,-0.007,-1.51,-0.012,0.159,65.37,87.4,40.525429,-3.419884,631.3,6,5,289.0,1.758
66.73,1,-0.039,0.009,0.012,-0.027,0.003,0.004,-1.512,-0.014,0.154,66.42,85.6,40.525509,-3.420153,630.7,6,5,291.1,3.516
66.83,1,-0.073,0.002,-0.006,-0.058,0.003,0.001,-1.516,-0.015,0.149,66.42,85.6,40.525509,-3.420153,630.7,6,5,291.1,3.516
66.93,1,-0.018,0.008,0.042,-0.046,0.005,0.019,-1.523,-0.017,0.144,66.42,85.6,40.525509,-3.420153,630.7,6,5,291.1,3.516
67.04,1,0.02,-0.011,0.013,-0.006,-0.004,0.018,-1.523,-0.017,0.139,66.42,85.6,40.525509,-3.420153,630.7,6,5,291.1,3.516
67.15,1,0.015,-0.022,-0.016,0.01,-0.011,0.006,-1.52,-0.015,0.135,66.42,85.6,40.525509,-3.420153,630.7,6,5,291.1,3.516
67.23,1,-0.016,-0.002,-0.007,0.003,-0.01,-0.008,-1.516,-0.014,0.131,66.42,85.6,40.525509,-3.420153,630.7,6,5,291.1,3.516
67.33,1,-0.069,-0.027,-0.0,-0.03,-0.014,-0.005,-1.514,-0.012,0.127,66.42,85.6,40.525509,-3.420153,630.7,6,5,291.1,3.516
67.43,1,-0.015,-0.038,0.02,-0.035,-0.024,0.008,-1.516,-0.007,0.124,66.42,85.6,40.525509,-3.420153,630.7,6,5,291.1,3.516
67.53,1,-0.004,-0.045,0.007,-0.018,-0.038,0.009,-1.515,-0.002,0.121,66.42,85.6,40.525509,-3.420153,630.7,6,5,291.1,3.516
67.64,1,0.007,-0.021,0.02,-0.008,-0.033,0.014,-1.516,-0.0,0.118,66.42,85.6,40.525509,-3.420153,630.7,6,5,291.1,3.516
67.73,1,0.006,-0.019,0.013,0.0,-0.03,0.013,-1.516,-0.0,0.114,67.34,86.1,40.525578,-3.420414,629.9,6,5,292.9,3.867
67.85,1,0.006,-0.019,0.01,0.009,-0.018,0.012,-1.515,-0.002,0.111,67.34,86.1,40.525578,-3.420414,629.9,6,5,292.9,3.867
67.94,1,0.009,0.002,0.01,0.006,-0.01,0.015,-1.516,-0.002,0.107,67.34,86.1,40.525578,-3.420414,629.9,6,5,292.9,3.867
68.03,1,-0.032,0.022,-0.015,-0.01,0.011,-0.003,-1.514,-0.0,0.103,67.34,86.1,40.525578,-3.420414,629.9,6,5,292.9,3.867
68.14,1,-0.047,0.002,0.039,-0.034,0.005,0.01,-1.514,-0.002,0.099,67.34,86.1,40.525578,-3.420414,629.9,6,5,292.9,3.867
68.24,1,-0.005,0.011,0.019,-0.024,0.009,0.027,-1.514,-0.003,0.095,67.34,86.1,40.525578,-3.420414,629.9,6,5,292.9,3.867
68.34,1,0.003,-0.019,0.022,-0.005,-0.001,0.016,-1.513,-0.004,0.09,67.34,86.1,40.525578,-3.420414,629.9,6,5,292.9,3.867
68.44,1,-0.014,0.066,-0.017,-0.023,0.021,0.004,-1.51,-0.008,0.086,67.34,86.1,40.525578,-3.420414,629.9,6,5,292.9,3.867
68.54,1,-0.01,0.005,-0.005,0.003,0.017,-0.004,-1.51,-0.01,0.082,67.34,86.1,40.525578,-3.420414,629.9,6,5,292.9,3.867
68.64,1,-0.067,-0.018,-0.012,-0.033,0.001,-0.015,-1.513,-0.011,0.078,67.34,86.1,40.525578,-3.420414,629.9,6,5,292.9,3.867
68.74,1,-0.069,-0.043,0.015,-0.053,-0.016,0.003,-1.517,-0.011,0.075,68.35,86.3,40.525661,-3.42067,629.4,6,5,295.0,3.867
68.84,1,-0.105,-0.045,-0.033,-0.063,-0.035,0.007,-1.518,-0.013,0.072,68.35,86.3,40.525661,-3.42067,629.4,6,5,295.0,3.867
68.94,1,-0.07,0.01,0.041,-0.084,-0.022,-0.0,-1.521,-0.016,0.068,68.35,86.3,40.525661,-3.42067,629.4,6,5,295.0,3.867
69.04,1,-0.026,-0.015,0.017,-0.077,-0.005,0.018,-1.523,-0.016,0.066,68.35,86.3,40.525661,-3.42067,629.4,6,5,295.0,3.867
69.14,1,0.046,-0.008,0.033,-0.016,-0.006,0.019,-1.524,-0.014,0.063,68.35,86.3,40.525661,-3.42067,629.4,6,5,295.0,3.867
69.24,1,0.066,0.017,0.028,0.051,0.002,0.031,-1.523,-0.014,0.059,68.35,86.3,40.525661,-3.42067,629.4,6,5,295.0,3.867
69.34,1,0.054,-0.024,-0.009,0.052,-0.009,0.015,-1.52,-0.016,0.056,68.35,86.3,40.525661,-3.42067,629.4,6,5,295.0,3.867
69.44,1,0.059,-0.034,0.01,0.051,-0.019,0.007,-1.521,-0.015,0.053,68.35,86.3,40.525661,-3.42067,629.4,6,5,295.0,3.867
69.54,1,-0.042,-0.023,0.036,0.021,-0.029,0.022,-1.518,-0.01,0.05,68.35,86.3,40.525661,-3.42067,629.4,6,5,295.0,3.867
69.64,1,-0.045,-0.027,0.006,-0.021,-0.028,0.015,-1.515,-0.009,0.048,68.35,86.3,40.525661,-3.42067,629.4,6,5,295.0,3.867
69.74,1,-0.052,-0.012,0.018,-0.048,-0.017,0.011,-1.516,-0.01,0.045,69.37,86.8,40.525753,-3.420933,629.0,6,5,296.4,3.516
69.84,1,-0.035,0.023,0.048,-0.038,-0.003,0.032,-1.523,-0.012,0.042,69.37,86.8,40.525753,-3.420933,629.0,6,5,296.4,3.516
69.94,1,0.003,0.012,0.017,-0.022,0.009,0.024,-1.524,-0.012,0.039,69.37,86.8,40.525753,-3.420933,629.0,6,5,296.4,3.516
70.04,1,0.018,-0.003,0.031,-0.002,0.006,0.027,-1.521,-0.013,0.036,69.37,86.8,40.525753,-3.420933,629.0,6,5,296.4,3.516
70.14,1,0.001,-0.006,0.01,0.006,-0.002,0.028,-1.522,-0.014,0.033,69.37,86.8,40.525753,-3.420933,629.0,6,5,296.4,3.516
70.24,1,-0.015,0.02,0.014,-0.001,0.003,0.012,-1.525,-0.017,0.03,69.37,86.8,40.525753,-3.420933,629.0,6,5,296.4,3.516
70.44,1,0.024,0.01,-0.012,0.006,0.017,0.005,-1.532,-0.024,0.021,69.37,86.8,40.525753,-3.420933,629.0,6,5,296.4,3.516
70.54,1,-0.03,0.038,0.001,-0.004,0.023,-0.002,-1.534,-0.029,0.016,69.37,86.8,40.525753,-3.420933,629.0,6,5,296.4,3.516
70.64,1,-0.026,0.024,-0.009,-0.019,0.027,-0.008,-1.535,-0.032,0.011,69.37,86.8,40.525753,-3.420933,629.0,6,5,296.4,3.516
70.74,1,-0.041,0.056,0.028,-0.033,0.037,0.007,-1.534,-0.036,0.005,69.37,86.8,40.525753,-3.420933,629.0,6,5,296.4,3.516
70.84,1,-0.0,0.045,0.013,-0.024,0.045,0.016,-1.533,-0.04,-0.001,70.34,88.4,40.525856,-3.421188,628.6,6,5,297.8,2.812
70.95,1,-0.012,0.048,0.013,-0.012,0.045,0.014,-1.531,-0.045,-0.007,70.34,88.4,40.525856,-3.421188,628.6,6,5,297.8,2.812
71.04,1,-0.035,0.045,0.018,-0.018,0.051,0.015,-1.532,-0.051,-0.013,70.34,88.4,40.525856,-3.421188,628.6,6,5,297.8,2.812
71.15,1,-0.021,0.027,0.02,-0.022,0.036,0.014,-1.535,-0.055,-0.019,70.34,88.4,40.525856,-3.421188,628.6,6,5,297.8,2.812
71.25,1,0.02,0.033,0.036,-0.007,0.033,0.031,-1.537,-0.059,-0.025,70.34,88.4,40.525856,-3.421188,628.6,6,5,297.8,2.812
71.35,1,0.052,0.058,0.011,0.014,0.042,0.018,-1.538,-0.06,-0.031,70.34,88.4,40.525856,-3.421188,628.6,6,5,297.8,2.812
71.46,1,0.033,0.015,0.014,0.039,0.037,0.012,-1.54,-0.063,-0.038,70.34,88.4,40.525856,-3.421188,628.6,6,5,297.8,2.812
71.55,1,-0.012,0.015,0.015,0.017,0.025,0.024,-1.541,-0.063,-0.043,70.34,88.4,40.525856,-3.421188,628.6,6,5,297.8,2.812
71.65,1,-0.021,-0.008,0.032,-0.002,0.006,0.022,-1.542,-0.063,-0.049,70.34,88.4,40.525856,-3.421188,628.6,6,5,297.8,2.812
71.75,1,-0.013,0.005,0.013,-0.015,0.005,0.019,-1.543,-0.063,-0.053,70.34,88.4,40.525856,-3.421188,628.6,6,5,297.8,2.812
71.85,1,-0.013,-0.024,0.011,-0.015,-0.006,0.016,-1.542,-0.058,-0.058,71.33,87.0,40.52597,-3.421432,628.2,6,5,301.3,4.922
71.95,1,-0.02,-0.008,0.021,-0.015,-0.01,0.014,-1.542,-0.053,-0.062,71.33,87.0,40.52597,-3.421432,628.2,6,5,301.3,4.922
72.05,1,-0.015,-0.003,0.018,-0.018,-0.008,0.02,-1.544,-0.05,-0.066,71.33,87.0,40.52597,-3.421432,628.2,6,5,301.3,4.922
72.15,1,0.009,-0.026,0.016,-0.007,-0.015,0.016,-1.546,-0.046,-0.07,71.33,87.0,40.52597,-3.421432,628.2,6,5,301.3,4.922
72.25,1,0.004,-0.016,0.003,0.004,-0.02,0.01,-1.547,-0.041,-0.074,71.33,87.0,40.52597,-3.421432,628.2,6,5,301.3,4.922
72.35,1,-0.031,-0.005,0.02,-0.009,-0.015,0.011,-1.548,-0.042,-0.077,71.33,87.0,40.52597,-3.421432,628.2,6,5,301.3,4.922
72.46,1,-0.021,-0.013,0.02,-0.02,-0.01,0.018,-1.549,-0.043,-0.081,71.33,87.0,40.52597,-3.421432,628.2,6,5,301.3,4.922
72.55,1,-0.028,-0.027,0.003,-0.03,-0.015,0.014,-1.551,-0.045,-0.084,71.33,87.0,40.52597,-3.421432,628.2,6,5,301.3,4.922
72.66,1,-0.04,-0.028,0.014,-0.028,-0.021,0.014,-1.552,-0.046,-0.087,71.33,87.0,40.52597,-3.421432,628.2,6,5,301.3,4.922
72.76,1,-0.001,-0.012,0.024,-0.022,-0.024,0.019,-1.556,-0.045,-0.09,71.33,87.0,40.52597,-3.421432,628.2,6,5,301.3,4.922
72.85,1,-0.009,-0.003,0.01,-0.011,-0.014,0.019,-1.558,-0.041,-0.093,72.36,87.6,40.526085,-3.421673,627.9,6,5,304.8,7.031
72.95,1,0.006,-0.015,0.0,-0.006,-0.008,0.005,-1.56,-0.041,-0.097,72.36,87.6,40.526085,-3.421673,627.9,6,5,304.8,7.031
73.05,1,-0.002,0.01,0.004,0.005,-0.003,-0.001,-1.56,-0.047,-0.102,72.36,87.6,40.526085,-3.421673,627.9,6,5,304.8,7.031
73.16,1,-0.019,0.027,-0.01,-0.011,0.015,0.002,-1.561,-0.051,-0.107,72.36,87.6,40.526085,-3.421673,627.9,6,5,304.8,7.031
73.25,1,-0.008,0.018,0.012,-0.01,0.018,-0.0,-1.562,-0.054,-0.111,72.36,87.6,40.526085,-3.421673,627.9,6,5,304.8,7.031
73.35,1,0.027,0.012,0.033,0.0,0.013,0.019,-1.565,-0.057,-0.117,72.36,87.6,40.526085,-3.421673,627.9,6,5,304.8,7.031
73.45,1,-0.002,0.024,-0.026,0.013,0.016,0.007,-1.564,-0.06,-0.122,72.36,87.6,40.526085,-3.421673,627.9,6,5,304.8,7.031
73.55,1,0.004,0.01,-0.014,0.003,0.016,-0.015,-1.563,-0.061,-0.126,72.36,87.6,40.526085,-3.421673,627.9,6,5,304.8,7.031
73.65,1,-0.023,0.018,0.017,-0.006,0.018,0.002,-1.563,-0.063,-0.131,72.36,87.6,40.526085,-3.421673,627.9,6,5,304.8,7.031
73.76,1,-0.015,-0.003,-0.01,-0.014,0.005,-0.0,-1.564,-0.064,-0.136,72.36,87.6,40.526085,-3.421673,627.9,6,5,304.8,7.031
73.87,1,-0.021,-0.014,-0.014,-0.023,-0.003,-0.008,-1.567,-0.06,-0.14,73.36,89.1,40.526215,-3.42188,627.7,6,5,306.9,5.625
73.97,1,-0.015,-0.019,0.005,-0.011,-0.014,-0.002,-1.565,-0.056,-0.144,73.36,89.1,40.526215,-3.42188,627.7,6,5,306.9,5.625
74.05,1,-0.003,-0.024,-0.028,-0.01,-0.016,-0.02,-1.565,-0.058,-0.149,73.36,89.1,40.526215,-3.42188,627.7,6,5,306.9,5.625
74.16,1,-0.018,-0.021,-0.042,-0.014,-0.018,-0.028,-1.564,-0.059,-0.152,73.36,89.1,40.526215,-3.42188,627.7,6,5,306.9,5.625
74.25,1,-0.083,0.015,-0.017,-0.049,-0.008,-0.024,-1.567,-0.06,-0.155,73.36,89.1,40.526215,-3.42188,627.7,6,5,306.9,5.625
74.36,1,-0.035,-0.039,-0.002,-0.052,-0.014,-0.013,-1.565,-0.056,-0.158,73.36,89.1,40.526215,-3.42188,627.7,6,5,306.9,5.625
74.46,1,0.004,-0.03,-0.006,-0.018,-0.024,-0.005,-1.564,-0.052,-0.16,73.36,89.1,40.526215,-3.42188,627.7,6,5,306.9,5.625
74.56,1,-0.014,-0.07,-0.031,-0.011,-0.048,-0.019,-1.564,-0.048,-0.162,73.36,89.1,40.526215,-3.42188,627.7,6,5,306.9,5.625
74.65,1,-0.064,-0.032,-0.023,-0.033,-0.044,-0.026,-1.565,-0.044,-0.165,73.36,89.1,40.526215,-3.42188,627.7,6,5,306.9,5.625
74.76,1,-0.037,-0.033,-0.016,-0.044,-0.035,-0.019,-1.568,-0.044,-0.168,73.36,89.1,40.526215,-3.42188,627.7,6,5,306.9,5.625
74.86,1,-0.038,-0.01,-0.011,-0.038,-0.029,-0.013,-1.567,-0.046,-0.17,74.35,90.2,40.526356,-3.422111,627.4,6,5,310.1,5.273
74.96,1,0.008,-0.051,-0.05,-0.019,-0.033,-0.028,-1.568,-0.044,-0.173,74.35,90.2,40.526356,-3.422111,627.4,6,5,310.1,5.273
75.06,1,-0.048,-0.019,-0.058,-0.021,-0.03,-0.047,-1.566,-0.046,-0.176,74.35,90.2,40.526356,-3.422111,627.4,6,5,310.1,5.273
75.16,1,-0.036,-0.018,-0.039,-0.044,-0.024,-0.047,-1.562,-0.046,-0.179,74.35,90.2,40.526356,-3.422111,627.4,6,5,310.1,5.273
75.26,1,0.003,-0.015,-0.036,-0.022,-0.019,-0.034,-1.56,-0.044,-0.182,74.35,90.2,40.526356,-3.422111,627.4,6,5,310.1,5.273
75.36,1,-0.057,0.001,-0.097,-0.027,-0.011,-0.066,-1.556,-0.043,-0.185,74.35,90.2,40.526356,-3.422111,627.4,6,5,310.1,5.273
75.46,1,-0.037,-0.011,-0.071,-0.035,-0.01,-0.075,-1.551,-0.041,-0.188,74.35,90.2,40.526356,-3.422111,627.4,6,5,310.1,5.273
75.57,1,-0.004,-0.004,-0.053,-0.029,-0.0,-0.064,-1.548,-0.042,-0.191,74.35,90.2,40.526356,-3.422111,627.4,6,5,310.1,5.273
75.66,1,-0.012,0.013,-0.048,-0.015,0.001,-0.061,-1.546,-0.044,-0.194,74.35,90.2,40.526356,-3.422111,627.4,6,5,310.1,5.273
75.76,1,-0.014,-0.012,-0.041,-0.013,-0.003,-0.046,-1.542,-0.047,-0.197,74.35,90.2,40.526356,-3.422111,627.4,6,5,310.1,5.273
75.86,1,-0.054,0.011,-0.055,-0.033,0.0,-0.053,-1.54,-0.048,-0.2,75.41,90.9,40.526508,-3.422338,626.8,6,5,312.2,5.273
75.96,1,-0.003,-0.032,-0.043,-0.023,-0.008,-0.045,-1.539,-0.048,-0.203,75.41,90.9,40.526508,-3.422338,626.8,6,5,312.2,5.273
76.06,1,-0.01,0.003,-0.051,-0.008,-0.006,-0.045,-1.539,-0.048,-0.206,75.41,90.9,40.526508,-3.422338,626.8,6,5,312.2,5.273
76.16,1,-0.027,0.016,-0.052,-0.018,0.001,-0.05,-1.538,-0.048,-0.209,75.41,90.9,40.526508,-3.422338,626.8,6,5,312.2,5.273
76.26,1,-0.032,-0.018,-0.064,-0.025,-0.005,-0.056,-1.539,-0.049,-0.212,75.41,90.9,40.526508,-3.422338,626.8,6,5,312.2,5.273
76.37,1,-0.034,-0.022,-0.043,-0.033,-0.012,-0.05,-1.537,-0.046,-0.214,75.41,90.9,40.526508,-3.422338,626.8,6,5,312.2,5.273
76.46,1,-0.015,-0.013,-0.039,-0.03,-0.012,-0.043,-1.532,-0.044,-0.217,75.41,90.9,40.526508,-3.422338,626.8,6,5,312.2,5.273
76.56,1,0.015,-0.005,-0.05,-0.002,-0.015,-0.048,-1.532,-0.05,-0.22,75.41,90.9,40.526508,-3.422338,626.8,6,5,312.2,5.273
76.66,1,-0.005,-0.029,-0.019,0.003,-0.017,-0.035,-1.529,-0.048,-0.222,75.41,90.9,40.526508,-3.422338,626.8,6,5,312.2,5.273
76.76,1,-0.041,0.025,-0.015,-0.009,-0.0,-0.02,-1.523,-0.047,-0.224,75.41,90.9,40.526508,-3.422338,626.8,6,5,312.2,5.273
76.86,1,-0.082,-0.003,-0.038,-0.054,0.003,-0.031,-1.525,-0.046,-0.227,76.33,90.4,40.526665,-3.422554,626.4,6,5,315.0,4.922
76.97,1,0.006,-0.017,-0.01,-0.042,-0.005,-0.024,-1.525,-0.045,-0.23,76.33,90.4,40.526665,-3.422554,626.4,6,5,315.0,4.922
77.07,1,-0.022,-0.012,-0.021,-0.022,-0.012,-0.019,-1.524,-0.044,-0.233,76.33,90.4,40.526665,-3.422554,626.4,6,5,315.0,4.922
77.16,1,-0.018,-0.015,-0.02,-0.019,-0.013,-0.022,-1.522,-0.043,-0.235,76.33,90.4,40.526665,-3.422554,626.4,6,5,315.0,4.922
77.26,1,-0.024,0.013,0.01,-0.02,-0.004,-0.007,-1.522,-0.041,-0.238,76.33,90.4,40.526665,-3.422554,626.4,6,5,315.0,4.922
77.37,1,-0.032,0.001,0.001,-0.025,-0.0,0.0,-1.52,-0.041,-0.24,76.33,90.4,40.526665,-3.422554,626.4,6,5,315.0,4.922
77.47,1,0.025,-0.018,0.021,-0.011,-0.005,0.008,-1.519,-0.04,-0.243,76.33,90.4,40.526665,-3.422554,626.4,6,5,315.0,4.922
77.56,1,-0.033,0.013,-0.002,-0.007,-0.001,0.009,-1.519,-0.036,-0.246,76.33,90.4,40.526665,-3.422554,626.4,6,5,315.0,4.922
77.66,1,-0.014,-0.02,-0.016,-0.022,-0.003,-0.007,-1.521,-0.035,-0.249,76.33,90.4,40.526665,-3.422554,626.4,6,5,315.0,4.922
77.76,1,-0.005,-0.009,0.016,-0.009,-0.011,0.004,-1.524,-0.035,-0.252,76.33,90.4,40.526665,-3.422554,626.4,6,5,315.0,4.922
77.86,1,-0.03,-0.008,0.006,-0.018,-0.007,0.009,-1.521,-0.038,-0.255,77.33,89.9,40.526836,-3.422746,625.8,6,5,317.1,4.922
77.97,1,-0.011,-0.053,-0.007,-0.019,-0.026,-0.004,-1.518,-0.038,-0.257,77.33,89.9,40.526836,-3.422746,625.8,6,5,317.1,4.922
78.07,1,-0.011,-0.013,0.011,-0.007,-0.034,0.005,-1.518,-0.037,-0.26,77.33,89.9,40.526836,-3.422746,625.8,6,5,317.1,4.922
78.18,1,-0.059,-0.005,0.009,-0.037,-0.009,0.009,-1.518,-0.037,-0.263,77.33,89.9,40.526836,-3.422746,625.8,6,5,317.1,4.922
78.28,1,0.001,-0.006,0.027,-0.026,-0.007,0.013,-1.521,-0.038,-0.265,77.33,89.9,40.526836,-3.422746,625.8,6,5,317.1,4.922
78.37,1,-0.004,-0.015,0.026,-0.004,-0.016,0.023,-1.522,-0.036,-0.268,77.33,89.9,40.526836,-3.422746,625.8,6,5,317.1,4.922
78.47,1,-0.024,-0.014,0.018,-0.013,-0.014,0.022,-1.523,-0.035,-0.271,77.33,89.9,40.526836,-3.422746,625.8,6,5,317.1,4.922
78.57,1,-0.065,0.008,0.025,-0.038,-0.001,0.021,-1.527,-0.036,-0.274,77.33,89.9,40.526836,-3.422746,625.8,6,5,317.1,4.922
78.67,1,-0.012,0.015,0.026,-0.04,0.006,0.024,-1.528,-0.036,-0.277,77.33,89.9,40.526836,-3.422746,625.8,6,5,317.1,4.922
78.77,1,-0.016,0.01,0.025,-0.022,0.01,0.023,-1.53,-0.037,-0.281,77.33,89.9,40.526836,-3.422746,625.8,6,5,317.1,4.922
78.87,1,0.003,-0.003,0.007,-0.005,0.004,0.022,-1.529,-0.038,-0.284,78.33,89.3,40.526997,-3.422934,625.4,4,5,319.6,4.57
78.97,1,-0.018,-0.011,0.03,-0.008,-0.004,0.017,-1.529,-0.038,-0.287,78.33,89.3,40.526997,-3.422934,625.4,4,5,319.6,4.57
79.07,1,-0.056,0.026,0.017,-0.031,0.007,0.019,-1.53,-0.041,-0.29,78.33,89.3,40.526997,-3.422934,625.4,4,5,319.6,4.57
79.17,1,-0.017,-0.012,0.061,-0.034,0.002,0.039,-1.531,-0.042,-0.293,78.33,89.3,40.526997,-3.422934,625.4,4,5,319.6,4.57
79.27,1,0.001,-0.016,0.017,-0.013,-0.006,0.028,-1.534,-0.043,-0.296,78.33,89.3,40.526997,-3.422934,625.4,4,5,319.6,4.57
79.38,1,-0.026,-0.002,0.022,-0.013,-0.011,0.027,-1.535,-0.044,-0.3,78.33,89.3,40.526997,-3.422934,625.4,4,5,319.6,4.57
79.47,1,-0.021,0.003,0.022,-0.022,0.004,0.028,-1.538,-0.045,-0.303,78.33,89.3,40.526997,-3.422934,625.4,4,5,319.6,4.57
79.57,1,0.013,-0.016,0.015,-0.011,-0.005,0.018,-1.54,-0.043,-0.305,78.33,89.3,40.526997,-3.422934,625.4,4,5,319.6,4.57
79.67,1,0.003,0.003,0.02,0.003,-0.006,0.021,-1.542,-0.04,-0.308,78.33,89.3,40.526997,-3.422934,625.4,4,5,319.6,4.57
79.77,1,-0.038,-0.011,0.002,-0.012,-0.01,0.014,-1.543,-0.041,-0.31,78.33,89.3,40.526997,-3.422934,625.4,4,5,319.6,4.57
79.88,1,-0.032,-0.016,0.011,-0.027,-0.011,0.01,-1.544,-0.037,-0.312,79.33,90.1,40.52718,-3.423122,624.6,4,5,322.0,4.922
79.97,1,-0.054,-0.035,0.017,-0.039,-0.023,0.009,-1.546,-0.036,-0.313,79.33,90.1,40.52718,-3.423122,624.6,4,5,322.0,4.922
80.07,1,-0.019,-0.03,0.003,-0.037,-0.024,0.011,-1.548,-0.031,-0.315,79.33,90.1,40.52718,-3.423122,624.6,4,5,322.0,4.922
80.18,1,-0.016,-0.022,0.021,-0.022,-0.027,0.011,-1.545,-0.031,-0.317,79.33,90.1,40.52718,-3.423122,624.6,4,5,322.0,4.922
80.27,1,-0.044,-0.033,0.009,-0.03,-0.026,0.016,-1.543,-0.03,-0.319,79.33,90.1,40.52718,-3.423122,624.6,4,5,322.0,4.922
80.37,1,0.012,-0.013,0.043,-0.012,-0.024,0.025,-1.544,-0.033,-0.321,79.33,90.1,40.52718,-3.423122,624.6,4,5,322.0,4.922
80.57,1,-0.056,0.039,0.001,-0.016,0.013,0.023,-1.547,-0.033,-0.325,79.33,90.1,40.52718,-3.423122,624.6,4,5,322.0,4.922
80.68,1,-0.07,0.031,-0.016,-0.053,0.017,-0.005,-1.545,-0.033,-0.327,79.33,90.1,40.52718,-3.423122,624.6,4,5,322.0,4.922
80.77,1,-0.056,-0.022,-0.003,-0.059,0.013,-0.008,-1.547,-0.033,-0.329,79.33,90.1,40.52718,-3.423122,624.6,4,5,322.0,4.922
80.87,1,-0.035,-0.014,-0.014,-0.05,-0.004,-0.002,-1.547,-0.035,-0.331,79.33,90.1,40.52718,-3.423122,624.6,4,5,322.0,4.922
80.98,1,-0.019,0.03,0.037,-0.033,0.009,0.001,-1.546,-0.038,-0.334,80.4,91.6,40.527363,-3.423302,624.4,4,5,324.8,5.273
81.08,1,0.038,0.035,0.014,0.0,0.019,0.019,-1.546,-0.039,-0.337,80.4,91.6,40.527363,-3.423302,624.4,4,5,324.8,5.273
81.18,1,0.01,-0.013,0.004,0.015,0.011,0.014,-1.545,-0.04,-0.339,80.4,91.6,40.527363,-3.423302,624.4,4,5,324.8,5.273
81.28,1,-0.054,0.015,0.002,-0.016,0.009,0.002,-1.546,-0.044,-0.341,80.4,91.6,40.527363,-3.423302,624.4,4,5,324.8,5.273
81.38,1,-0.018,-0.001,0.004,-0.027,0.01,0.003,-1.551,-0.048,-0.343,80.4,91.6,40.527363,-3.423302,624.4,4,5,324.8,5.273
81.48,1,-0.014,-0.04,0.013,-0.017,-0.018,0.008,-1.553,-0.046,-0.345,80.4,91.6,40.527363,-3.423302,624.4,4,5,324.8,5.273
81.58,1,-0.048,-0.033,0.025,-0.025,-0.031,0.018,-1.556,-0.045,-0.347,80.4,91.6,40.527363,-3.423302,624.4,4,5,324.8,5.273
81.68,1,-0.043,-0.016,-0.005,-0.05,-0.02,0.005,-1.555,-0.044,-0.349,80.4,91.6,40.527363,-3.423302,624.4,4,5,324.8,5.273
81.78,1,0.031,-0.015,0.022,-0.017,-0.018,0.014,-1.559,-0.041,-0.351,80.4,91.6,40.527363,-3.423302,624.4,4,5,324.8,5.273
81.88,1,-0.009,0.002,0.001,0.003,-0.009,0.01,-1.561,-0.041,-0.353,80.4,91.6,40.527363,-3.423302,624.4,4,5,324.8,5.273
81.98,1,-0.07,0.015,-0.024,-0.03,0.003,-0.006,-1.561,-0.042,-0.356,81.34,92.2,40.527557,-3.423473,623.9,4,5,326.6,4.57
82.08,1,-0.049,0.006,-0.007,-0.054,0.005,-0.011,-1.561,-0.044,-0.358,81.34,92.2,40.527557,-3.423473,623.9,4,5,326.6,4.57
82.18,1,0.022,-0.011,0.026,-0.011,-0.004,0.005,-1.564,-0.045,-0.36,81.34,92.2,40.527557,-3.423473,623.9,4,5,326.6,4.57
82.28,1,0.024,0.016,-0.01,-0.0,0.005,0.002,-1.564,-0.048,-0.363,81.34,92.2,40.527557,-3.423473,623.9,4,5,326.6,4.57
82.38,1,0.017,0.006,-0.007,0.019,0.008,-0.002,-1.562,-0.053,-0.365,81.34,92.2,40.527557,-3.423473,623.9,4,5,326.6,4.57
82.49,1,-0.033,0.001,-0.022,-0.002,0.008,-0.013,-1.559,-0.051,-0.367,81.34,92.2,40.527557,-3.423473,623.9,4,5,326.6,4.57
82.58,1,0.003,-0.015,-0.01,-0.007,-0.007,-0.015,-1.556,-0.048,-0.369,81.34,92.2,40.527557,-3.423473,623.9,4,5,326.6,4.57
82.68,1,-0.007,0.003,0.003,-0.007,-0.006,-0.004,-1.556,-0.052,-0.372,81.34,92.2,40.527557,-3.423473,623.9,4,5,326.6,4.57
82.78,1,-0.005,-0.018,-0.013,-0.002,-0.013,-0.0,-1.555,-0.055,-0.374,81.34,92.2,40.527557,-3.423473,623.9,4,5,326.6,4.57
82.88,1,-0.048,0.023,-0.058,-0.026,0.009,-0.034,-1.555,-0.056,-0.376,81.34,92.2,40.527557,-3.423473,623.9,4,5,326.6,4.57
82.98,1,0.003,-0.031,-0.017,-0.022,-0.006,-0.032,-1.557,-0.056,-0.377,82.33,93.6,40.527763,-3.423628,623.5,4,5,329.1,4.219
83.09,1,-0.047,-0.029,-0.0,-0.016,-0.021,-0.014,-1.55,-0.055,-0.378,82.33,93.6,40.527763,-3.423628,623.5,4,5,329.1,4.219
83.18,1,0.006,-0.033,-0.03,-0.016,-0.023,-0.017,-1.549,-0.059,-0.38,82.33,93.6,40.527763,-3.423628,623.5,4,5,329.1,4.219
83.28,1,-0.058,-0.027,-0.01,-0.03,-0.032,-0.013,-1.549,-0.061,-0.38,82.33,93.6,40.527763,-3.423628,623.5,4,5,329.1,4.219
83.39,1,0.001,-0.013,-0.013,-0.024,-0.024,-0.015,-1.553,-0.057,-0.382,82.33,93.6,40.527763,-3.423628,623.5,4,5,329.1,4.219
83.49,1,-0.013,-0.027,-0.034,-0.01,-0.025,-0.023,-1.552,-0.052,-0.382,82.33,93.6,40.527763,-3.423628,623.5,4,5,329.1,4.219
83.58,1,-0.037,-0.022,-0.051,-0.036,-0.016,-0.042,-1.551,-0.05,-0.382,82.33,93.6,40.527763,-3.423628,623.5,4,5,329.1,4.219
83.69,1,-0.014,-0.047,-0.032,-0.019,-0.031,-0.033,-1.549,-0.045,-0.381,82.33,93.6,40.527763,-3.423628,623.5,4,5,329.1,4.219
83.78,1,0.037,-0.067,-0.003,0.01,-0.051,-0.025,-1.546,-0.04,-0.381,82.33,93.6,40.527763,-3.423628,623.5,4,5,329.1,4.219
83.88,1,0.033,-0.064,0.007,0.022,-0.059,-0.006,-1.547,-0.039,-0.38,82.33,93.6,40.527763,-3.423628,623.5,4,5,329.1,4.219
83.98,1,-0.085,-0.059,-0.039,-0.015,-0.06,-0.015,-1.546,-0.042,-0.378,83.37,94.0,40.527966,-3.423779,623.4,4,5,331.5,4.922
84.08,1,-0.032,-0.046,-0.025,-0.047,-0.06,-0.025,-1.546,-0.042,-0.377,83.37,94.0,40.527966,-3.423779,623.4,4,5,331.5,4.922
84.18,1,0.019,-0.064,0.013,-0.008,-0.056,-0.01,-1.545,-0.043,-0.376,83.37,94.0,40.527966,-3.423779,623.4,4,5,331.5,4.922
84.29,1,0.056,-0.079,-0.009,0.022,-0.069,-0.008,-1.541,-0.036,-0.374,83.37,94.0,40.527966,-3.423779,623.4,4,5,331.5,4.922
84.39,1,-0.042,-0.052,-0.011,0.009,-0.065,-0.003,-1.542,-0.033,-0.373,83.37,94.0,40.527966,-3.423779,623.4,4,5,331.5,4.922
84.48,1,-0.069,-0.049,-0.008,-0.041,-0.053,-0.013,-1.544,-0.03,-0.372,83.37,94.0,40.527966,-3.423779,623.4,4,5,331.5,4.922
84.58,1,0.034,-0.042,-0.007,-0.018,-0.046,-0.007,-1.54,-0.025,-0.37,83.37,94.0,40.527966,-3.423779,623.4,4,5,331.5,4.922
84.68,1,0.027,-0.04,-0.001,0.009,-0.044,-0.007,-1.539,-0.023,-0.369,83.37,94.0,40.527966,-3.423779,623.4,4,5,331.5,4.922
84.79,1,-0.014,-0.045,0.013,0.011,-0.043,0.009,-1.541,-0.022,-0.367,83.37,94.0,40.527966,-3.423779,623.4,4,5,331.5,4.922
84.9,1,-0.021,-0.043,0.007,-0.009,-0.045,0.003,-1.539,-0.021,-0.365,83.37,94.0,40.527966,-3.423779,623.4,4,5,331.5,4.922
85.0,1,-0.021,-0.031,-0.002,-0.017,-0.04,0.004,-1.534,-0.02,-0.363,84.38,94.1,40.528175,-3.423933,622.9,4,5,332.6,3.516
85.09,1,-0.034,-0.05,0.01,-0.028,-0.035,0.004,-1.534,-0.023,-0.362,84.38,94.1,40.528175,-3.423933,622.9,4,5,332.6,3.516
85.19,1,-0.023,-0.042,-0.01,-0.024,-0.046,-0.001,-1.533,-0.024,-0.36,84.38,94.1,40.528175,-3.423933,622.9,4,5,332.6,3.516
85.29,1,0.01,-0.058,0.02,-0.012,-0.054,0.006,-1.536,-0.016,-0.358,84.38,94.1,40.528175,-3.423933,622.9,4,5,332.6,3.516
85.39,1,-0.021,-0.023,0.003,-0.011,-0.038,0.009,-1.537,-0.013,-0.356,84.38,94.1,40.528175,-3.423933,622.9,4,5,332.6,3.516
85.49,1,-0.035,0.003,-0.01,-0.02,-0.024,0.001,-1.535,-0.011,-0.355,84.38,94.1,40.528175,-3.423933,622.9,4,5,332.6,3.516
85.59,1,0.019,-0.014,0.01,-0.009,-0.012,0.001,-1.537,-0.01,-0.353,84.38,94.1,40.528175,-3.423933,622.9,4,5,332.6,3.516
85.69,1,0.021,-0.025,-0.021,0.006,-0.011,-0.007,-1.538,-0.008,-0.352,84.38,94.1,40.528175,-3.423933,622.9,4,5,332.6,3.516
85.79,1,0.042,-0.018,-0.03,0.017,-0.02,-0.015,-1.536,-0.006,-0.35,84.38,94.1,40.528175,-3.423933,622.9,4,5,332.6,3.516
85.89,1,-0.011,-0.019,-0.026,0.021,-0.021,-0.02,-1.534,-0.006,-0.348,84.38,94.1,40.528175,-3.423933,622.9,4,5,332.6,3.516
85.99,1,0.0,-0.03,-0.069,0.005,-0.021,-0.049,-1.526,-0.01,-0.346,85.4,94.4,40.528385,-3.424077,622.6,4,5,333.3,1.758
86.1,1,-0.026,0.01,0.006,-0.01,-0.015,-0.027,-1.523,-0.013,-0.345,85.4,94.4,40.528385,-3.424077,622.6,4,5,333.3,1.758
86.19,1,-0.011,0.002,0.005,-0.016,-0.001,-0.012,-1.521,-0.013,-0.343,85.4,94.4,40.528385,-3.424077,622.6,4,5,333.3,1.758
86.29,1,-0.073,0.004,-0.046,-0.028,0.002,-0.014,-1.52,-0.011,-0.341,85.4,94.4,40.528385,-3.424077,622.6,4,5,333.3,1.758
86.39,1,0.007,-0.035,-0.033,-0.035,-0.007,-0.035,-1.52,-0.006,-0.339,85.4,94.4,40.528385,-3.424077,622.6,4,5,333.3,1.758
86.49,1,-0.022,-0.011,-0.001,-0.013,-0.018,-0.017,-1.515,-0.008,-0.338,85.4,94.4,40.528385,-3.424077,622.6,4,5,333.3,1.758
86.59,1,-0.05,0.012,-0.013,-0.028,-0.004,-0.007,-1.509,-0.01,-0.336,85.4,94.4,40.528385,-3.424077,622.6,4,5,333.3,1.758
86.69,1,0.027,0.002,0.014,-0.018,-0.0,-0.007,-1.506,-0.009,-0.334,85.4,94.4,40.528385,-3.424077,622.6,4,5,333.3,1.758
86.8,1,-0.005,0.001,-0.007,-0.001,-0.0,0.003,-1.508,-0.01,-0.332,85.4,94.4,40.528385,-3.424077,622.6,4,5,333.3,1.758
86.89,1,-0.026,-0.018,-0.008,-0.008,-0.007,-0.006,-1.507,-0.008,-0.33,85.4,94.4,40.528385,-3.424077,622.6,4,5,333.3,1.758
86.99,1,0.036,-0.007,-0.004,0.001,-0.01,-0.007,-1.508,-0.011,-0.327,86.33,94.4,40.528595,-3.424214,622.1,3,5,333.3,0.703
87.09,1,0.063,-0.008,-0.033,0.036,-0.006,-0.018,-1.509,-0.01,-0.325,86.33,94.4,40.528595,-3.424214,622.1,3,5,333.3,0.703
87.19,1,0.001,-0.009,-0.007,0.028,-0.006,-0.011,-1.51,-0.011,-0.323,86.33,94.4,40.528595,-3.424214,622.1,3,5,333.3,0.703
87.29,1,-0.035,-0.001,-0.023,-0.001,-0.005,-0.016,-1.511,-0.011,-0.321,86.33,94.4,40.528595,-3.424214,622.1,3,5,333.3,0.703
87.4,1,-0.064,-0.0,-0.047,-0.043,-0.001,-0.033,-1.51,-0.012,-0.318,86.33,94.4,40.528595,-3.424214,622.1,3,5,333.3,0.703
87.49,1,0.014,-0.043,-0.025,-0.016,-0.024,-0.03,-1.508,-0.011,-0.316,86.33,94.4,40.528595,-3.424214,622.1,3,5,333.3,0.703
87.59,1,-0.072,-0.02,0.002,-0.032,-0.03,-0.02,-1.508,-0.007,-0.312,86.33,94.4,40.528595,-3.424214,622.1,3,5,333.3,0.703
87.69,1,-0.058,-0.036,-0.015,-0.06,-0.026,-0.011,-1.507,-0.008,-0.309,86.33,94.4,40.528595,-3.424214,622.1,3,5,333.3,0.703
87.79,1,-0.067,-0.045,-0.01,-0.056,-0.035,-0.008,-1.507,-0.01,-0.306,86.33,94.4,40.528595,-3.424214,622.1,3,5,333.3,0.703
87.89,1,-0.002,-0.015,0.007,-0.035,-0.03,-0.003,-1.505,-0.009,-0.303,86.33,94.4,40.528595,-3.424214,622.1,3,5,333.3,0.703
88.0,1,0.029,-0.05,-0.019,-0.005,-0.033,-0.013,-1.501,-0.011,-0.3,87.35,92.4,40.528805,-3.424357,621.8,4,5,333.3,0.0
88.1,1,-0.026,-0.033,0.011,-0.005,-0.035,-0.004,-1.5,-0.012,-0.296,87.35,92.4,40.528805,-3.424357,621.8,4,5,333.3,0.0
88.2,1,-0.077,-0.022,-0.027,-0.035,-0.033,-0.01,-1.496,-0.012,-0.293,87.35,92.4,40.528805,-3.424357,621.8,4,5,333.3,0.0
88.3,1,0.028,-0.036,0.028,-0.02,-0.033,0.006,-1.495,-0.012,-0.29,87.35,92.4,40.528805,-3.424357,621.8,4,5,333.3,0.0
88.4,1,0.051,-0.042,-0.006,0.032,-0.032,0.011,-1.495,-0.013,-0.287,87.35,92.4,40.528805,-3.424357,621.8,4,5,333.3,0.0
88.5,1,-0.074,-0.011,-0.026,-0.012,-0.028,-0.012,-1.494,-0.013,-0.284,87.35,92.4,40.528805,-3.424357,621.8,4,5,333.3,0.0
88.6,1,0.001,-0.026,0.031,-0.028,-0.028,-0.006,-1.492,-0.009,-0.28,87.35,92.4,40.528805,-3.424357,621.8,4,5,333.3,0.0
88.7,1,0.0,-0.025,0.003,-0.012,-0.023,0.016,-1.49,-0.006,-0.277,87.35,92.4,40.528805,-3.424357,621.8,4,5,333.3,0.0
88.8,1,-0.04,-0.024,-0.023,-0.02,-0.021,-0.01,-1.485,-0.004,-0.274,87.35,92.4,40.528805,-3.424357,621.8,4,5,333.3,0.0
88.9,1,0.026,-0.034,0.016,-0.007,-0.031,0.002,-1.485,-0.0,-0.271,87.35,92.4,40.528805,-3.424357,621.8,4,5,333.3,0.0
89.0,1,-0.0,-0.01,-0.008,-0.0,-0.02,-0.003,-1.488,-0.003,-0.268,88.42,91.3,40.529007,-3.42449,621.1,3,5,332.9,0.352
89.1,1,-0.007,-0.004,-0.006,-0.0,-0.011,-0.006,-1.49,-0.004,-0.265,88.42,91.3,40.529007,-3.42449,621.1,3,5,332.9,0.352
89.2,1,-0.015,0.008,0.001,-0.003,-0.005,0.001,-1.491,-0.004,-0.262,88.42,91.3,40.529007,-3.42449,621.1,3,5,332.9,0.352
89.3,1,-0.059,-0.045,-0.028,-0.029,-0.017,-0.012,-1.492,-0.003,-0.258,88.42,91.3,40.529007,-3.42449,621.1,3,5,332.9,0.352
89.45,1,-0.138,-0.044,0.01,-0.079,-0.034,-0.007,-1.494,-0.006,-0.252,88.42,91.3,40.529007,-3.42449,621.1,3,5,332.9,0.352
89.5,1,-0.087,-0.02,0.004,-0.111,-0.038,0.001,-1.496,-0.009,-0.251,88.42,91.3,40.529007,-3.42449,621.1,3,5,332.9,0.352
89.6,1,0.105,-0.026,0.025,-0.012,-0.022,0.01,-1.498,-0.007,-0.248,88.42,91.3,40.529007,-3.42449,621.1,3,5,332.9,0.352
89.7,1,0.132,-0.021,-0.005,0.076,-0.021,0.014,-1.492,-0.006,-0.245,88.42,91.3,40.529007,-3.42449,621.1,3,5,332.9,0.352
89.8,1,-0.001,-0.02,-0.037,0.068,-0.024,-0.016,-1.488,-0.006,-0.241,88.42,91.3,40.529007,-3.42449,621.1,3,5,332.9,0.352
89.9,1,-0.064,0.032,-0.01,-0.007,0.001,-0.022,-1.487,-0.002,-0.238,88.42,91.3,40.529007,-3.42449,621.1,3,5,332.9,0.352
90.0,1,-0.073,0.025,0.021,-0.048,0.017,0.002,-1.491,-0.005,-0.235,89.34,90.7,40.529198,-3.424621,620.6,3,5,332.2,1.055
90.1,1,-0.038,0.006,-0.002,-0.057,0.021,0.002,-1.492,-0.004,-0.232,89.34,90.7,40.529198,-3.424621,620.6,3,5,332.2,1.055
90.21,1,0.049,-0.005,0.025,-0.009,0.002,0.009,-1.492,-0.007,-0.229,89.34,90.7,40.529198,-3.424621,620.6,3,5,332.2,1.055
90.3,1,0.051,0.024,-0.006,0.04,0.002,0.008,-1.49,-0.011,-0.227,89.34,90.7,40.529198,-3.424621,620.6,3,5,332.2,1.055
90.4,1,0.034,0.036,0.0,0.036,0.029,0.001,-1.489,-0.017,-0.225,89.34,90.7,40.529198,-3.424621,620.6,3,5,332.2,1.055
90.5,1,0.028,0.032,0.005,0.031,0.033,0.008,-1.488,-0.02,-0.223,89.34,90.7,40.529198,-3.424621,620.6,3,5,332.2,1.055
90.6,1,0.007,0.023,0.004,0.021,0.021,0.003,-1.485,-0.021,-0.222,89.34,90.7,40.529198,-3.424621,620.6,3,5,332.2,1.055
90.7,1,-0.049,0.031,-0.039,-0.005,0.026,-0.015,-1.482,-0.021,-0.219,89.34,90.7,40.529198,-3.424621,620.6,3,5,332.2,1.055
90.8,1,-0.13,0.002,-0.025,-0.079,0.026,-0.027,-1.484,-0.017,-0.217,89.34,90.7,40.529198,-3.424621,620.6,3,5,332.2,1.055
90.91,1,-0.145,0.021,0.007,-0.11,0.014,-0.005,-1.488,-0.014,-0.215,89.34,90.7,40.529198,-3.424621,620.6,3,5,332.2,1.055
91.01,1,-0.133,-0.04,0.023,-0.146,-0.003,-0.002,-1.492,-0.012,-0.212,90.34,89.1,40.529396,-3.424757,620.0,3,5,331.5,1.406
91.11,1,0.066,-0.0,0.08,-0.048,-0.004,0.042,-1.492,-0.013,-0.21,90.34,89.1,40.529396,-3.424757,620.0,3,5,331.5,1.406
91.21,1,0.124,0.006,-0.003,0.06,-0.008,0.036,-1.487,-0.013,-0.208,90.34,89.1,40.529396,-3.424757,620.0,3,5,331.5,1.406
91.3,1,0.031,-0.002,0.012,0.064,-0.009,0.016,-1.484,-0.011,-0.205,90.34,89.1,40.529396,-3.424757,620.0,3,5,331.5,1.406
91.41,1,0.004,0.022,-0.012,0.033,0.006,-0.001,-1.484,-0.015,-0.202,90.34,89.1,40.529396,-3.424757,620.0,3,5,331.5,1.406
91.51,1,0.035,-0.001,0.01,0.023,0.013,0.009,-1.483,-0.013,-0.2,90.34,89.1,40.529396,-3.424757,620.0,3,5,331.5,1.406
91.62,1,0.016,0.009,-0.006,0.023,0.009,-0.003,-1.483,-0.014,-0.197,90.34,89.1,40.529396,-3.424757,620.0,3,5,331.5,1.406
91.72,1,-0.061,0.027,-0.009,-0.009,0.015,0.001,-1.484,-0.014,-0.194,90.34,89.1,40.529396,-3.424757,620.0,3,5,331.5,1.406
91.81,1,-0.033,0.008,0.014,-0.035,0.02,-0.001,-1.488,-0.01,-0.191,90.34,89.1,40.529396,-3.424757,620.0,3,5,331.5,1.406
91.91,1,0.036,-0.001,0.014,-0.004,0.004,0.012,-1.489,-0.007,-0.189,90.34,89.1,40.529396,-3.424757,620.0,3,5,331.5,1.406
92.01,1,0.031,-0.009,0.017,0.023,-0.006,0.01,-1.487,-0.008,-0.186,91.4,87.9,40.529598,-3.424909,619.7,4,5,331.2,1.055
92.11,1,-0.015,0.009,0.03,-0.001,0.006,0.021,-1.487,-0.007,-0.183,91.4,87.9,40.529598,-3.424909,619.7,4,5,331.2,1.055
92.21,1,-0.031,0.028,0.02,-0.012,0.013,0.025,-1.491,-0.008,-0.18,91.4,87.9,40.529598,-3.424909,619.7,4,5,331.2,1.055
92.31,1,-0.059,0.016,0.014,-0.032,0.017,0.017,-1.492,-0.005,-0.177,91.4,87.9,40.529598,-3.424909,619.7,4,5,331.2,1.055
92.41,1,-0.062,-0.02,0.018,-0.055,0.003,0.014,-1.495,-0.003,-0.174,91.4,87.9,40.529598,-3.424909,619.7,4,5,331.2,1.055
92.51,1,-0.041,-0.013,0.005,-0.056,-0.006,0.012,-1.498,0.0,-0.171,91.4,87.9,40.529598,-3.424909,619.7,4,5,331.2,1.055
92.61,1,0.025,-0.015,0.018,-0.011,-0.013,0.015,-1.501,-0.0,-0.168,91.4,87.9,40.529598,-3.424909,619.7,4,5,331.2,1.055
92.71,1,-0.015,0.006,0.002,-0.006,-0.008,0.009,-1.502,0.0,-0.165,91.4,87.9,40.529598,-3.424909,619.7,4,5,331.2,1.055
92.81,1,0.017,0.006,0.003,-0.0,0.003,0.012,-1.503,0.001,-0.162,91.4,87.9,40.529598,-3.424909,619.7,4,5,331.2,1.055
92.93,1,0.059,-0.006,0.025,0.034,-0.004,0.009,-1.503,0.0,-0.159,91.4,87.9,40.529598,-3.424909,619.7,4,5,331.2,1.055
93.01,1,-0.004,0.027,0.024,0.017,0.015,0.019,-1.503,-0.005,-0.156,92.34,87.4,40.529793,-3.425053,619.4,4,5,330.5,1.055
93.11,1,0.002,0.0,0.01,0.006,0.01,0.014,-1.503,-0.005,-0.153,92.34,87.4,40.529793,-3.425053,619.4,4,5,330.5,1.055
93.21,1,0.013,-0.005,0.005,0.012,0.003,0.007,-1.499,-0.003,-0.15,92.34,87.4,40.529793,-3.425053,619.4,4,5,330.5,1.055
93.32,1,0.02,-0.035,0.006,0.013,-0.02,0.008,-1.498,0.001,-0.147,92.34,87.4,40.529793,-3.425053,619.4,4,5,330.5,1.055
93.41,1,-0.001,-0.007,0.0,0.006,-0.015,0.009,-1.495,0.005,-0.144,92.34,87.4,40.529793,-3.425053,619.4,4,5,330.5,1.055
93.52,1,-0.009,0.012,-0.013,-0.004,-0.005,-0.005,-1.493,0.003,-0.14,92.34,87.4,40.529793,-3.425053,619.4,4,5,330.5,1.055
93.62,1,0.009,-0.003,0.009,0.005,0.003,0.001,-1.493,0.005,-0.137,92.34,87.4,40.529793,-3.425053,619.4,4,5,330.5,1.055
93.71,1,-0.063,-0.039,-0.003,-0.015,-0.013,0.002,-1.493,0.009,-0.132,92.34,87.4,40.529793,-3.425053,619.4,4,5,330.5,1.055
93.81,1,0.027,-0.078,0.055,-0.03,-0.042,0.019,-1.497,0.013,-0.128,92.34,87.4,40.529793,-3.425053,619.4,4,5,330.5,1.055
93.91,1,0.015,0.019,-0.022,-0.013,-0.026,0.01,-1.497,0.014,-0.125,92.34,87.4,40.529793,-3.425053,619.4,4,5,330.5,1.055
94.01,1,-0.003,-0.096,-0.04,0.01,-0.043,-0.018,-1.501,0.014,-0.119,93.34,86.6,40.529968,-3.425184,619.1,4,5,329.4,1.758
94.12,1,-0.072,-0.011,0.05,-0.002,-0.048,0.012,-1.503,0.012,-0.115,93.34,86.6,40.529968,-3.425184,619.1,4,5,329.4,1.758
94.21,1,-0.021,-0.024,0.026,-0.007,-0.027,0.039,-1.503,0.011,-0.109,93.34,86.6,40.529968,-3.425184,619.1,4,5,329.4,1.758
94.31,1,-0.04,0.007,-0.005,-0.052,-0.022,0.003,-1.503,0.013,-0.104,93.34,86.6,40.529968,-3.425184,619.1,4,5,329.4,1.758
94.41,1,-0.023,-0.03,0.028,-0.034,-0.02,0.009,-1.507,0.017,-0.099,93.34,86.6,40.529968,-3.425184,619.1,4,5,329.4,1.758
94.52,1,0.048,-0.031,0.024,-0.001,-0.024,0.022,-1.508,0.015,-0.094,93.34,86.6,40.529968,-3.425184,619.1,4,5,329.4,1.758
94.61,1,0.056,0.004,0.005,0.042,-0.013,0.018,-1.506,0.014,-0.09,93.34,86.6,40.529968,-3.425184,619.1,4,5,329.4,1.758
94.72,1,0.002,-0.011,0.004,0.023,-0.007,0.003,-1.504,0.014,-0.085,93.34,86.6,40.529968,-3.425184,619.1,4,5,329.4,1.758
94.82,1,-0.037,-0.022,-0.017,-0.003,-0.013,-0.003,-1.502,0.015,-0.08,93.34,86.6,40.529968,-3.425184,619.1,4,5,329.4,1.758
94.91,1,-0.063,-0.008,0.001,-0.035,-0.017,-0.004,-1.503,0.019,-0.076,93.34,86.6,40.529968,-3.425184,619.1,4,5,329.4,1.758
95.01,1,-0.023,-0.004,-0.024,-0.039,-0.006,-0.005,-1.506,0.018,-0.072,94.38,85.8,40.530148,-3.425334,618.1,4,5,328.4,2.109
95.12,1,0.0,0.009,0.01,-0.018,0.001,-0.002,-1.507,0.017,-0.068,94.38,85.8,40.530148,-3.425334,618.1,4,5,328.4,2.109
95.22,1,-0.059,0.001,-0.001,-0.03,0.004,-0.006,-1.506,0.019,-0.063,94.38,85.8,40.530148,-3.425334,618.1,4,5,328.4,2.109
95.33,1,-0.096,-0.011,-0.01,-0.065,-0.005,-0.008,-1.51,0.02,-0.058,94.38,85.8,40.530148,-3.425334,618.1,4,5,328.4,2.109
95.42,1,-0.039,0.003,0.021,-0.065,-0.004,0.006,-1.515,0.019,-0.054,94.38,85.8,40.530148,-3.425334,618.1,4,5,328.4,2.109
95.52,1,0.035,-0.017,0.016,-0.017,-0.008,0.015,-1.516,0.019,-0.05,94.38,85.8,40.530148,-3.425334,618.1,4,5,328.4,2.109
95.62,1,0.077,-0.022,-0.014,0.032,-0.013,0.002,-1.513,0.019,-0.045,94.38,85.8,40.530148,-3.425334,618.1,4,5,328.4,2.109
95.72,1,0.066,-0.015,-0.012,0.055,-0.016,-0.006,-1.511,0.017,-0.041,94.38,85.8,40.530148,-3.425334,618.1,4,5,328.4,2.109
95.82,1,-0.04,0.01,-0.005,0.029,-0.006,-0.007,-1.51,0.013,-0.036,94.38,85.8,40.530148,-3.425334,618.1,4,5,328.4,2.109
95.93,1,0.003,0.013,0.006,-0.004,0.01,0.0,-1.512,0.009,-0.032,94.38,85.8,40.530148,-3.425334,618.1,4,5,328.4,2.109
96.02,1,0.047,-0.006,0.005,0.025,-0.001,0.007,-1.512,0.006,-0.027,95.34,86.1,40.530327,-3.425489,617.9,4,5,326.2,3.164
96.12,1,-0.026,-0.006,-0.028,0.001,-0.003,-0.01,-1.51,0.007,-0.023,95.34,86.1,40.530327,-3.425489,617.9,4,5,326.2,3.164
96.22,1,-0.077,0.0,0.003,-0.032,-0.002,-0.01,-1.51,0.011,-0.019,95.34,86.1,40.530327,-3.425489,617.9,4,5,326.2,3.164
96.32,1,-0.098,0.023,-0.011,-0.073,0.007,-0.009,-1.512,0.012,-0.015,95.34,86.1,40.530327,-3.425489,617.9,4,5,326.2,3.164
96.43,1,-0.061,0.016,0.035,-0.08,0.013,0.007,-1.514,0.013,-0.011,95.34,86.1,40.530327,-3.425489,617.9,4,5,326.2,3.164
96.52,1,0.058,-0.01,0.001,-0.016,0.005,0.011,-1.511,0.013,-0.008,95.34,86.1,40.530327,-3.425489,617.9,4,5,326.2,3.164
96.62,1,0.015,0.007,-0.003,0.02,0.002,0.004,-1.509,0.012,-0.004,95.34,86.1,40.530327,-3.425489,617.9,4,5,326.2,3.164
96.72,1,0.011,0.005,0.041,0.01,0.005,0.016,-1.513,0.012,-0.001,95.34,86.1,40.530327,-3.425489,617.9,4,5,326.2,3.164
96.82,1,-0.009,0.015,0.007,0.001,0.01,0.022,-1.516,0.013,0.003,95.34,86.1,40.530327,-3.425489,617.9,4,5,326.2,3.164
96.92,1,-0.063,0.021,-0.001,-0.023,0.018,0.008,-1.515,0.017,0.007,95.34,86.1,40.530327,-3.425489,617.9,4,5,326.2,3.164
97.02,1,-0.042,0.022,-0.006,-0.038,0.022,-0.007,-1.515,0.016,0.01,96.35,84.3,40.530506,-3.425652,618.0,4,5,324.1,4.219
97.12,1,-0.033,0.014,0.022,-0.042,0.015,0.01,-1.518,0.015,0.013,96.35,84.3,40.530506,-3.425652,618.0,4,5,324.1,4.219
97.23,1,-0.034,0.005,-0.021,-0.031,0.004,0.006,-1.518,0.012,0.016,96.35,84.3,40.530506,-3.425652,618.0,4,5,324.1,4.219
97.32,1,-0.046,0.022,0.018,-0.045,0.024,-0.004,-1.52,0.012,0.019,96.35,84.3,40.530506,-3.425652,618.0,4,5,324.1,4.219
97.42,1,0.07,0.014,0.076,0.007,0.017,0.043,-1.521,0.012,0.022,96.35,84.3,40.530506,-3.425652,618.0,4,5,324.1,4.219
97.52,1,-0.006,-0.003,0.006,0.026,0.004,0.035,-1.519,0.014,0.025,96.35,84.3,40.530506,-3.425652,618.0,4,5,324.1,4.219
97.63,1,-0.006,0.006,0.022,-0.021,0.005,0.013,-1.522,0.013,0.028,96.35,84.3,40.530506,-3.425652,618.0,4,5,324.1,4.219
97.72,1,0.084,0.01,0.017,0.037,0.004,0.023,-1.523,0.013,0.031,96.35,84.3,40.530506,-3.425652,618.0,4,5,324.1,4.219
97.83,1,0.008,0.0,-0.024,0.047,0.006,-0.003,-1.521,0.008,0.034,96.35,84.3,40.530506,-3.425652,618.0,4,5,324.1,4.219
97.93,1,-0.08,0.025,-0.005,-0.021,0.012,-0.007,-1.522,0.005,0.036,96.35,84.3,40.530506,-3.425652,618.0,4,5,324.1,4.219
98.02,1,-0.103,0.015,0.022,-0.067,0.018,0.009,-1.523,0.007,0.039,97.34,83.4,40.530666,-3.425817,617.6,4,5,322.0,4.219
98.12,1,-0.062,0.032,-0.014,-0.072,0.022,0.002,-1.524,0.006,0.041,97.34,83.4,40.530666,-3.425817,617.6,4,5,322.0,4.219
98.22,1,-0.017,0.029,-0.015,-0.047,0.025,-0.008,-1.525,0.001,0.044,97.34,83.4,40.530666,-3.425817,617.6,4,5,322.0,4.219
98.33,1,-0.002,0.046,0.015,-0.026,0.037,-0.005,-1.527,-0.002,0.046,97.34,83.4,40.530666,-3.425817,617.6,4,5,322.0,4.219
98.43,1,0.01,0.043,0.026,-0.003,0.043,0.014,-1.53,-0.005,0.047,97.34,83.4,40.530666,-3.425817,617.6,4,5,322.0,4.219
98.52,1,-0.008,0.027,-0.012,-0.001,0.033,0.007,-1.53,-0.01,0.048,97.34,83.4,40.530666,-3.425817,617.6,4,5,322.0,4.219
98.62,1,-0.0,0.025,-0.011,-0.008,0.033,-0.008,-1.529,-0.015,0.05,97.34,83.4,40.530666,-3.425817,617.6,4,5,322.0,4.219
98.73,1,0.029,0.011,0.019,0.008,0.023,0.009,-1.53,-0.019,0.051,97.34,83.4,40.530666,-3.425817,617.6,4,5,322.0,4.219
98.83,1,0.026,0.017,-0.004,0.023,0.013,-0.001,-1.53,-0.02,0.052,97.34,83.4,40.530666,-3.425817,617.6,4,5,322.0,4.219
98.93,1,-0.08,0.012,-0.033,-0.015,0.016,-0.011,-1.532,-0.022,0.054,97.34,83.4,40.530666,-3.425817,617.6,4,5,322.0,4.219
99.04,1,-0.025,0.019,-0.004,-0.036,0.016,-0.012,-1.535,-0.023,0.055,98.33,83.8,40.530819,-3.425987,617.3,4,5,320.6,3.516
99.13,1,-0.015,0.031,-0.008,-0.024,0.024,-0.007,-1.538,-0.022,0.056,98.33,83.8,40.530819,-3.425987,617.3,4,5,320.6,3.516
99.23,1,-0.009,0.026,-0.034,-0.016,0.026,-0.025,-1.533,-0.021,0.057,98.33,83.8,40.530819,-3.425987,617.3,4,5,320.6,3.516
99.33,1,0.008,0.008,0.015,-0.006,0.023,-0.005,-1.533,-0.018,0.059,98.33,83.8,40.530819,-3.425987,617.3,4,5,320.6,3.516
99.43,1,-0.02,0.004,0.005,-0.01,0.01,0.003,-1.534,-0.016,0.06,98.33,83.8,40.530819,-3.425987,617.3,4,5,320.6,3.516
99.53,1,-0.07,-0.025,-0.04,-0.037,-0.007,-0.016,-1.532,-0.012,0.061,98.33,83.8,40.530819,-3.425987,617.3,4,5,320.6,3.516
99.63,1,-0.053,-0.003,-0.008,-0.046,-0.011,-0.017,-1.531,-0.01,0.064,98.33,83.8,40.530819,-3.425987,617.3,4,5,320.6,3.516
99.73,1,-0.032,-0.014,-0.016,-0.045,-0.007,-0.019,-1.532,-0.01,0.066,98.33,83.8,40.530819,-3.425987,617.3,4,5,320.6,3.516
99.83,1,0.004,-0.029,0.01,-0.021,-0.022,-0.001,-1.535,-0.01,0.068,98.33,83.8,40.530819,-3.425987,617.3,4,5,320.6,3.516
99.93,1,-0.069,-0.008,-0.017,-0.034,-0.014,-0.005,-1.535,-0.01,0.07,98.33,83.8,40.530819,-3.425987,617.3,4,5,320.6,3.516
100.03,1,-0.049,0.001,-0.003,-0.05,-0.01,-0.007,-1.536,-0.008,0.073,99.37,84.2,40.530972,-3.426165,616.5,4,5,319.6,2.461
100.13,1,0.022,-0.007,0.006,-0.019,-0.002,0.002,-1.538,-0.006,0.075,99.37,84.2,40.530972,-3.426165,616.5,4,5,319.6,2.461
100.24,1,0.016,-0.002,0.014,0.007,-0.005,0.005,-1.534,0.001,0.078,99.37,84.2,40.530972,-3.426165,616.5,4,5,319.6,2.461
100.34,1,-0.049,-0.001,-0.006,-0.016,-0.004,-0.003,-1.536,0.005,0.081,99.37,84.2,40.530972,-3.426165,616.5,4,5,319.6,2.461
100.43,1,-0.016,-0.056,-0.016,-0.025,-0.026,-0.001,-1.539,0.005,0.084,99.37,84.2,40.530972,-3.426165,616.5,4,5,319.6,2.461
100.53,1,-0.021,0.024,-0.019,-0.019,-0.009,-0.011,-1.533,0.004,0.087,99.37,84.2,40.530972,-3.426165,616.5,4,5,319.6,2.461
100.63,1,-0.061,-0.007,0.019,-0.037,-0.004,-0.001,-1.53,0.002,0.09,99.37,84.2,40.530972,-3.426165,616.5,4,5,319.6,2.461
100.73,1,-0.018,-0.023,-0.013,-0.029,-0.011,0.0,-1.531,0.001,0.093,99.37,84.2,40.530972,-3.426165,616.5,4,5,319.6,2.461
100.83,1,-0.035,0.011,0.024,-0.032,-0.006,-0.0,-1.527,0.005,0.095,99.37,84.2,40.530972,-3.426165,616.5,4,5,319.6,2.461
100.94,1,-0.013,-0.001,0.015,-0.027,-0.002,0.011,-1.524,0.01,0.098,99.37,84.2,40.530972,-3.426165,616.5,4,5,319.6,2.461
101.04,1,-0.018,0.013,0.024,-0.021,0.007,0.02,-1.525,0.007,0.101,100.34,84.5,40.531132,-3.426346,616.0,4,5,318.5,2.109
101.13,1,0.003,0.01,0.011,-0.006,0.005,0.018,-1.526,0.005,0.103,100.34,84.5,40.531132,-3.426346,616.0,4,5,318.5,2.109
101.23,1,-0.007,0.016,0.005,-0.008,0.014,0.011,-1.526,0.005,0.105,100.34,84.5,40.531132,-3.426346,616.0,4,5,318.5,2.109
101.34,1,-0.022,0.003,0.011,-0.017,0.013,0.009,-1.529,0.002,0.108,100.34,84.5,40.531132,-3.426346,616.0,4,5,318.5,2.109
101.43,1,0.004,-0.012,0.016,-0.008,-0.003,0.01,-1.534,0.002,0.11,100.34,84.5,40.531132,-3.426346,616.0,4,5,318.5,2.109
101.54,1,-0.059,0.011,-0.008,-0.025,0.003,0.005,-1.535,0.001,0.112,100.34,84.5,40.531132,-3.426346,616.0,4,5,318.5,2.109
101.63,1,-0.031,0.002,0.014,-0.038,0.002,0.004,-1.54,-0.001,0.114,100.34,84.5,40.531132,-3.426346,616.0,4,5,318.5,2.109
101.73,1,-0.019,0.015,-0.015,-0.021,0.006,0.001,-1.543,-0.003,0.115,100.34,84.5,40.531132,-3.426346,616.0,4,5,318.5,2.109
101.83,1,0.018,0.012,-0.004,-0.003,0.013,-0.003,-1.543,-0.004,0.117,100.34,84.5,40.531132,-3.426346,616.0,4,5,318.5,2.109
101.93,1,-0.006,0.01,-0.0,-0.007,0.021,0.004,-1.542,-0.003,0.119,100.34,84.5,40.531132,-3.426346,616.0,4,5,318.5,2.109
102.03,1,-0.044,0.019,-0.003,-0.02,0.011,-0.009,-1.541,-0.004,0.121,101.36,84.2,40.531284,-3.426536,615.8,4,5,316.8,2.812
102.14,1,-0.117,0.023,-0.037,-0.058,0.013,-0.015,-1.544,-0.005,0.123,101.36,84.2,40.531284,-3.426536,615.8,4,5,316.8,2.812
102.25,1,-0.174,0.037,-0.006,-0.125,0.03,-0.022,-1.55,-0.005,0.125,101.36,84.2,40.531284,-3.426536,615.8,4,5,316.8,2.812
102.34,1,-0.07,0.019,0.064,-0.12,0.025,0.014,-1.554,-0.002,0.127,101.36,84.2,40.531284,-3.426536,615.8,4,5,316.8,2.812
102.44,1,0.098,-0.004,0.01,-0.019,0.013,0.037,-1.555,0.0,0.128,101.36,84.2,40.531284,-3.426536,615.8,4,5,316.8,2.812
102.54,1,0.085,-0.003,0.005,0.059,-0.0,0.01,-1.55,0.001,0.13,101.36,84.2,40.531284,-3.426536,615.8,4,5,316.8,2.812
102.64,1,-0.014,0.048,-0.008,0.036,0.017,0.004,-1.549,0.001,0.131,101.36,84.2,40.531284,-3.426536,615.8,4,5,316.8,2.812
102.75,1,-0.05,0.036,0.009,-0.016,0.035,0.001,-1.551,0.002,0.133,101.36,84.2,40.531284,-3.426536,615.8,4,5,316.8,2.812
102.84,1,-0.034,0.024,0.022,-0.03,0.031,0.015,-1.553,-0.0,0.135,101.36,84.2,40.531284,-3.426536,615.8,4,5,316.8,2.812
102.94,1,-0.056,0.002,0.003,-0.04,0.018,0.007,-1.554,-0.002,0.136,101.36,84.2,40.531284,-3.426536,615.8,4,5,316.8,2.812
103.04,1,-0.045,0.007,0.015,-0.053,0.007,0.01,-1.555,-0.002,0.138,102.34,84.2,40.531441,-3.426717,615.5,4,5,315.0,3.516
103.15,1,-0.003,-0.002,0.015,-0.028,0.007,0.016,-1.56,-0.001,0.14,102.34,84.2,40.531441,-3.426717,615.5,4,5,315.0,3.516
103.24,1,0.006,-0.015,-0.009,-0.005,-0.008,0.006,-1.562,-0.001,0.141,102.34,84.2,40.531441,-3.426717,615.5,4,5,315.0,3.516
103.35,1,-0.03,0.017,-0.0,-0.018,0.007,0.0,-1.564,-0.003,0.143,102.34,84.2,40.531441,-3.426717,615.5,4,5,315.0,3.516
103.45,1,-0.009,0.006,-0.002,-0.014,0.004,-0.002,-1.565,-0.005,0.145,102.34,84.2,40.531441,-3.426717,615.5,4,5,315.0,3.516
103.54,1,-0.042,0.025,0.013,-0.021,0.013,0.003,-1.565,-0.005,0.146,102.34,84.2,40.531441,-3.426717,615.5,4,5,315.0,3.516
103.64,1,-0.068,0.002,-0.017,-0.047,0.013,-0.001,-1.566,-0.006,0.148,102.34,84.2,40.531441,-3.426717,615.5,4,5,315.0,3.516
103.74,1,-0.036,0.016,0.006,-0.048,0.012,0.0,-1.567,-0.006,0.149,102.34,84.2,40.531441,-3.426717,615.5,4,5,315.0,3.516
103.84,1,-0.029,0.008,0.003,-0.036,0.014,0.002,-1.569,-0.007,0.15,102.34,84.2,40.531441,-3.426717,615.5,4,5,315.0,3.516
103.95,1,-0.014,0.014,0.013,-0.027,0.01,0.006,-1.57,-0.007,0.152,102.34,84.2,40.531441,-3.426717,615.5,4,5,315.0,3.516
104.04,1,-0.006,-0.009,0.007,-0.016,0.003,0.008,-1.57,-0.008,0.154,103.35,84.7,40.53159,-3.426921,615.4,4,5,313.9,2.812
104.14,1,-0.027,0.009,0.005,-0.015,0.003,0.004,-1.571,-0.012,0.155,103.35,84.7,40.53159,-3.426921,615.4,4,5,313.9,2.812
104.24,1,-0.037,0.026,0.021,-0.029,0.013,0.012,-1.57,-0.014,0.156,103.35,84.7,40.53159,-3.426921,615.4,4,5,313.9,2.812
104.34,1,0.008,-0.003,0.019,-0.019,0.007,0.012,-1.573,-0.014,0.158,103.35,84.7,40.53159,-3.426921,615.4,4,5,313.9,2.812
104.44,1,-0.025,-0.003,-0.008,-0.007,-0.002,0.012,-1.576,-0.013,0.159,103.35,84.7,40.53159,-3.426921,615.4,4,5,313.9,2.812
104.55,1,-0.035,-0.008,-0.018,-0.025,-0.002,-0.009,-1.575,-0.013,0.161,103.35,84.7,40.53159,-3.426921,615.4,4,5,313.9,2.812
104.64,1,-0.054,0.022,0.027,-0.037,0.011,0.012,-1.575,-0.013,0.162,103.35,84.7,40.53159,-3.426921,615.4,4,5,313.9,2.812
104.74,1,-0.04,-0.006,-0.014,-0.048,0.006,0.002,-1.575,-0.011,0.164,103.35,84.7,40.53159,-3.426921,615.4,4,5,313.9,2.812
104.84,1,-0.044,0.0,-0.016,-0.047,-0.002,-0.009,-1.576,-0.012,0.165,103.35,84.7,40.53159,-3.426921,615.4,4,5,313.9,2.812
104.94,1,-0.051,0.002,0.027,-0.043,-0.0,0.002,-1.578,-0.012,0.167,103.35,84.7,40.53159,-3.426921,615.4,4,5,313.9,2.812
105.05,1,-0.01,0.0,-0.012,-0.031,0.002,0.005,-1.575,-0.011,0.169,104.39,85.3,40.531738,-3.427131,615.4,4,5,312.5,2.461
105.14,1,0.011,-0.015,0.012,-0.009,-0.005,0.003,-1.572,-0.011,0.17,104.39,85.3,40.531738,-3.427131,615.4,4,5,312.5,2.461
105.24,1,-0.042,-0.026,-0.003,-0.019,-0.018,-0.001,-1.573,-0.01,0.172,104.39,85.3,40.531738,-3.427131,615.4,4,5,312.5,2.461
105.35,1,-0.038,0.003,-0.008,-0.034,-0.011,-0.001,-1.575,-0.01,0.174,104.39,85.3,40.531738,-3.427131,615.4,4,5,312.5,2.461
105.44,1,-0.013,-0.012,0.015,-0.027,-0.007,0.003,-1.58,-0.01,0.176,104.39,85.3,40.531738,-3.427131,615.4,4,5,312.5,2.461
105.55,1,-0.036,-0.015,0.003,-0.02,-0.014,0.008,-1.58,-0.009,0.178,104.39,85.3,40.531738,-3.427131,615.4,4,5,312.5,2.461
105.65,1,-0.067,0.003,0.003,-0.044,-0.009,0.002,-1.582,-0.01,0.18,104.39,85.3,40.531738,-3.427131,615.4,4,5,312.5,2.461
105.75,1,-0.029,-0.006,0.005,-0.047,-0.001,0.004,-1.583,-0.01,0.182,104.39,85.3,40.531738,-3.427131,615.4,4,5,312.5,2.461
105.86,1,0.004,-0.01,-0.025,-0.021,-0.006,-0.005,-1.584,-0.008,0.184,104.39,85.3,40.531738,-3.427131,615.4,4,5,312.5,2.461
105.95,1,-0.044,-0.015,-0.022,-0.024,-0.009,-0.022,-1.586,-0.007,0.186,104.39,85.3,40.531738,-3.427131,615.4,4,5,312.5,2.461
106.05,1,-0.048,-0.006,-0.008,-0.037,-0.011,-0.008,-1.588,-0.007,0.188,105.34,85.2,40.531887,-3.427347,615.7,4,5,311.1,2.812
106.15,1,-0.029,-0.01,0.002,-0.037,-0.01,-0.008,-1.59,-0.005,0.19,105.34,85.2,40.531887,-3.427347,615.7,4,5,311.1,2.812
106.25,1,-0.034,-0.017,-0.003,-0.031,-0.014,-0.006,-1.589,-0.003,0.192,105.34,85.2,40.531887,-3.427347,615.7,4,5,311.1,2.812
106.35,1,-0.051,-0.024,-0.024,-0.039,-0.015,-0.014,-1.588,-0.005,0.194,105.34,85.2,40.531887,-3.427347,615.7,4,5,311.1,2.812
106.46,1,-0.043,-0.018,-0.026,-0.051,-0.017,-0.022,-1.592,-0.004,0.196,105.34,85.2,40.531887,-3.427347,615.7,4,5,311.1,2.812
106.55,1,-0.014,-0.012,0.015,-0.032,-0.021,-0.004,-1.593,-0.003,0.198,105.34,85.2,40.531887,-3.427347,615.7,4,5,311.1,2.812
106.65,1,-0.027,-0.001,-0.019,-0.017,-0.01,-0.008,-1.59,-0.002,0.2,105.34,85.2,40.531887,-3.427347,615.7,4,5,311.1,2.812
106.75,1,-0.054,0.033,-0.025,-0.039,0.01,-0.013,-1.593,-0.002,0.202,105.34,85.2,40.531887,-3.427347,615.7,4,5,311.1,2.812
106.85,1,-0.049,0.004,-0.026,-0.048,0.018,-0.02,-1.592,-0.0,0.204,105.34,85.2,40.531887,-3.427347,615.7,4,5,311.1,2.812
106.95,1,-0.009,-0.016,-0.004,-0.038,0.002,-0.016,-1.59,-0.0,0.205,105.34,85.2,40.531887,-3.427347,615.7,4,5,311.1,2.812
107.06,1,-0.029,0.004,-0.024,-0.019,-0.009,-0.017,-1.589,0.001,0.207,106.34,85.8,40.532028,-3.427562,616.2,4,5,309.4,3.164
107.15,1,-0.035,0.012,-0.013,-0.03,0.006,-0.02,-1.59,0.001,0.208,106.34,85.8,40.532028,-3.427562,616.2,4,5,309.4,3.164
107.25,1,-0.035,0.012,-0.029,-0.033,0.01,-0.022,-1.593,-0.002,0.209,106.34,85.8,40.532028,-3.427562,616.2,4,5,309.4,3.164
107.35,1,-0.023,0.017,-0.019,-0.037,0.014,-0.025,-1.595,-0.006,0.209,106.34,85.8,40.532028,-3.427562,616.2,4,5,309.4,3.164
107.46,1,-0.022,0.015,-0.001,-0.028,0.015,-0.012,-1.597,-0.006,0.21,106.34,85.8,40.532028,-3.427562,616.2,4,5,309.4,3.164
107.55,1,-0.005,0.003,-0.029,-0.01,0.006,-0.018,-1.598,-0.008,0.211,106.34,85.8,40.532028,-3.427562,616.2,4,5,309.4,3.164
107.66,1,-0.043,0.022,-0.018,-0.019,0.012,-0.018,-1.598,-0.008,0.212,106.34,85.8,40.532028,-3.427562,616.2,4,5,309.4,3.164
107.75,1,-0.03,0.019,-0.012,-0.03,0.018,-0.016,-1.595,-0.007,0.213,106.34,85.8,40.532028,-3.427562,616.2,4,5,309.4,3.164
107.86,1,-0.001,-0.002,0.002,-0.024,0.014,-0.007,-1.596,-0.01,0.214,106.34,85.8,40.532028,-3.427562,616.2,4,5,309.4,3.164
107.95,1,-0.012,0.02,-0.009,-0.007,0.012,-0.002,-1.596,-0.013,0.214,106.34,85.8,40.532028,-3.427562,616.2,4,5,309.4,3.164
108.05,1,-0.047,0.008,-0.021,-0.025,0.01,-0.017,-1.594,-0.014,0.215,107.36,86.0,40.532162,-3.427783,616.6,4,5,307.3,3.867
108.15,1,-0.019,-0.002,0.004,-0.033,0.01,-0.01,-1.593,-0.014,0.216,107.36,86.0,40.532162,-3.427783,616.6,4,5,307.3,3.867
108.26,1,-0.01,0.015,-0.005,-0.016,0.002,-0.003,-1.592,-0.015,0.217,107.36,86.0,40.532162,-3.427783,616.6,4,5,307.3,3.867
108.36,1,-0.043,0.007,-0.031,-0.027,0.011,-0.015,-1.593,-0.014,0.218,107.36,86.0,40.532162,-3.427783,616.6,4,5,307.3,3.867
108.45,1,-0.039,0.001,-0.022,-0.04,0.005,-0.02,-1.595,-0.013,0.219,107.36,86.0,40.532162,-3.427783,616.6,4,5,307.3,3.867
108.55,1,-0.003,0.016,0.0,-0.021,0.011,-0.015,-1.597,-0.014,0.219,107.36,86.0,40.532162,-3.427783,616.6,4,5,307.3,3.867
108.65,1,-0.042,0.014,-0.024,-0.027,0.014,-0.02,-1.597,-0.015,0.22,107.36,86.0,40.532162,-3.427783,616.6,4,5,307.3,3.867
108.75,1,-0.087,-0.003,-0.003,-0.052,0.008,-0.008,-1.595,-0.014,0.222,107.36,86.0,40.532162,-3.427783,616.6,4,5,307.3,3.867
108.86,1,-0.034,-0.015,-0.011,-0.054,-0.006,-0.008,-1.594,-0.015,0.223,107.36,86.0,40.532162,-3.427783,616.6,4,5,307.3,3.867
108.96,1,-0.038,-0.026,-0.013,-0.044,-0.014,-0.011,-1.595,-0.014,0.225,107.36,86.0,40.532162,-3.427783,616.6,4,5,307.3,3.867
109.06,1,-0.057,0.013,-0.0,-0.045,-0.005,-0.007,-1.596,-0.013,0.227,108.35,86.7,40.532288,-3.428016,617.2,4,5,306.6,2.812
109.16,1,-0.034,-0.017,0.013,-0.051,-0.01,0.002,-1.596,-0.011,0.228,108.35,86.7,40.532288,-3.428016,617.2,4,5,306.6,2.812
109.26,1,-0.016,0.005,-0.014,-0.032,-0.007,-0.004,-1.593,-0.007,0.23,108.35,86.7,40.532288,-3.428016,617.2,4,5,306.6,2.812
109.36,1,-0.043,-0.026,-0.031,-0.019,-0.011,-0.012,-1.593,-0.006,0.232,108.35,86.7,40.532288,-3.428016,617.2,4,5,306.6,2.812
109.46,1,-0.018,-0.03,0.006,-0.034,-0.021,-0.012,-1.594,-0.002,0.233,108.35,86.7,40.532288,-3.428016,617.2,4,5,306.6,2.812
109.56,1,-0.003,-0.001,-0.023,-0.02,-0.017,-0.01,-1.592,-0.002,0.235,108.35,86.7,40.532288,-3.428016,617.2,4,5,306.6,2.812
109.66,1,0.003,0.014,-0.001,-0.005,0.001,-0.014,-1.59,-0.004,0.236,108.35,86.7,40.532288,-3.428016,617.2,4,5,306.6,2.812
109.76,1,-0.049,-0.004,-0.008,-0.019,0.0,-0.007,-1.591,-0.006,0.238,108.35,86.7,40.532288,-3.428016,617.2,4,5,306.6,2.812
109.86,1,-0.034,-0.005,-0.032,-0.039,0.002,-0.016,-1.591,-0.007,0.239,108.35,86.7,40.532288,-3.428016,617.2,4,5,306.6,2.812
109.96,1,-0.017,-0.009,0.017,-0.021,-0.007,-0.006,-1.592,-0.007,0.241,108.35,86.7,40.532288,-3.428016,617.2,4,5,306.6,2.812
110.06,1,-0.064,0.009,-0.013,-0.039,-0.002,-0.0,-1.593,-0.006,0.242,109.38,86.0,40.532413,-3.428245,618.3,4,5,304.8,2.461
110.16,1,-0.004,0.014,-0.007,-0.019,0.004,-0.004,-1.591,-0.005,0.244,109.38,86.0,40.532413,-3.428245,618.3,4,5,304.8,2.461
110.26,1,-0.012,0.012,0.004,-0.025,0.01,-0.006,-1.592,-0.003,0.245,109.38,86.0,40.532413,-3.428245,618.3,4,5,304.8,2.461
110.36,1,-0.018,-0.005,0.002,-0.02,0.003,-0.003,-1.591,-0.002,0.247,109.38,86.0,40.532413,-3.428245,618.3,4,5,304.8,2.461
110.56,1,-0.021,0.007,-0.012,-0.028,0.001,-0.008,-1.585,0.003,0.25,109.38,86.0,40.532413,-3.428245,618.3,4,5,304.8,2.461
110.66,1,-0.037,-0.002,0.001,-0.033,0.006,-0.009,-1.584,-0.003,0.252,109.38,86.0,40.532413,-3.428245,618.3,4,5,304.8,2.461
110.76,1,0.005,-0.008,0.003,-0.015,-0.001,0.001,-1.586,-0.008,0.253,109.38,86.0,40.532413,-3.428245,618.3,4,5,304.8,2.461
110.86,1,-0.016,0.016,0.012,-0.011,0.003,0.007,-1.589,-0.011,0.255,109.38,86.0,40.532413,-3.428245,618.3,4,5,304.8,2.461
110.96,1,-0.021,-0.001,-0.024,-0.017,0.002,-0.006,-1.587,-0.008,0.257,109.38,86.0,40.532413,-3.428245,618.3,4,5,304.8,2.461
111.06,1,-0.05,-0.009,0.008,-0.027,-0.0,-0.002,-1.586,-0.006,0.258,109.38,86.0,40.532413,-3.428245,618.3,4,5,304.8,2.461
111.16,1,-0.011,0.007,0.035,-0.033,0.001,0.012,-1.588,-0.006,0.26,110.39,85.5,40.532536,-3.428478,619.1,4,5,303.4,3.164
111.27,1,-0.013,-0.005,0.011,-0.016,-0.001,0.018,-1.59,-0.006,0.261,110.39,85.5,40.532536,-3.428478,619.1,4,5,303.4,3.164
111.37,1,0.026,0.007,-0.011,-0.0,0.001,0.004,-1.588,-0.005,0.263,110.39,85.5,40.532536,-3.428478,619.1,4,5,303.4,3.164
111.46,1,0.006,0.025,0.016,0.01,0.013,0.006,-1.588,-0.005,0.265,110.39,85.5,40.532536,-3.428478,619.1,4,5,303.4,3.164
111.56,1,-0.004,0.008,0.021,0.003,0.013,0.012,-1.591,-0.007,0.266,110.39,85.5,40.532536,-3.428478,619.1,4,5,303.4,3.164
111.66,1,0.004,-0.007,0.014,-0.001,0.005,0.016,-1.593,-0.011,0.268,110.39,85.5,40.532536,-3.428478,619.1,4,5,303.4,3.164
111.77,1,-0.025,-0.009,0.018,-0.009,-0.003,0.014,-1.592,-0.011,0.27,110.39,85.5,40.532536,-3.428478,619.1,4,5,303.4,3.164
111.86,1,-0.068,-0.02,-0.011,-0.031,-0.012,0.006,-1.592,-0.01,0.271,110.39,85.5,40.532536,-3.428478,619.1,4,5,303.4,3.164
111.97,1,0.001,-0.022,0.017,-0.031,-0.015,0.006,-1.592,-0.01,0.273,110.39,85.5,40.532536,-3.428478,619.1,4,5,303.4,3.164
112.06,1,0.039,0.015,0.038,0.003,-0.004,0.02,-1.591,-0.01,0.274,110.39,85.5,40.532536,-3.428478,619.1,4,5,303.4,3.164
112.17,1,0.0,0.003,-0.003,0.012,-0.001,0.016,-1.59,-0.012,0.276,111.35,85.9,40.53265,-3.428717,620.5,4,5,301.3,3.516
112.27,1,-0.019,-0.013,0.016,-0.0,-0.008,0.011,-1.59,-0.01,0.277,111.35,85.9,40.53265,-3.428717,620.5,4,5,301.3,3.516
112.37,1,-0.002,0.002,0.027,-0.008,-0.001,0.02,-1.589,-0.009,0.279,111.35,85.9,40.53265,-3.428717,620.5,4,5,301.3,3.516
112.47,1,-0.023,0.024,0.024,-0.011,0.009,0.024,-1.587,-0.011,0.279,111.35,85.9,40.53265,-3.428717,620.5,4,5,301.3,3.516
112.58,1,-0.052,0.021,-0.007,-0.031,0.015,0.007,-1.588,-0.013,0.28,111.35,85.9,40.53265,-3.428717,620.5,4,5,301.3,3.516
112.67,1,0.002,0.035,0.034,-0.025,0.027,0.019,-1.589,-0.015,0.281,111.35,85.9,40.53265,-3.428717,620.5,4,5,301.3,3.516
112.77,1,-0.011,0.011,0.001,-0.009,0.025,0.013,-1.587,-0.017,0.282,111.35,85.9,40.53265,-3.428717,620.5,4,5,301.3,3.516
112.87,1,-0.02,0.018,-0.001,-0.016,0.015,0.002,-1.588,-0.016,0.282,111.35,85.9,40.53265,-3.428717,620.5,4,5,301.3,3.516
112.98,1,0.01,0.014,0.032,-0.011,0.015,0.016,-1.591,-0.013,0.283,111.35,85.9,40.53265,-3.428717,620.5,4,5,301.3,3.516
113.07,1,0.014,0.011,0.008,0.005,0.015,0.016,-1.593,-0.012,0.284,111.35,85.9,40.53265,-3.428717,620.5,4,5,301.3,3.516
113.18,1,-0.012,0.01,0.001,0.006,0.009,0.009,-1.591,-0.013,0.285,112.35,85.8,40.532764,-3.428956,621.5,4,5,299.5,3.867
113.28,1,-0.003,0.005,0.02,-0.006,0.007,0.011,-1.59,-0.016,0.285,112.35,85.8,40.532764,-3.428956,621.5,4,5,299.5,3.867
113.37,1,-0.007,0.019,0.029,-0.002,0.014,0.02,-1.592,-0.017,0.286,112.35,85.8,40.532764,-3.428956,621.5,4,5,299.5,3.867
113.47,1,-0.024,-0.012,-0.019,-0.021,0.006,0.005,-1.595,-0.018,0.287,112.35,85.8,40.532764,-3.428956,621.5,4,5,299.5,3.867
113.57,1,-0.007,-0.009,-0.008,-0.006,-0.005,0.001,-1.597,-0.018,0.287,112.35,85.8,40.532764,-3.428956,621.5,4,5,299.5,3.867
113.67,1,-0.015,-0.001,0.014,-0.012,-0.006,0.002,-1.601,-0.02,0.288,112.35,85.8,40.532764,-3.428956,621.5,4,5,299.5,3.867
113.78,1,-0.009,-0.002,-0.006,-0.014,-0.004,-0.002,-1.6,-0.022,0.289,112.35,85.8,40.532764,-3.428956,621.5,4,5,299.5,3.867
113.87,1,-0.022,0.008,0.005,-0.017,0.003,-0.0,-1.601,-0.022,0.29,112.35,85.8,40.532764,-3.428956,621.5,4,5,299.5,3.867
113.97,1,-0.009,-0.008,0.02,-0.011,-0.001,0.01,-1.601,-0.021,0.29,112.35,85.8,40.532764,-3.428956,621.5,4,5,299.5,3.867
114.07,1,-0.006,0.004,-0.023,-0.011,0.004,-0.001,-1.598,-0.019,0.291,112.35,85.8,40.532764,-3.428956,621.5,4,5,299.5,3.867
114.18,1,-0.008,-0.002,0.032,-0.006,-0.0,0.011,-1.598,-0.018,0.292,113.36,85.4,40.532864,-3.429211,622.6,4,5,298.5,2.812
114.27,1,-0.032,-0.001,-0.015,-0.02,-0.005,0.003,-1.597,-0.017,0.294,113.36,85.4,40.532864,-3.429211,622.6,4,5,298.5,2.812
114.38,1,-0.017,-0.01,0.011,-0.018,-0.007,-0.001,-1.597,-0.015,0.295,113.36,85.4,40.532864,-3.429211,622.6,4,5,298.5,2.812
114.48,1,-0.045,-0.008,0.002,-0.033,-0.003,0.003,-1.599,-0.013,0.296,113.36,85.4,40.532864,-3.429211,622.6,4,5,298.5,2.812
114.57,1,-0.002,-0.016,0.0,-0.024,-0.01,-0.002,-1.596,-0.009,0.297,113.36,85.4,40.532864,-3.429211,622.6,4,5,298.5,2.812
114.67,1,0.02,-0.023,-0.004,0.003,-0.022,0.002,-1.596,-0.01,0.298,113.36,85.4,40.532864,-3.429211,622.6,4,5,298.5,2.812
114.77,1,0.007,0.001,0.007,0.006,-0.012,-0.001,-1.595,-0.009,0.299,113.36,85.4,40.532864,-3.429211,622.6,4,5,298.5,2.812
114.87,1,0.006,-0.028,0.002,0.004,-0.009,0.005,-1.596,-0.007,0.301,113.36,85.4,40.532864,-3.429211,622.6,4,5,298.5,2.812
114.98,1,0.005,-0.003,0.011,0.01,-0.015,0.008,-1.595,-0.006,0.302,113.36,85.4,40.532864,-3.429211,622.6,4,5,298.5,2.812
115.08,1,-0.024,0.009,0.019,-0.007,-0.003,0.009,-1.592,-0.007,0.303,113.36,85.4,40.532864,-3.429211,622.6,4,5,298.5,2.812
115.17,1,0.006,0.0,0.015,-0.007,0.002,0.014,-1.593,-0.007,0.303,114.35,85.9,40.532974,-3.42947,623.7,4,5,297.4,2.109
115.28,1,0.006,0.019,0.024,0.007,0.006,0.021,-1.593,-0.006,0.304,114.35,85.9,40.532974,-3.42947,623.7,4,5,297.4,2.109
115.37,1,-0.038,-0.007,-0.004,-0.011,0.006,0.008,-1.592,-0.006,0.305,114.35,85.9,40.532974,-3.42947,623.7,4,5,297.4,2.109
115.48,1,-0.064,0.038,-0.009,-0.039,0.011,0.003,-1.591,-0.004,0.305,114.35,85.9,40.532974,-3.42947,623.7,4,5,297.4,2.109
115.58,1,0.021,0.021,0.026,-0.026,0.023,0.006,-1.591,-0.005,0.306,114.35,85.9,40.532974,-3.42947,623.7,4,5,297.4,2.109
115.68,1,-0.037,0.01,0.006,-0.021,0.024,0.011,-1.59,-0.007,0.307,114.35,85.9,40.532974,-3.42947,623.7,4,5,297.4,2.109
115.78,1,-0.01,-0.012,0.023,-0.018,0.003,0.016,-1.591,-0.008,0.307,114.35,85.9,40.532974,-3.42947,623.7,4,5,297.4,2.109
115.88,1,0.002,-0.007,0.029,-0.006,-0.005,0.029,-1.592,-0.01,0.308,114.35,85.9,40.532974,-3.42947,623.7,4,5,297.4,2.109
115.98,1,-0.006,-0.007,0.004,-0.005,-0.007,0.007,-1.593,-0.013,0.308,114.35,85.9,40.532974,-3.42947,623.7,4,5,297.4,2.109
116.08,1,0.006,-0.001,0.008,0.0,-0.004,0.015,-1.595,-0.011,0.308,114.35,85.9,40.532974,-3.42947,623.7,4,5,297.4,2.109
116.18,1,-0.017,-0.007,-0.001,-0.006,-0.006,0.002,-1.595,-0.015,0.309,115.37,85.9,40.53307,-3.429725,624.8,4,5,295.7,2.812
116.28,1,-0.0,-0.008,0.005,-0.008,-0.005,0.005,-1.599,-0.015,0.309,115.37,85.9,40.53307,-3.429725,624.8,4,5,295.7,2.812
116.38,1,0.002,-0.005,0.011,0.002,-0.009,0.009,-1.6,-0.015,0.31,115.37,85.9,40.53307,-3.429725,624.8,4,5,295.7,2.812
116.48,1,-0.017,0.007,0.009,-0.008,-0.0,0.006,-1.6,-0.014,0.31,115.37,85.9,40.53307,-3.429725,624.8,4,5,295.7,2.812
116.58,1,-0.008,0.016,-0.013,-0.016,0.015,0.002,-1.601,-0.011,0.311,115.37,85.9,40.53307,-3.429725,624.8,4,5,295.7,2.812
116.68,1,-0.02,0.016,-0.001,-0.007,0.009,-0.007,-1.599,-0.008,0.311,115.37,85.9,40.53307,-3.429725,624.8,4,5,295.7,2.812
116.78,1,-0.004,0.016,0.018,-0.01,0.016,0.005,-1.599,-0.008,0.311,115.37,85.9,40.53307,-3.429725,624.8,4,5,295.7,2.812
116.89,1,-0.009,0.016,0.009,-0.004,0.012,0.013,-1.598,-0.007,0.312,115.37,85.9,40.53307,-3.429725,624.8,4,5,295.7,2.812
116.98,1,-0.029,0.025,0.014,-0.021,0.023,0.009,-1.596,-0.003,0.312,115.37,85.9,40.53307,-3.429725,624.8,4,5,295.7,2.812
117.08,1,0.027,0.006,0.02,-0.002,0.017,0.013,-1.595,-0.001,0.312,115.37,85.9,40.53307,-3.429725,624.8,4,5,295.7,2.812
117.18,1,0.003,0.025,0.002,0.007,0.015,0.016,-1.594,0.001,0.313,116.35,85.7,40.533157,-3.429981,626.0,4,5,293.9,3.516
117.28,1,-0.029,0.03,-0.017,-0.006,0.024,0.001,-1.593,0.001,0.313,116.35,85.7,40.533157,-3.429981,626.0,4,5,293.9,3.516
117.38,1,-0.008,0.011,0.01,-0.015,0.02,-0.002,-1.594,0.0,0.313,116.35,85.7,40.533157,-3.429981,626.0,4,5,293.9,3.516
117.49,1,-0.004,0.015,0.003,-0.008,0.014,0.003,-1.595,0.0,0.313,116.35,85.7,40.533157,-3.429981,626.0,4,5,293.9,3.516
117.59,1,-0.025,0.029,0.014,-0.013,0.021,0.01,-1.596,-0.002,0.313,116.35,85.7,40.533157,-3.429981,626.0,4,5,293.9,3.516
117.68,1,-0.023,0.011,-0.011,-0.023,0.019,-0.006,-1.599,-0.008,0.314,116.35,85.7,40.533157,-3.429981,626.0,4,5,293.9,3.516
117.78,1,-0.003,0.032,-0.021,-0.015,0.026,-0.007,-1.6,-0.008,0.314,116.35,85.7,40.533157,-3.429981,626.0,4,5,293.9,3.516
117.88,1,-0.016,0.014,-0.002,-0.009,0.019,-0.009,-1.601,-0.008,0.314,116.35,85.7,40.533157,-3.429981,626.0,4,5,293.9,3.516
117.98,1,-0.037,0.006,-0.024,-0.02,0.016,-0.011,-1.602,-0.012,0.315,116.35,85.7,40.533157,-3.429981,626.0,4,5,293.9,3.516
118.09,1,-0.025,0.004,0.005,-0.029,0.008,-0.01,-1.604,-0.015,0.315,116.35,85.7,40.533157,-3.429981,626.0,4,5,293.9,3.516
118.18,1,-0.003,0.014,0.01,-0.017,0.006,-0.002,-1.606,-0.014,0.315,117.39,85.8,40.533241,-3.430244,627.0,4,5,292.5,3.164
118.28,1,0.006,0.007,-0.004,-0.011,0.015,0.0,-1.606,-0.014,0.316,117.39,85.8,40.533241,-3.430244,627.0,4,5,292.5,3.164
118.38,1,-0.011,0.005,-0.009,0.002,0.004,-0.001,-1.605,-0.012,0.316,117.39,85.8,40.533241,-3.430244,627.0,4,5,292.5,3.164
118.49,1,-0.023,-0.006,-0.009,-0.012,0.002,-0.004,-1.603,-0.012,0.317,117.39,85.8,40.533241,-3.430244,627.0,4,5,292.5,3.164
118.59,1,0.02,-0.022,0.005,-0.004,-0.011,-0.004,-1.602,-0.009,0.318,117.39,85.8,40.533241,-3.430244,627.0,4,5,292.5,3.164
118.69,1,-0.026,-0.004,-0.024,-0.004,-0.011,-0.012,-1.599,-0.007,0.318,117.39,85.8,40.533241,-3.430244,627.0,4,5,292.5,3.164
118.79,1,-0.039,-0.005,-0.002,-0.027,-0.008,-0.013,-1.595,-0.007,0.319,117.39,85.8,40.533241,-3.430244,627.0,4,5,292.5,3.164
118.88,1,-0.036,0.007,-0.012,-0.032,-0.002,-0.003,-1.595,-0.003,0.319,117.39,85.8,40.533241,-3.430244,627.0,4,5,292.5,3.164
118.98,1,0.002,0.011,-0.003,-0.017,0.006,-0.006,-1.593,-0.001,0.32,117.39,85.8,40.533241,-3.430244,627.0,4,5,292.5,3.164
119.09,1,0.002,-0.001,0.004,-0.002,0.008,0.002,-1.593,-0.002,0.32,117.39,85.8,40.533241,-3.430244,627.0,4,5,292.5,3.164
119.19,1,-0.031,0.011,-0.017,-0.02,0.008,-0.012,-1.592,-0.004,0.32,118.35,85.8,40.533318,-3.430499,628.4,4,5,291.4,2.461
119.3,1,0.005,0.0,-0.007,-0.012,0.006,-0.009,-1.592,-0.005,0.321,118.35,85.8,40.533318,-3.430499,628.4,4,5,291.4,2.461
119.39,1,-0.005,0.004,0.017,-0.003,0.002,-0.001,-1.592,-0.005,0.321,118.35,85.8,40.533318,-3.430499,628.4,4,5,291.4,2.461
119.49,1,-0.029,0.029,-0.01,-0.014,0.013,0.006,-1.589,-0.004,0.322,118.35,85.8,40.533318,-3.430499,628.4,4,5,291.4,2.461
119.59,1,0.027,-0.006,0.013,-0.001,0.007,0.002,-1.59,-0.002,0.322,118.35,85.8,40.533318,-3.430499,628.4,4,5,291.4,2.461
119.7,1,-0.017,0.006,0.006,0.004,0.005,0.008,-1.59,-0.003,0.323,118.35,85.8,40.533318,-3.430499,628.4,4,5,291.4,2.461
119.79,1,-0.048,-0.024,-0.001,-0.026,-0.005,0.003,-1.589,-0.0,0.323,118.35,85.8,40.533318,-3.430499,628.4,4,5,291.4,2.461
119.9,1,-0.036,-0.014,0.009,-0.034,-0.015,0.006,-1.592,0.0,0.324,118.35,85.8,40.533318,-3.430499,628.4,4,5,291.4,2.461
120.0,1,-0.012,-0.017,0.026,-0.03,-0.017,0.01,-1.591,-0.001,0.325,118.35,85.8,40.533318,-3.430499,628.4,4,5,291.4,2.461
120.09,1,0.03,-0.001,0.02,-0.004,-0.01,0.022,-1.591,0.001,0.326,118.35,85.8,40.533318,-3.430499,628.4,4,5,291.4,2.461
120.19,1,-0.002,0.002,0.001,0.013,0.001,0.016,-1.589,0.001,0.328,119.34,85.9,40.533394,-3.430758,629.7,4,5,290.0,2.461
120.29,1,-0.025,-0.009,0.002,-0.007,-0.001,0.005,-1.589,-0.0,0.329,119.34,85.9,40.533394,-3.430758,629.7,4,5,290.0,2.461
120.39,1,0.009,-0.023,0.049,-0.008,-0.016,0.015,-1.591,0.003,0.33,119.34,85.9,40.533394,-3.430758,629.7,4,5,290.0,2.461
120.49,1,-0.046,0.0,-0.008,-0.016,-0.012,0.02,-1.59,0.005,0.33,119.34,85.9,40.533394,-3.430758,629.7,4,5,290.0,2.461
120.59,1,-0.061,-0.006,0.003,-0.044,-0.007,0.003,-1.589,0.005,0.331,119.34,85.9,40.533394,-3.430758,629.7,4,5,290.0,2.461
120.7,1,-0.044,0.009,0.012,-0.046,0.002,0.011,-1.589,0.003,0.332,119.34,85.9,40.533394,-3.430758,629.7,4,5,290.0,2.461
120.79,1,-0.02,-0.024,0.007,-0.028,-0.006,0.01,-1.591,0.003,0.334,119.34,85.9,40.533394,-3.430758,629.7,4,5,290.0,2.461
120.89,1,-0.026,0.017,0.023,-0.035,-0.003,0.014,-1.594,0.001,0.334,119.34,85.9,40.533394,-3.430758,629.7,4,5,290.0,2.461
121.0,1,0.064,-0.015,0.005,0.008,-0.001,0.013,-1.594,-0.0,0.336,119.34,85.9,40.533394,-3.430758,629.7,4,5,290.0,2.461
121.1,1,0.019,0.014,0.009,0.027,0.001,0.007,-1.595,-0.002,0.336,119.34,85.9,40.533394,-3.430758,629.7,4,5,290.0,2.461
121.2,1,-0.019,0.008,0.013,0.008,0.009,0.015,-1.596,-0.002,0.337,120.35,85.9,40.533459,-3.431022,630.7,4,5,288.3,3.164
121.29,1,-0.011,0.003,-0.02,-0.006,0.005,-0.003,-1.597,-0.003,0.337,120.35,85.9,40.533459,-3.431022,630.7,4,5,288.3,3.164
121.39,1,-0.021,-0.0,0.042,-0.018,0.001,0.01,-1.601,-0.005,0.337,120.35,85.9,40.533459,-3.431022,630.7,4,5,288.3,3.164
121.49,1,-0.037,0.007,-0.014,-0.023,0.003,0.006,-1.599,-0.007,0.338,120.35,85.9,40.533459,-3.431022,630.7,4,5,288.3,3.164
121.59,1,-0.045,0.014,0.0,-0.039,0.009,0.003,-1.597,-0.009,0.338,120.35,85.9,40.533459,-3.431022,630.7,4,5,288.3,3.164
121.7,1,0.004,-0.01,0.025,-0.019,0.0,0.009,-1.6,-0.013,0.338,120.35,85.9,40.533459,-3.431022,630.7,4,5,288.3,3.164
121.79,1,0.012,0.005,0.008,-0.002,0.003,0.013,-1.599,-0.014,0.338,120.35,85.9,40.533459,-3.431022,630.7,4,5,288.3,3.164
121.89,1,0.004,0.017,0.022,0.006,0.01,0.021,-1.595,-0.011,0.338,120.35,85.9,40.533459,-3.431022,630.7,4,5,288.3,3.164
121.99,1,0.061,0.004,0.001,0.03,0.004,0.01,-1.594,-0.011,0.338,120.35,85.9,40.533459,-3.431022,630.7,4,5,288.3,3.164
122.09,1,-0.035,0.011,0.018,0.009,0.01,0.004,-1.595,-0.013,0.337,120.35,85.9,40.533459,-3.431022,630.7,4,5,288.3,3.164
122.19,1,-0.076,0.008,-0.013,-0.049,0.009,0.006,-1.596,-0.011,0.337,121.34,84.8,40.53352,-3.431283,631.8,4,5,286.9,3.164
122.29,1,-0.033,0.015,0.015,-0.042,0.016,0.003,-1.597,-0.012,0.336,121.34,84.8,40.53352,-3.431283,631.8,4,5,286.9,3.164
122.4,1,0.009,0.014,0.004,-0.015,0.012,0.01,-1.597,-0.014,0.336,121.34,84.8,40.53352,-3.431283,631.8,4,5,286.9,3.164
122.49,1,-0.035,0.003,-0.041,-0.009,0.009,-0.013,-1.594,-0.016,0.336,121.34,84.8,40.53352,-3.431283,631.8,4,5,286.9,3.164
122.59,1,-0.053,0.019,0.016,-0.05,0.016,-0.009,-1.598,-0.014,0.336,121.34,84.8,40.53352,-3.431283,631.8,4,5,286.9,3.164
122.7,1,-0.007,0.016,-0.004,-0.029,0.014,0.004,-1.599,-0.016,0.335,121.34,84.8,40.53352,-3.431283,631.8,4,5,286.9,3.164
122.8,1,-0.011,0.012,0.0,-0.013,0.013,-0.004,-1.598,-0.017,0.335,121.34,84.8,40.53352,-3.431283,631.8,4,5,286.9,3.164
