Timestamp_Accel,SystemActivated,accelerometerXAxis,accelerometerYAxis,accelerometerZAxis,AccelX_KF,AccelY_KF,AccelZ_KF,gyroscopeXAxis,gyroscopeYAxis,gyroscopeZAxis,Timestamp_GPS,Speed,latitude,longitude,Altitude,VerticalAccuracy,HorizontalAccuracy,Course,Difcourse
7.33,0,-0.017,0.019,0.04,-0.009,0.011,0.048,-1.573,-0.007,-0.063,7.32,0.0,40.507305,-3.350181,606.1,30,483,-1.0,-1.0
7.43,0,0.004,0.024,0.032,-0.007,0.023,0.045,-1.577,-0.01,-0.063,7.32,0.0,40.507305,-3.350181,606.1,30,483,-1.0,-1.0
7.54,0,-0.014,-0.015,0.037,-0.002,0.008,0.04,-1.578,-0.009,-0.063,7.32,0.0,40.507305,-3.350181,606.1,30,483,-1.0,-1.0
7.63,0,0.009,0.026,-0.012,-0.007,0.014,0.019,-1.58,-0.007,-0.063,7.32,0.0,40.507305,-3.350181,606.1,30,483,-1.0,-1.0
7.73,0,0.052,0.013,0.005,0.025,0.011,0.002,-1.577,-0.006,-0.063,7.32,0.0,40.507305,-3.350181,606.1,30,483,-1.0,-1.0
7.83,0,-0.015,0.065,-0.04,0.025,0.031,-0.009,-1.579,-0.005,-0.063,7.32,0.0,40.507305,-3.350181,606.1,30,483,-1.0,-1.0
7.93,0,0.076,0.018,0.04,0.029,0.035,0.004,-1.58,-0.004,-0.063,7.32,0.0,40.507305,-3.350181,606.1,30,483,-1.0,-1.0
8.04,0,-0.011,0.031,0.026,0.017,0.03,0.018,-1.581,-0.006,-0.063,7.32,0.0,40.507305,-3.350181,606.1,30,483,-1.0,-1.0
8.14,0,-0.008,0.009,0.039,0.008,0.019,0.037,-1.586,-0.006,-0.063,7.32,0.0,40.507305,-3.350181,606.1,30,483,-1.0,-1.0
8.23,0,0.027,-0.021,0.062,0.006,0.008,0.037,-1.585,-0.004,-0.063,7.32,0.0,40.507305,-3.350181,606.1,30,483,-1.0,-1.0
8.33,0,0.015,0.011,0.019,0.012,0.007,0.04,-1.584,0.0,-0.063,8.32,37.9,40.505657,-3.354337,623.1,16,30,268.9,0.0
8.44,0,-0.0,0.039,0.029,0.022,0.011,0.027,-1.587,-0.001,-0.063,8.32,37.9,40.505657,-3.354337,623.1,16,30,268.9,0.0
8.54,0,-0.033,0.043,-0.016,-0.02,0.035,0.014,-1.59,-0.004,-0.063,8.32,37.9,40.505657,-3.354337,623.1,16,30,268.9,0.0
8.64,0,0.012,-0.024,0.008,-0.008,0.01,-0.003,-1.596,-0.002,-0.063,8.32,37.9,40.505657,-3.354337,623.1,16,30,268.9,0.0
8.75,0,-0.016,0.019,0.03,-0.005,0.005,0.018,-1.599,0.001,-0.063,8.32,37.9,40.505657,-3.354337,623.1,16,30,268.9,0.0
8.85,0,0.002,0.004,-0.037,0.004,0.008,0.003,-1.596,-0.003,-0.063,8.32,37.9,40.505657,-3.354337,623.1,16,30,268.9,0.0
8.93,0,0.029,-0.027,0.017,0.008,-0.007,-0.008,-1.593,-0.002,-0.063,8.32,37.9,40.505657,-3.354337,623.1,16,30,268.9,0.0
9.04,0,0.06,0.009,-0.021,0.02,-0.001,-0.001,-1.596,-0.003,-0.064,8.32,37.9,40.505657,-3.354337,623.1,16,30,268.9,0.0
9.14,0,0.001,0.028,-0.046,0.035,0.003,-0.026,-1.596,-0.005,-0.064,8.32,37.9,40.505657,-3.354337,623.1,16,30,268.9,0.0
9.24,0,0.054,0.061,-0.025,0.037,0.04,-0.029,-1.593,-0.007,-0.065,8.32,37.9,40.505657,-3.354337,623.1,16,30,268.9,0.0
9.34,0,0.016,0.01,-0.02,0.031,0.031,-0.026,-1.588,-0.007,-0.065,9.32,40.5,40.505695,-3.354385,602.5,3,5,271.8,0.0
9.44,0,0.001,0.012,-0.038,0.013,0.019,-0.032,-1.585,-0.006,-0.066,9.32,40.5,40.505695,-3.354385,602.5,3,5,271.8,0.0
9.54,0,-0.036,0.033,-0.006,-0.007,0.02,-0.021,-1.585,-0.007,-0.066,9.32,40.5,40.505695,-3.354385,602.5,3,5,271.8,0.0
9.64,0,-0.033,-0.021,-0.016,-0.023,0.001,-0.017,-1.584,-0.008,-0.067,9.32,40.5,40.505695,-3.354385,602.5,3,5,271.8,0.0
9.74,0,-0.001,0.015,-0.017,-0.026,0.011,-0.016,-1.581,-0.008,-0.068,9.32,40.5,40.505695,-3.354385,602.5,3,5,271.8,0.0
9.84,0,-0.009,-0.006,-0.008,-0.005,0.003,-0.012,-1.578,-0.007,-0.068,9.32,40.5,40.505695,-3.354385,602.5,3,5,271.8,0.0
9.95,0,-0.01,0.007,-0.04,-0.012,0.002,-0.024,-1.576,-0.009,-0.069,9.32,40.5,40.505695,-3.354385,602.5,3,5,271.8,0.0
10.05,0,-0.007,0.021,-0.019,-0.004,0.014,-0.025,-1.577,-0.01,-0.069,9.32,40.5,40.505695,-3.354385,602.5,3,5,271.8,0.0
10.14,0,-0.027,0.009,0.01,-0.008,0.007,-0.009,-1.578,-0.012,-0.07,9.32,40.5,40.505695,-3.354385,602.5,3,5,271.8,0.0
10.24,0,0.038,-0.05,-0.004,-0.005,-0.015,0.0,-1.577,-0.011,-0.07,9.32,40.5,40.505695,-3.354385,602.5,3,5,271.8,0.0
10.34,0,-0.011,-0.008,-0.031,-0.008,-0.014,-0.021,-1.576,-0.01,-0.071,10.32,42.3,40.505699,-3.354594,603.7,3,5,270.7,0.0
10.44,0,-0.011,0.008,-0.002,0.007,-0.01,-0.014,-1.574,-0.011,-0.071,10.32,42.3,40.505699,-3.354594,603.7,3,5,270.7,0.0
10.54,0,-0.059,0.012,-0.004,-0.029,0.002,-0.003,-1.572,-0.012,-0.072,10.32,42.3,40.505699,-3.354594,603.7,3,5,270.7,0.0
10.64,0,0.013,-0.009,0.006,-0.017,0.005,-0.002,-1.572,-0.014,-0.072,10.32,42.3,40.505699,-3.354594,603.7,3,5,270.7,0.0
10.74,0,0.01,-0.034,0.03,-0.002,-0.013,0.015,-1.573,-0.014,-0.073,10.32,42.3,40.505699,-3.354594,603.7,3,5,270.7,0.0
10.84,0,0.013,0.065,0.034,0.017,0.007,0.02,-1.573,-0.013,-0.073,10.32,42.3,40.505699,-3.354594,603.7,3,5,270.7,0.0
10.94,0,0.039,-0.002,0.053,0.021,0.017,0.037,-1.572,-0.012,-0.074,10.32,42.3,40.505699,-3.354594,603.7,3,5,270.7,0.0
11.04,0,0.06,-0.025,0.041,0.035,-0.003,0.047,-1.57,-0.009,-0.075,10.32,42.3,40.505699,-3.354594,603.7,3,5,270.7,0.0
11.14,0,-0.007,0.007,0.018,0.03,0.001,0.029,-1.567,-0.006,-0.075,10.32,42.3,40.505699,-3.354594,603.7,3,5,270.7,0.0
11.25,0,0.032,-0.039,0.067,0.018,-0.014,0.045,-1.567,-0.005,-0.075,10.32,42.3,40.505699,-3.354594,603.7,3,5,270.7,0.0
11.34,0,-0.068,0.029,0.08,-0.024,-0.002,0.063,-1.57,-0.01,-0.076,11.32,42.4,40.505714,-3.35475,603.6,3,5,270.7,0.0
11.44,0,-0.051,-0.008,0.028,-0.037,-0.0,0.055,-1.574,-0.007,-0.076,11.32,42.4,40.505714,-3.35475,603.6,3,5,270.7,0.0
11.54,0,-0.042,0.017,0.033,-0.031,0.004,0.041,-1.58,-0.006,-0.077,11.32,42.4,40.505714,-3.35475,603.6,3,5,270.7,0.0
11.65,0,0.038,0.02,0.076,-0.018,0.02,0.052,-1.584,-0.006,-0.077,11.32,42.4,40.505714,-3.35475,603.6,3,5,270.7,0.0
11.74,0,-0.039,0.014,0.057,-0.013,0.013,0.051,-1.59,-0.005,-0.077,11.32,42.4,40.505714,-3.35475,603.6,3,5,270.7,0.0
11.84,0,0.087,-0.015,0.044,0.03,0.005,0.057,-1.593,-0.005,-0.078,11.32,42.4,40.505714,-3.35475,603.6,3,5,270.7,0.0
11.94,0,0.031,0.021,0.045,0.033,0.001,0.055,-1.588,-0.006,-0.078,11.32,42.4,40.505714,-3.35475,603.6,3,5,270.7,0.0
12.04,0,0.033,0.01,0.002,0.036,0.015,0.027,-1.583,-0.005,-0.078,11.32,42.4,40.505714,-3.35475,603.6,3,5,270.7,0.0
12.14,0,-0.031,0.003,0.008,0.011,0.01,0.017,-1.582,-0.004,-0.078,11.32,42.4,40.505714,-3.35475,603.6,3,5,270.7,0.0
12.25,0,-0.016,0.026,0.017,-0.013,0.016,0.011,-1.585,-0.004,-0.078,11.32,42.4,40.505714,-3.35475,603.6,3,5,270.7,0.0
12.34,0,-0.061,0.014,0.024,-0.025,0.01,0.02,-1.588,-0.004,-0.078,12.3,43.8,40.505703,-3.354894,603.9,3,5,271.8,0.0
12.45,0,-0.02,0.007,0.007,-0.037,0.013,0.014,-1.594,-0.002,-0.079,12.3,43.8,40.505703,-3.354894,603.9,3,5,271.8,0.0
12.54,0,-0.018,0.022,0.025,-0.025,0.017,0.015,-1.599,-0.004,-0.08,12.3,43.8,40.505703,-3.354894,603.9,3,5,271.8,0.0
12.64,0,-0.001,0.008,0.026,-0.017,0.011,0.024,-1.605,-0.002,-0.08,12.3,43.8,40.505703,-3.354894,603.9,3,5,271.8,0.0
12.74,0,0.036,0.009,0.011,0.012,0.013,0.021,-1.607,-0.003,-0.081,12.3,43.8,40.505703,-3.354894,603.9,3,5,271.8,0.0
12.85,0,0.001,0.021,-0.002,0.01,0.014,0.008,-1.607,-0.007,-0.081,12.3,43.8,40.505703,-3.354894,603.9,3,5,271.8,0.0
12.95,0,0.004,0.009,-0.002,0.007,0.011,-0.001,-1.608,-0.01,-0.082,12.3,43.8,40.505703,-3.354894,603.9,3,5,271.8,0.0
13.05,0,0.003,0.012,0.024,0.004,0.012,0.01,-1.612,-0.013,-0.084,12.3,43.8,40.505703,-3.354894,603.9,3,5,271.8,0.0
13.15,0,0.02,0.028,0.014,0.011,0.02,0.016,-1.613,-0.015,-0.085,12.3,43.8,40.505703,-3.354894,603.9,3,5,271.8,0.0
13.25,0,0.034,0.026,0.043,0.024,0.02,0.026,-1.615,-0.017,-0.086,12.3,43.8,40.505703,-3.354894,603.9,3,5,271.8,0.0
13.35,0,0.047,0.009,0.048,0.029,0.022,0.04,-1.615,-0.02,-0.087,13.33,45.9,40.505695,-3.35506,604.1,3,5,272.5,0.0
13.45,0,0.02,0.026,0.04,0.036,0.02,0.042,-1.614,-0.021,-0.088,13.33,45.9,40.505695,-3.35506,604.1,3,5,272.5,0.0
13.55,0,0.012,0.005,0.052,0.023,0.013,0.041,-1.613,-0.025,-0.089,13.33,45.9,40.505695,-3.35506,604.1,3,5,272.5,0.0
13.66,0,-0.009,-0.03,0.045,0.013,-0.008,0.049,-1.618,-0.027,-0.091,13.33,45.9,40.505695,-3.35506,604.1,3,5,272.5,0.0
13.76,0,-0.067,-0.019,0.007,-0.035,-0.014,0.032,-1.619,-0.028,-0.092,13.33,45.9,40.505695,-3.35506,604.1,3,5,272.5,0.0
13.85,0,-0.013,0.02,0.054,-0.033,-0.0,0.026,-1.621,-0.031,-0.093,13.33,45.9,40.505695,-3.35506,604.1,3,5,272.5,0.0
13.95,0,-0.009,0.0,0.065,-0.009,-0.002,0.056,-1.626,-0.032,-0.095,13.33,45.9,40.505695,-3.35506,604.1,3,5,272.5,0.0
14.05,0,0.063,0.018,0.013,0.014,0.012,0.041,-1.625,-0.03,-0.096,13.33,45.9,40.505695,-3.35506,604.1,3,5,272.5,0.0
14.15,0,-0.006,0.016,0.069,0.018,0.02,0.047,-1.626,-0.029,-0.097,13.33,45.9,40.505695,-3.35506,604.1,3,5,272.5,0.0
14.25,0,-0.12,-0.023,0.061,-0.036,-0.01,0.059,-1.626,-0.028,-0.097,13.33,45.9,40.505695,-3.35506,604.1,3,5,272.5,0.0
14.37,0,0.064,-0.018,0.058,-0.033,-0.014,0.053,-1.627,-0.027,-0.097,14.3,47.8,40.505711,-3.355242,604.3,3,5,272.8,0.0
14.45,0,0.003,-0.032,0.03,0.02,-0.02,0.052,-1.627,-0.021,-0.096,14.3,47.8,40.505711,-3.355242,604.3,3,5,272.8,0.0
14.55,0,-0.039,-0.009,-0.009,-0.012,-0.017,0.019,-1.628,-0.019,-0.095,14.3,47.8,40.505711,-3.355242,604.3,3,5,272.8,0.0
14.65,0,-0.065,-0.023,0.047,-0.045,-0.014,0.021,-1.636,-0.02,-0.095,14.3,47.8,40.505711,-3.355242,604.3,3,5,272.8,0.0
14.75,0,-0.069,-0.046,0.055,-0.06,-0.037,0.046,-1.644,-0.019,-0.094,14.3,47.8,40.505711,-3.355242,604.3,3,5,272.8,0.0
14.85,0,0.006,-0.03,0.01,-0.038,-0.034,0.029,-1.646,-0.018,-0.094,14.3,47.8,40.505711,-3.355242,604.3,3,5,272.8,0.0
14.95,1,0.031,-0.033,0.001,0.003,-0.029,0.014,-1.646,-0.018,-0.093,14.3,47.8,40.505711,-3.355242,604.3,3,5,272.8,0.0
15.05,1,-0.004,0.005,0.002,0.004,-0.018,0.006,-1.645,-0.017,-0.092,14.3,47.8,40.505711,-3.355242,604.3,3,5,272.8,0.0
15.15,1,-0.025,0.009,0.013,-0.001,-0.007,0.011,-1.647,-0.016,-0.092,14.3,47.8,40.505711,-3.355242,604.3,3,5,272.8,0.0
15.25,1,-0.02,-0.004,0.01,-0.016,0.001,0.008,-1.649,-0.016,-0.092,14.3,47.8,40.505711,-3.355242,604.3,3,5,272.8,0.0
15.36,1,-0.043,-0.011,0.012,-0.026,-0.003,0.01,-1.649,-0.016,-0.091,15.32,51.7,40.505714,-3.355438,604.1,3,5,273.9,1.406
15.45,1,-0.041,-0.022,0.012,-0.042,-0.013,0.013,-1.651,-0.015,-0.091,15.32,51.7,40.505714,-3.355438,604.1,3,5,273.9,1.406
15.56,1,-0.006,-0.007,0.009,-0.027,-0.017,0.012,-1.65,-0.012,-0.09,15.32,51.7,40.505714,-3.355438,604.1,3,5,273.9,1.406
15.65,1,-0.035,-0.022,0.026,-0.024,-0.008,0.018,-1.649,-0.013,-0.09,15.32,51.7,40.505714,-3.355438,604.1,3,5,273.9,1.406
15.75,1,0.002,0.005,0.02,-0.013,-0.016,0.018,-1.649,-0.011,-0.089,15.32,51.7,40.505714,-3.355438,604.1,3,5,273.9,1.406
15.85,1,0.034,-0.022,-0.004,-0.002,-0.004,0.005,-1.648,-0.008,-0.089,15.32,51.7,40.505714,-3.355438,604.1,3,5,273.9,1.406
15.95,1,-0.012,0.005,0.02,0.003,-0.006,0.018,-1.649,-0.007,-0.089,15.32,51.7,40.505714,-3.355438,604.1,3,5,273.9,1.406
16.05,1,-0.003,0.005,0.004,0.007,-0.006,0.005,-1.648,-0.009,-0.088,15.32,51.7,40.505714,-3.355438,604.1,3,5,273.9,1.406
16.16,1,-0.002,-0.012,-0.004,-0.004,-0.0,0.009,-1.651,-0.011,-0.088,15.32,51.7,40.505714,-3.355438,604.1,3,5,273.9,1.406
16.25,1,0.004,0.029,-0.009,0.0,0.006,-0.008,-1.65,-0.011,-0.088,15.32,51.7,40.505714,-3.355438,604.1,3,5,273.9,1.406
16.35,1,0.021,-0.017,0.053,0.007,0.007,0.017,-1.65,-0.011,-0.088,16.37,56.2,40.505718,-3.3556,603.2,3,5,274.2,1.406
16.45,1,0.017,0.039,-0.05,0.017,0.009,0.003,-1.648,-0.012,-0.088,16.37,56.2,40.505718,-3.3556,603.2,3,5,274.2,1.406
16.56,1,-0.001,0.003,-0.01,0.02,0.012,-0.022,-1.648,-0.012,-0.088,16.37,56.2,40.505718,-3.3556,603.2,3,5,274.2,1.406
16.66,1,-0.003,-0.014,0.036,-0.008,0.003,0.008,-1.65,-0.012,-0.088,16.37,56.2,40.505718,-3.3556,603.2,3,5,274.2,1.406
16.75,1,-0.03,0.013,0.07,-0.011,0.001,0.042,-1.654,-0.013,-0.089,16.37,56.2,40.505718,-3.3556,603.2,3,5,274.2,1.406
16.85,1,-0.057,-0.032,0.09,-0.034,-0.007,0.068,-1.659,-0.016,-0.089,16.37,56.2,40.505718,-3.3556,603.2,3,5,274.2,1.406
16.95,1,-0.033,0.014,0.049,-0.039,-0.001,0.064,-1.669,-0.017,-0.09,16.37,56.2,40.505718,-3.3556,603.2,3,5,274.2,1.406
17.05,1,-0.027,0.0,0.06,-0.027,0.005,0.063,-1.674,-0.016,-0.09,16.37,56.2,40.505718,-3.3556,603.2,3,5,274.2,1.406
17.16,1,0.009,0.031,0.022,-0.019,0.009,0.048,-1.678,-0.018,-0.09,16.37,56.2,40.505718,-3.3556,603.2,3,5,274.2,1.406
17.25,1,0.017,0.011,-0.059,-0.0,0.015,-0.003,-1.676,-0.017,-0.089,16.37,56.2,40.505718,-3.3556,603.2,3,5,274.2,1.406
17.36,1,0.044,-0.005,-0.06,0.026,0.003,-0.045,-1.67,-0.015,-0.089,17.31,59.8,40.505753,-3.3558,602.3,3,5,274.2,0.352
17.45,1,-0.001,-0.012,-0.001,0.014,-0.004,-0.028,-1.668,-0.016,-0.09,17.31,59.8,40.505753,-3.3558,602.3,3,5,274.2,0.352
17.55,1,-0.04,0.02,-0.009,-0.008,0.003,-0.016,-1.668,-0.021,-0.09,17.31,59.8,40.505753,-3.3558,602.3,3,5,274.2,0.352
17.65,1,0.003,0.004,-0.013,-0.015,0.006,-0.014,-1.669,-0.023,-0.09,17.31,59.8,40.505753,-3.3558,602.3,3,5,274.2,0.352
17.75,1,-0.037,-0.005,0.001,-0.017,0.003,-0.009,-1.668,-0.024,-0.09,17.31,59.8,40.505753,-3.3558,602.3,3,5,274.2,0.352
17.85,1,0.006,-0.011,0.016,-0.008,-0.005,0.012,-1.668,-0.024,-0.089,17.31,59.8,40.505753,-3.3558,602.3,3,5,274.2,0.352
17.95,1,0.031,-0.003,-0.022,0.01,-0.004,-0.011,-1.666,-0.022,-0.088,17.31,59.8,40.505753,-3.3558,602.3,3,5,274.2,0.352
18.05,1,-0.001,-0.015,0.004,0.01,-0.009,-0.005,-1.667,-0.019,-0.088,17.31,59.8,40.505753,-3.3558,602.3,3,5,274.2,0.352
18.16,1,-0.024,0.003,-0.087,-0.003,-0.012,-0.025,-1.665,-0.013,-0.087,17.31,59.8,40.505753,-3.3558,602.3,3,5,274.2,0.352
18.25,1,0.013,-0.02,-0.13,-0.009,-0.005,-0.092,-1.66,-0.012,-0.087,17.31,59.8,40.505753,-3.3558,602.3,3,5,274.2,0.352
18.35,1,0.026,-0.004,-0.149,0.015,-0.015,-0.117,-1.653,-0.012,-0.087,18.28,63.6,40.505756,-3.355998,602.2,3,5,274.9,0.703
18.45,1,0.005,0.023,-0.171,0.017,0.007,-0.151,-1.637,-0.016,-0.087,18.28,63.6,40.505756,-3.355998,602.2,3,5,274.9,0.703
18.55,1,0.003,0.031,-0.138,0.006,0.025,-0.158,-1.623,-0.021,-0.086,18.28,63.6,40.505756,-3.355998,602.2,3,5,274.9,0.703
18.65,1,-0.015,-0.017,-0.057,-0.008,0.007,-0.105,-1.618,-0.022,-0.086,18.28,63.6,40.505756,-3.355998,602.2,3,5,274.9,0.703
18.75,1,-0.021,0.005,-0.049,-0.01,0.003,-0.072,-1.617,-0.023,-0.085,18.28,63.6,40.505756,-3.355998,602.2,3,5,274.9,0.703
18.84,1,0.009,0.01,-0.089,-0.005,0.008,-0.074,-1.61,-0.024,-0.085,18.28,63.6,40.505756,-3.355998,602.2,3,5,274.9,0.703
18.95,1,-0.038,-0.021,-0.086,-0.02,-0.003,-0.079,-1.604,-0.02,-0.084,18.28,63.6,40.505756,-3.355998,602.2,3,5,274.9,0.703
19.04,1,-0.024,-0.025,-0.073,-0.029,-0.018,-0.082,-1.598,-0.019,-0.084,18.28,63.6,40.505756,-3.355998,602.2,3,5,274.9,0.703
19.15,1,-0.064,-0.042,-0.032,-0.033,-0.027,-0.063,-1.594,-0.019,-0.084,18.28,63.6,40.505756,-3.355998,602.2,3,5,274.9,0.703
19.26,1,-0.028,-0.011,0.043,-0.042,-0.03,-0.006,-1.595,-0.021,-0.085,18.28,63.6,40.505756,-3.355998,602.2,3,5,274.9,0.703
19.35,1,0.024,-0.001,0.028,-0.018,-0.009,0.017,-1.598,-0.023,-0.085,19.32,67.1,40.505772,-3.356217,602.1,3,5,275.3,1.055
19.44,1,-0.009,0.022,0.016,0.013,0.003,0.022,-1.598,-0.026,-0.085,19.32,67.1,40.505772,-3.356217,602.1,3,5,275.3,1.055
19.54,1,-0.03,-0.031,0.103,-0.011,-0.018,0.049,-1.6,-0.028,-0.084,19.32,67.1,40.505772,-3.356217,602.1,3,5,275.3,1.055
19.64,1,-0.016,-0.053,0.101,-0.044,-0.02,0.082,-1.602,-0.029,-0.084,19.32,67.1,40.505772,-3.356217,602.1,3,5,275.3,1.055
19.74,1,0.03,0.048,0.053,0.011,-0.01,0.081,-1.601,-0.029,-0.084,19.32,67.1,40.505772,-3.356217,602.1,3,5,275.3,1.055
19.85,1,0.063,0.01,0.074,0.035,0.02,0.065,-1.604,-0.024,-0.083,19.32,67.1,40.505772,-3.356217,602.1,3,5,275.3,1.055
19.94,1,0.039,0.011,0.043,0.041,0.02,0.059,-1.607,-0.023,-0.083,19.32,67.1,40.505772,-3.356217,602.1,3,5,275.3,1.055
20.04,1,0.033,-0.0,0.007,0.044,0.002,0.036,-1.607,-0.019,-0.082,19.32,67.1,40.505772,-3.356217,602.1,3,5,275.3,1.055
20.14,1,-0.013,0.004,0.047,0.017,0.011,0.031,-1.609,-0.021,-0.082,19.32,67.1,40.505772,-3.356217,602.1,3,5,275.3,1.055
20.24,1,-0.015,0.022,0.043,0.001,0.01,0.04,-1.612,-0.02,-0.082,19.32,67.1,40.505772,-3.356217,602.1,3,5,275.3,1.055
20.35,1,0.005,0.037,0.036,-0.007,0.018,0.041,-1.612,-0.02,-0.081,20.35,67.5,40.505795,-3.356427,601.8,3,5,275.6,0.703
20.44,1,-0.044,-0.008,0.054,-0.018,0.016,0.044,-1.612,-0.018,-0.08,20.35,67.5,40.505795,-3.356427,601.8,3,5,275.6,0.703
20.54,1,-0.068,-0.064,0.034,-0.042,-0.011,0.035,-1.614,-0.022,-0.08,20.35,67.5,40.505795,-3.356427,601.8,3,5,275.6,0.703
20.64,1,-0.007,-0.068,0.079,-0.042,-0.06,0.062,-1.617,-0.026,-0.079,20.35,67.5,40.505795,-3.356427,601.8,3,5,275.6,0.703
20.74,1,-0.006,-0.038,0.048,-0.027,-0.051,0.058,-1.615,-0.025,-0.077,20.35,67.5,40.505795,-3.356427,601.8,3,5,275.6,0.703
20.84,1,0.044,-0.077,0.031,0.019,-0.059,0.047,-1.615,-0.02,-0.075,20.35,67.5,40.505795,-3.356427,601.8,3,5,275.6,0.703
20.94,1,0.024,-0.06,0.015,0.027,-0.063,0.023,-1.615,-0.013,-0.071,20.35,67.5,40.505795,-3.356427,601.8,3,5,275.6,0.703
21.05,1,-0.014,-0.056,-0.005,0.009,-0.062,0.015,-1.616,-0.009,-0.069,20.35,67.5,40.505795,-3.356427,601.8,3,5,275.6,0.703
21.14,1,-0.013,-0.03,0.041,-0.008,-0.045,0.02,-1.618,-0.007,-0.065,20.35,67.5,40.505795,-3.356427,601.8,3,5,275.6,0.703
21.24,1,-0.018,-0.019,0.037,-0.007,-0.036,0.034,-1.62,-0.003,-0.062,20.35,67.5,40.505795,-3.356427,601.8,3,5,275.6,0.703
21.34,1,0.007,-0.056,0.064,-0.003,-0.042,0.047,-1.621,0.005,-0.058,21.29,70.4,40.505817,-3.356652,601.5,3,5,276.0,0.703
21.44,1,-0.035,-0.08,0.05,-0.024,-0.054,0.05,-1.624,0.011,-0.054,21.29,70.4,40.505817,-3.356652,601.5,3,5,276.0,0.703
21.54,1,-0.028,-0.052,0.037,-0.027,-0.063,0.046,-1.63,0.019,-0.05,21.29,70.4,40.505817,-3.356652,601.5,3,5,276.0,0.703
21.64,1,0.003,-0.058,0.027,-0.001,-0.065,0.032,-1.632,0.022,-0.046,21.29,70.4,40.505817,-3.356652,601.5,3,5,276.0,0.703
21.74,1,0.011,-0.056,0.032,-0.01,-0.047,0.033,-1.632,0.019,-0.043,21.29,70.4,40.505817,-3.356652,601.5,3,5,276.0,0.703
21.84,1,-0.019,-0.056,0.036,-0.01,-0.051,0.032,-1.635,0.018,-0.039,21.29,70.4,40.505817,-3.356652,601.5,3,5,276.0,0.703
21.94,1,-0.031,-0.031,0.007,-0.004,-0.046,0.027,-1.637,0.016,-0.036,21.29,70.4,40.505817,-3.356652,601.5,3,5,276.0,0.703
22.04,1,-0.016,-0.045,-0.006,-0.026,-0.036,0.01,-1.637,0.016,-0.033,21.29,70.4,40.505817,-3.356652,601.5,3,5,276.0,0.703
22.15,1,-0.022,0.008,0.027,-0.021,-0.021,0.013,-1.636,0.013,-0.03,21.29,70.4,40.505817,-3.356652,601.5,3,5,276.0,0.703
22.25,1,0.011,0.005,0.029,-0.005,-0.008,0.024,-1.636,0.011,-0.029,21.29,70.4,40.505817,-3.356652,601.5,3,5,276.0,0.703
22.34,1,0.049,-0.017,0.042,0.024,-0.015,0.036,-1.635,0.009,-0.027,22.3,74.1,40.50584,-3.356894,601.0,3,5,275.6,0.352
22.44,1,0.005,-0.021,0.007,0.018,-0.016,0.019,-1.636,0.007,-0.024,22.3,74.1,40.50584,-3.356894,601.0,3,5,275.6,0.352
22.54,1,0.002,0.014,0.015,0.004,-0.001,0.015,-1.639,0.005,-0.023,22.3,74.1,40.50584,-3.356894,601.0,3,5,275.6,0.352
22.64,1,0.002,0.02,0.011,0.006,0.005,0.019,-1.641,0.002,-0.021,22.3,74.1,40.50584,-3.356894,601.0,3,5,275.6,0.352
22.74,1,-0.008,0.011,-0.006,0.001,0.014,-0.003,-1.637,0.001,-0.019,22.3,74.1,40.50584,-3.356894,601.0,3,5,275.6,0.352
22.84,1,0.053,-0.01,0.078,0.014,-0.001,0.031,-1.638,0.001,-0.018,22.3,74.1,40.50584,-3.356894,601.0,3,5,275.6,0.352
22.95,1,0.031,0.019,0.067,0.025,0.013,0.061,-1.636,0.0,-0.017,22.3,74.1,40.50584,-3.356894,601.0,3,5,275.6,0.352
23.04,1,-0.007,0.068,-0.016,0.029,0.029,0.033,-1.636,-0.006,-0.017,22.3,74.1,40.50584,-3.356894,601.0,3,5,275.6,0.352
23.14,1,0.023,0.051,-0.018,0.015,0.05,-0.005,-1.633,-0.008,-0.017,22.3,74.1,40.50584,-3.356894,601.0,3,5,275.6,0.352
23.24,1,-0.005,0.031,0.077,0.009,0.047,0.033,-1.637,-0.011,-0.017,22.3,74.1,40.50584,-3.356894,601.0,3,5,275.6,0.352
23.34,1,-0.072,0.012,0.0,-0.027,0.032,0.021,-1.637,-0.01,-0.017,23.35,78.3,40.505859,-3.357149,600.8,3,5,274.9,1.055
23.44,1,0.001,-0.006,0.085,-0.045,0.005,0.041,-1.637,-0.011,-0.018,23.35,78.3,40.505859,-3.357149,600.8,3,5,274.9,1.055
23.54,1,-0.029,0.043,0.017,-0.016,0.004,0.041,-1.637,-0.013,-0.019,23.35,78.3,40.505859,-3.357149,600.8,3,5,274.9,1.055
23.64,1,0.062,0.008,0.033,0.016,0.025,0.047,-1.634,-0.015,-0.02,23.35,78.3,40.505859,-3.357149,600.8,3,5,274.9,1.055
23.74,1,0.001,0.074,-0.034,0.032,0.043,-0.003,-1.633,-0.014,-0.02,23.35,78.3,40.505859,-3.357149,600.8,3,5,274.9,1.055
23.84,1,-0.028,0.027,-0.033,-0.003,0.046,-0.013,-1.635,-0.013,-0.02,23.35,78.3,40.505859,-3.357149,600.8,3,5,274.9,1.055
23.94,1,-0.014,0.043,0.08,-0.002,0.042,0.022,-1.635,-0.012,-0.021,23.35,78.3,40.505859,-3.357149,600.8,3,5,274.9,1.055
24.04,1,0.013,0.028,-0.003,-0.017,0.037,0.018,-1.633,-0.014,-0.022,23.35,78.3,40.505859,-3.357149,600.8,3,5,274.9,1.055
24.14,1,0.046,0.006,-0.01,0.001,0.022,0.003,-1.632,-0.016,-0.023,23.35,78.3,40.505859,-3.357149,600.8,3,5,274.9,1.055
24.24,1,0.025,0.079,0.007,0.038,0.041,-0.004,-1.631,-0.018,-0.023,23.35,78.3,40.505859,-3.357149,600.8,3,5,274.9,1.055
24.34,1,0.011,0.037,0.035,0.022,0.053,0.017,-1.631,-0.017,-0.023,24.3,81.9,40.505875,-3.357421,600.7,3,5,274.6,1.055
24.44,1,-0.016,-0.008,0.049,0.005,0.021,0.033,-1.63,-0.014,-0.022,24.3,81.9,40.505875,-3.357421,600.7,3,5,274.6,1.055
24.54,1,-0.023,-0.031,0.038,-0.012,-0.007,0.042,-1.631,-0.011,-0.022,24.3,81.9,40.505875,-3.357421,600.7,3,5,274.6,1.055
24.64,1,-0.039,0.006,0.041,-0.022,-0.006,0.048,-1.633,-0.013,-0.021,24.3,81.9,40.505875,-3.357421,600.7,3,5,274.6,1.055
24.74,1,-0.019,0.006,0.033,-0.027,0.002,0.035,-1.632,-0.014,-0.021,24.3,81.9,40.505875,-3.357421,600.7,3,5,274.6,1.055
24.84,1,-0.009,0.033,-0.043,-0.019,0.007,0.015,-1.631,-0.019,-0.021,24.3,81.9,40.505875,-3.357421,600.7,3,5,274.6,1.055
24.94,1,-0.043,-0.01,-0.145,-0.026,0.005,-0.072,-1.629,-0.02,-0.02,24.3,81.9,40.505875,-3.357421,600.7,3,5,274.6,1.055
25.04,1,0.051,-0.014,-0.102,-0.002,0.002,-0.098,-1.624,-0.02,-0.019,24.3,81.9,40.505875,-3.357421,600.7,3,5,274.6,1.055
25.14,1,0.047,0.043,-0.189,0.022,0.018,-0.141,-1.621,-0.017,-0.017,24.3,81.9,40.505875,-3.357421,600.7,3,5,274.6,1.055
25.24,1,-0.023,0.028,-0.069,0.016,0.017,-0.133,-1.622,-0.014,-0.016,24.3,81.9,40.505875,-3.357421,600.7,3,5,274.6,1.055
25.34,1,0.052,-0.031,-0.122,0.024,0.002,-0.096,-1.619,-0.013,-0.015,25.29,85.6,40.505894,-3.357705,600.3,3,5,275.3,0.703
25.44,1,0.033,0.034,-0.128,0.042,0.006,-0.124,-1.617,-0.016,-0.016,25.29,85.6,40.505894,-3.357705,600.3,3,5,275.3,0.703
25.54,1,-0.026,0.069,-0.103,0.017,0.032,-0.113,-1.611,-0.023,-0.016,25.29,85.6,40.505894,-3.357705,600.3,3,5,275.3,0.703
25.64,1,-0.015,0.045,-0.082,-0.028,0.06,-0.1,-1.601,-0.037,-0.016,25.29,85.6,40.505894,-3.357705,600.3,3,5,275.3,0.703
25.74,1,0.068,-0.008,-0.075,0.018,0.028,-0.085,-1.598,-0.038,-0.016,25.29,85.6,40.505894,-3.357705,600.3,3,5,275.3,0.703
25.84,1,0.012,-0.009,-0.077,0.034,0.007,-0.082,-1.589,-0.036,-0.017,25.29,85.6,40.505894,-3.357705,600.3,3,5,275.3,0.703
25.94,1,0.02,0.014,-0.078,0.028,0.001,-0.083,-1.579,-0.045,-0.017,25.29,85.6,40.505894,-3.357705,600.3,3,5,275.3,0.703
26.05,1,-0.018,0.046,-0.092,0.006,0.022,-0.074,-1.58,-0.047,-0.017,25.29,85.6,40.505894,-3.357705,600.3,3,5,275.3,0.703
26.14,1,-0.03,0.014,-0.082,-0.015,0.024,-0.09,-1.581,-0.047,-0.018,25.29,85.6,40.505894,-3.357705,600.3,3,5,275.3,0.703
26.24,1,0.003,-0.016,-0.038,-0.013,0.008,-0.065,-1.579,-0.044,-0.017,25.29,85.6,40.505894,-3.357705,600.3,3,5,275.3,0.703
26.44,1,-0.047,-0.011,-0.055,-0.042,-0.008,-0.048,-1.564,-0.036,-0.017,26.27,88.2,40.505917,-3.357996,600.3,3,5,275.3,0.703
26.54,1,-0.017,-0.037,-0.076,-0.028,-0.014,-0.062,-1.557,-0.04,-0.017,26.27,88.2,40.505917,-3.357996,600.3,3,5,275.3,0.703
26.65,1,-0.027,-0.034,0.037,-0.033,-0.032,-0.037,-1.559,-0.04,-0.017,26.27,88.2,40.505917,-3.357996,600.3,3,5,275.3,0.703
26.74,1,0.019,-0.061,0.048,-0.007,-0.053,0.026,-1.56,-0.041,-0.017,26.27,88.2,40.505917,-3.357996,600.3,3,5,275.3,0.703
26.84,1,0.007,-0.003,0.036,0.011,-0.032,0.033,-1.561,-0.038,-0.018,26.27,88.2,40.505917,-3.357996,600.3,3,5,275.3,0.703
26.94,1,-0.003,-0.031,0.046,-0.001,-0.018,0.033,-1.567,-0.037,-0.018,26.27,88.2,40.505917,-3.357996,600.3,3,5,275.3,0.703
27.05,1,0.005,0.012,0.046,-0.003,-0.007,0.044,-1.575,-0.04,-0.018,26.27,88.2,40.505917,-3.357996,600.3,3,5,275.3,0.703
27.14,1,-0.028,-0.038,0.048,0.004,-0.021,0.044,-1.576,-0.04,-0.018,26.27,88.2,40.505917,-3.357996,600.3,3,5,275.3,0.703
27.24,1,-0.027,-0.084,0.087,-0.029,-0.049,0.065,-1.583,-0.035,-0.018,26.27,88.2,40.505917,-3.357996,600.3,3,5,275.3,0.703
27.35,1,-0.043,-0.064,0.076,-0.045,-0.061,0.08,-1.591,-0.029,-0.017,26.27,88.2,40.505917,-3.357996,600.3,3,5,275.3,0.703
27.44,1,-0.005,-0.034,0.071,-0.015,-0.053,0.074,-1.604,-0.028,-0.017,27.29,87.5,40.505939,-3.35827,599.0,3,5,276.0,0.703
27.54,1,-0.033,0.007,0.011,-0.019,-0.023,0.048,-1.606,-0.027,-0.015,27.29,87.5,40.505939,-3.35827,599.0,3,5,276.0,0.703
27.64,1,-0.03,-0.029,0.025,-0.028,-0.018,0.026,-1.604,-0.027,-0.014,27.29,87.5,40.505939,-3.35827,599.0,3,5,276.0,0.703
27.74,1,-0.074,-0.054,0.037,-0.044,-0.036,0.034,-1.605,-0.023,-0.012,27.29,87.5,40.505939,-3.35827,599.0,3,5,276.0,0.703
27.86,1,-0.005,-0.053,-0.007,-0.037,-0.05,0.017,-1.605,-0.021,-0.011,27.29,87.5,40.505939,-3.35827,599.0,3,5,276.0,0.703
27.94,1,-0.009,-0.028,-0.004,-0.023,-0.04,-0.001,-1.605,-0.023,-0.01,27.29,87.5,40.505939,-3.35827,599.0,3,5,276.0,0.703
28.04,1,-0.02,-0.01,0.045,-0.022,-0.026,0.021,-1.607,-0.026,-0.009,27.29,87.5,40.505939,-3.35827,599.0,3,5,276.0,0.703
28.14,1,0.002,0.011,-0.022,-0.004,-0.003,0.006,-1.609,-0.026,-0.007,27.29,87.5,40.505939,-3.35827,599.0,3,5,276.0,0.703
28.24,1,-0.051,-0.032,0.043,-0.024,-0.014,0.014,-1.611,-0.023,-0.005,27.29,87.5,40.505939,-3.35827,599.0,3,5,276.0,0.703
28.35,1,0.003,-0.044,0.065,-0.014,-0.037,0.053,-1.614,-0.018,-0.003,27.29,87.5,40.505939,-3.35827,599.0,3,5,276.0,0.703
28.45,1,0.013,-0.071,0.059,-0.006,-0.048,0.043,-1.614,-0.019,-0.002,28.32,87.6,40.505959,-3.358556,598.2,3,5,276.7,1.406
28.56,1,0.019,-0.026,0.034,0.012,-0.044,0.056,-1.612,-0.021,-0.0,28.32,87.6,40.505959,-3.358556,598.2,3,5,276.7,1.406
28.65,1,-0.025,-0.02,-0.055,-0.008,-0.033,-0.008,-1.611,-0.022,0.002,28.32,87.6,40.505959,-3.358556,598.2,3,5,276.7,1.406
28.75,1,-0.024,-0.019,0.009,-0.013,-0.025,-0.004,-1.612,-0.024,0.004,28.32,87.6,40.505959,-3.358556,598.2,3,5,276.7,1.406
28.85,1,-0.064,-0.003,-0.009,-0.029,-0.01,-0.006,-1.611,-0.024,0.006,28.32,87.6,40.505959,-3.358556,598.2,3,5,276.7,1.406
28.95,1,0.002,-0.066,-0.003,-0.031,-0.031,-0.005,-1.612,-0.022,0.008,28.32,87.6,40.505959,-3.358556,598.2,3,5,276.7,1.406
29.06,1,-0.02,-0.028,-0.031,-0.021,-0.037,-0.013,-1.612,-0.023,0.011,28.32,87.6,40.505959,-3.358556,598.2,3,5,276.7,1.406
29.15,1,-0.015,-0.049,-0.011,-0.018,-0.039,-0.02,-1.613,-0.023,0.014,28.32,87.6,40.505959,-3.358556,598.2,3,5,276.7,1.406
29.25,1,-0.021,-0.078,0.011,-0.013,-0.057,-0.005,-1.608,-0.021,0.019,28.32,87.6,40.505959,-3.358556,598.2,3,5,276.7,1.406
29.35,1,-0.035,-0.072,0.046,-0.03,-0.071,0.022,-1.614,-0.012,0.023,28.32,87.6,40.505959,-3.358556,598.2,3,5,276.7,1.406
29.45,1,-0.036,-0.077,0.024,-0.031,-0.075,0.028,-1.616,-0.001,0.027,29.27,90.0,40.505978,-3.358848,598.3,3,5,275.3,1.406
29.55,1,-0.02,-0.075,0.016,-0.025,-0.074,0.025,-1.62,0.005,0.031,29.27,90.0,40.505978,-3.358848,598.3,3,5,275.3,1.406
29.65,1,-0.03,-0.068,0.03,-0.035,-0.07,0.019,-1.618,0.013,0.035,29.27,90.0,40.505978,-3.358848,598.3,3,5,275.3,1.406
29.76,1,0.005,-0.053,0.024,-0.014,-0.063,0.03,-1.623,0.018,0.038,29.27,90.0,40.505978,-3.358848,598.3,3,5,275.3,1.406
29.85,1,0.034,-0.022,0.004,0.016,-0.044,0.012,-1.621,0.017,0.042,29.27,90.0,40.505978,-3.358848,598.3,3,5,275.3,1.406
29.95,1,-0.034,-0.038,0.042,-0.008,-0.032,0.021,-1.623,0.016,0.046,29.27,90.0,40.505978,-3.358848,598.3,3,5,275.3,1.406
30.05,1,-0.028,-0.045,0.032,-0.024,-0.048,0.033,-1.627,0.021,0.05,29.27,90.0,40.505978,-3.358848,598.3,3,5,275.3,1.406
30.15,1,-0.02,-0.038,-0.001,-0.025,-0.042,0.018,-1.628,0.02,0.053,29.27,90.0,40.505978,-3.358848,598.3,3,5,275.3,1.406
30.25,1,-0.019,-0.016,0.016,-0.023,-0.024,0.007,-1.624,0.021,0.057,29.27,90.0,40.505978,-3.358848,598.3,3,5,275.3,1.406
30.35,1,-0.027,-0.046,0.014,-0.019,-0.037,0.019,-1.628,0.025,0.061,29.27,90.0,40.505978,-3.358848,598.3,3,5,275.3,1.406
30.45,1,-0.022,-0.013,-0.029,-0.022,-0.028,-0.001,-1.628,0.025,0.065,30.26,92.5,40.506001,-3.35915,599.3,3,5,274.2,2.461
30.55,1,-0.024,-0.006,0.02,-0.016,-0.018,-0.004,-1.628,0.026,0.069,30.26,92.5,40.506001,-3.35915,599.3,3,5,274.2,2.461
30.65,1,0.007,-0.045,-0.024,-0.011,-0.027,-0.002,-1.627,0.033,0.074,30.26,92.5,40.506001,-3.35915,599.3,3,5,274.2,2.461
30.76,1,-0.061,-0.023,-0.064,-0.033,-0.024,-0.03,-1.628,0.04,0.078,30.26,92.5,40.506001,-3.35915,599.3,3,5,274.2,2.461
30.86,1,-0.01,-0.035,-0.011,-0.028,-0.033,-0.036,-1.628,0.042,0.082,30.26,92.5,40.506001,-3.35915,599.3,3,5,274.2,2.461
30.96,1,-0.02,-0.006,-0.019,-0.018,-0.023,-0.018,-1.626,0.042,0.085,30.26,92.5,40.506001,-3.35915,599.3,3,5,274.2,2.461
31.05,1,-0.051,0.003,-0.012,-0.031,-0.003,-0.017,-1.625,0.045,0.089,30.26,92.5,40.506001,-3.35915,599.3,3,5,274.2,2.461
31.15,1,0.024,-0.037,0.026,-0.007,-0.019,0.003,-1.624,0.049,0.094,30.26,92.5,40.506001,-3.35915,599.3,3,5,274.2,2.461
31.25,1,-0.007,-0.026,-0.004,-0.007,-0.019,-0.001,-1.62,0.05,0.097,30.26,92.5,40.506001,-3.35915,599.3,3,5,274.2,2.461
31.35,1,-0.032,-0.012,0.012,-0.016,-0.023,0.012,-1.619,0.052,0.101,30.26,92.5,40.506001,-3.35915,599.3,3,5,274.2,2.461
31.45,1,-0.021,0.012,-0.061,-0.021,-0.005,-0.02,-1.62,0.049,0.105,31.27,91.2,40.506012,-3.359448,600.6,3,5,273.2,2.109
31.57,1,-0.005,-0.015,-0.001,-0.019,-0.01,-0.024,-1.62,0.05,0.109,31.27,91.2,40.506012,-3.359448,600.6,3,5,273.2,2.109
31.66,1,-0.022,-0.012,0.008,-0.015,-0.01,-0.008,-1.618,0.051,0.112,31.27,91.2,40.506012,-3.359448,600.6,3,5,273.2,2.109
31.76,1,-0.049,-0.027,-0.012,-0.026,-0.018,0.008,-1.619,0.055,0.115,31.27,91.2,40.506012,-3.359448,600.6,3,5,273.2,2.109
31.86,1,-0.055,-0.012,-0.012,-0.052,-0.016,-0.022,-1.621,0.053,0.118,31.27,91.2,40.506012,-3.359448,600.6,3,5,273.2,2.109
31.96,1,-0.028,0.041,-0.046,-0.04,0.006,-0.018,-1.62,0.046,0.121,31.27,91.2,40.506012,-3.359448,600.6,3,5,273.2,2.109
32.06,1,-0.09,0.013,-0.009,-0.044,0.017,-0.031,-1.615,0.042,0.123,31.27,91.2,40.506012,-3.359448,600.6,3,5,273.2,2.109
32.17,1,-0.058,-0.031,0.056,-0.078,-0.004,0.016,-1.616,0.041,0.126,31.27,91.2,40.506012,-3.359448,600.6,3,5,273.2,2.109
32.26,1,0.036,0.03,-0.062,-0.024,0.002,-0.006,-1.615,0.04,0.129,31.27,91.2,40.506012,-3.359448,600.6,3,5,273.2,2.109
32.36,1,-0.037,0.05,-0.066,-0.024,0.036,-0.05,-1.615,0.042,0.131,31.27,91.2,40.506012,-3.359448,600.6,3,5,273.2,2.109
32.46,1,0.004,0.013,-0.027,0.004,0.019,-0.04,-1.616,0.039,0.134,32.26,95.6,40.506012,-3.359761,601.3,3,5,270.0,4.219
32.56,1,-0.038,-0.022,-0.005,-0.021,0.005,-0.026,-1.615,0.04,0.136,32.26,95.6,40.506012,-3.359761,601.3,3,5,270.0,4.219
32.66,1,-0.051,0.018,-0.001,-0.04,0.004,-0.006,-1.616,0.042,0.138,32.26,95.6,40.506012,-3.359761,601.3,3,5,270.0,4.219
32.77,1,-0.078,0.04,-0.019,-0.054,0.027,-0.017,-1.613,0.038,0.141,32.26,95.6,40.506012,-3.359761,601.3,3,5,270.0,4.219
32.86,1,-0.023,0.018,0.049,-0.049,0.022,0.015,-1.614,0.038,0.143,32.26,95.6,40.506012,-3.359761,601.3,3,5,270.0,4.219
32.96,1,0.002,0.036,-0.057,-0.023,0.025,-0.002,-1.612,0.038,0.146,32.26,95.6,40.506012,-3.359761,601.3,3,5,270.0,4.219
33.06,1,-0.011,0.026,-0.053,-0.011,0.034,-0.044,-1.611,0.036,0.148,32.26,95.6,40.506012,-3.359761,601.3,3,5,270.0,4.219
33.16,1,-0.004,0.017,-0.005,-0.011,0.02,-0.036,-1.61,0.035,0.15,32.26,95.6,40.506012,-3.359761,601.3,3,5,270.0,4.219
33.26,1,-0.024,0.068,-0.087,-0.007,0.038,-0.036,-1.607,0.031,0.153,32.26,95.6,40.506012,-3.359761,601.3,3,5,270.0,4.219
33.37,1,-0.029,0.008,0.049,-0.023,0.036,-0.028,-1.606,0.032,0.155,32.26,95.6,40.506012,-3.359761,601.3,3,5,270.0,4.219
33.46,1,-0.016,0.023,0.009,-0.022,0.02,0.021,-1.605,0.033,0.158,33.26,97.4,40.506004,-3.360083,600.7,3,5,267.9,5.313
33.56,1,-0.031,0.008,-0.003,-0.029,0.026,-0.011,-1.606,0.035,0.161,33.26,97.4,40.506004,-3.360083,600.7,3,5,267.9,5.313
33.66,1,0.02,-0.042,0.088,-0.0,-0.015,0.046,-1.605,0.035,0.163,33.26,97.4,40.506004,-3.360083,600.7,3,5,267.9,5.313
33.77,1,0.01,-0.013,0.039,0.007,-0.015,0.05,-1.603,0.032,0.165,33.26,97.4,40.506004,-3.360083,600.7,3,5,267.9,5.313
33.86,1,-0.048,0.013,0.046,-0.01,-0.01,0.046,-1.603,0.026,0.167,33.26,97.4,40.506004,-3.360083,600.7,3,5,267.9,5.313
33.97,1,-0.071,0.008,-0.01,-0.051,0.014,0.02,-1.608,0.024,0.17,33.26,97.4,40.506004,-3.360083,600.7,3,5,267.9,5.313
34.07,1,-0.04,0.022,-0.031,-0.052,0.012,0.001,-1.61,0.021,0.173,33.26,97.4,40.506004,-3.360083,600.7,3,5,267.9,5.313
34.16,1,-0.027,-0.017,-0.055,-0.044,0.001,-0.041,-1.604,0.021,0.177,33.26,97.4,40.506004,-3.360083,600.7,3,5,267.9,5.313
34.26,1,0.08,-0.032,-0.039,0.009,-0.02,-0.034,-1.603,0.024,0.18,33.26,97.4,40.506004,-3.360083,600.7,3,5,267.9,5.313
34.36,1,-0.011,0.044,-0.112,0.024,0.009,-0.071,-1.596,0.025,0.184,33.26,97.4,40.506004,-3.360083,600.7,3,5,267.9,5.313
34.46,1,-0.003,0.022,-0.081,0.006,0.021,-0.088,-1.594,0.026,0.187,34.26,98.2,40.505997,-3.360393,601.1,3,5,267.9,2.149
34.57,1,-0.042,0.015,-0.036,-0.019,0.018,-0.058,-1.592,0.026,0.19,34.26,98.2,40.505997,-3.360393,601.1,3,5,267.9,2.149
34.66,1,-0.038,-0.017,-0.046,-0.028,0.004,-0.055,-1.589,0.024,0.193,34.26,98.2,40.505997,-3.360393,601.1,3,5,267.9,2.149
34.77,1,0.006,-0.006,-0.041,-0.025,-0.005,-0.041,-1.584,0.022,0.196,34.26,98.2,40.505997,-3.360393,601.1,3,5,267.9,2.149
34.87,1,-0.033,0.003,-0.039,-0.02,-0.003,-0.047,-1.577,0.018,0.199,34.26,98.2,40.505997,-3.360393,601.1,3,5,267.9,2.149
34.97,1,-0.033,-0.023,-0.018,-0.02,-0.013,-0.024,-1.574,0.016,0.202,34.26,98.2,40.505997,-3.360393,601.1,3,5,267.9,2.149
35.07,1,-0.021,-0.051,-0.006,-0.028,-0.024,-0.024,-1.572,0.017,0.205,34.26,98.2,40.505997,-3.360393,601.1,3,5,267.9,2.149
35.17,1,0.033,-0.018,-0.026,-0.004,-0.032,-0.014,-1.572,0.015,0.208,34.26,98.2,40.505997,-3.360393,601.1,3,5,267.9,2.149
35.27,1,-0.002,-0.019,-0.036,0.005,-0.02,-0.028,-1.569,0.014,0.211,34.26,98.2,40.505997,-3.360393,601.1,3,5,267.9,2.149
35.37,1,-0.029,-0.031,0.007,-0.013,-0.028,-0.022,-1.565,0.013,0.215,34.26,98.2,40.505997,-3.360393,601.1,3,5,267.9,2.149
35.47,1,-0.028,-0.0,0.01,-0.005,-0.027,0.009,-1.567,0.005,0.217,35.27,98.9,40.505985,-3.360722,602.7,3,5,266.7,1.195
35.57,1,-0.024,-0.031,-0.025,-0.026,-0.014,-0.013,-1.567,0.005,0.22,35.27,98.9,40.505985,-3.360722,602.7,3,5,266.7,1.195
35.67,1,-0.003,0.003,0.021,-0.028,-0.007,-0.001,-1.568,0.006,0.224,35.27,98.9,40.505985,-3.360722,602.7,3,5,266.7,1.195
35.78,1,-0.007,0.061,-0.057,-0.004,0.024,-0.012,-1.565,0.007,0.226,35.27,98.9,40.505985,-3.360722,602.7,3,5,266.7,1.195
35.87,1,0.05,0.024,-0.058,0.006,0.035,-0.049,-1.56,0.007,0.229,35.27,98.9,40.505985,-3.360722,602.7,3,5,266.7,1.195
35.98,1,0.028,0.033,-0.001,0.041,0.022,-0.029,-1.557,0.006,0.231,35.27,98.9,40.505985,-3.360722,602.7,3,5,266.7,1.195
36.07,1,0.031,0.018,-0.001,0.03,0.022,-0.014,-1.557,0.003,0.233,35.27,98.9,40.505985,-3.360722,602.7,3,5,266.7,1.195
36.18,1,-0.008,0.025,0.029,0.009,0.031,0.002,-1.558,0.002,0.235,35.27,98.9,40.505985,-3.360722,602.7,3,5,266.7,1.195
36.27,1,-0.036,-0.02,0.048,-0.009,0.004,0.033,-1.562,0.005,0.238,35.27,98.9,40.505985,-3.360722,602.7,3,5,266.7,1.195
36.38,1,-0.0,-0.002,0.03,-0.015,-0.002,0.035,-1.565,0.005,0.24,35.27,98.9,40.505985,-3.360722,602.7,3,5,266.7,1.195
36.48,1,-0.01,0.025,-0.077,-0.011,0.006,-0.004,-1.563,0.007,0.242,36.27,99.2,40.505966,-3.361052,601.6,3,5,265.2,2.695
36.57,1,0.091,-0.013,0.036,0.028,0.005,-0.018,-1.562,0.008,0.245,36.27,99.2,40.505966,-3.361052,601.6,3,5,265.2,2.695
36.67,1,-0.029,0.027,0.003,0.017,0.015,0.016,-1.561,0.007,0.247,36.27,99.2,40.505966,-3.361052,601.6,3,5,265.2,2.695
36.77,1,-0.13,-0.008,0.023,-0.049,0.016,0.007,-1.563,0.008,0.25,36.27,99.2,40.505966,-3.361052,601.6,3,5,265.2,2.695
36.88,1,0.006,-0.038,0.09,-0.034,-0.028,0.05,-1.564,0.01,0.253,36.27,99.2,40.505966,-3.361052,601.6,3,5,265.2,2.695
36.97,1,-0.04,-0.042,0.044,-0.045,-0.023,0.049,-1.563,0.01,0.256,36.27,99.2,40.505966,-3.361052,601.6,3,5,265.2,2.695
37.07,1,0.045,-0.007,0.079,0.006,-0.038,0.065,-1.565,0.008,0.259,36.27,99.2,40.505966,-3.361052,601.6,3,5,265.2,2.695
37.17,1,0.068,0.028,-0.005,0.033,0.004,0.04,-1.567,0.008,0.262,36.27,99.2,40.505966,-3.361052,601.6,3,5,265.2,2.695
37.27,1,0.016,0.033,-0.01,0.033,0.021,0.006,-1.568,0.004,0.265,36.27,99.2,40.505966,-3.361052,601.6,3,5,265.2,2.695
37.37,1,0.01,0.02,-0.027,0.027,0.027,-0.01,-1.567,-0.001,0.267,36.27,99.2,40.505966,-3.361052,601.6,3,5,265.2,2.695
37.48,1,-0.031,0.001,0.003,-0.003,0.014,-0.009,-1.568,-0.002,0.27,37.29,99.7,40.505936,-3.361371,601.8,3,5,263.8,2.808
37.58,1,-0.048,-0.027,0.052,-0.031,-0.012,0.014,-1.572,0.0,0.271,37.29,99.7,40.505936,-3.361371,601.8,3,5,263.8,2.808
37.68,1,0.015,0.002,0.056,-0.02,-0.009,0.048,-1.579,-0.003,0.273,37.29,99.7,40.505936,-3.361371,601.8,3,5,263.8,2.808
37.77,1,0.011,0.05,0.007,-0.004,0.024,0.028,-1.582,-0.005,0.275,37.29,99.7,40.505936,-3.361371,601.8,3,5,263.8,2.808
37.87,1,0.035,0.049,0.02,0.033,0.028,0.022,-1.582,-0.005,0.277,37.29,99.7,40.505936,-3.361371,601.8,3,5,263.8,2.808
37.98,1,0.007,0.026,-0.002,0.023,0.034,0.014,-1.584,-0.008,0.279,37.29,99.7,40.505936,-3.361371,601.8,3,5,263.8,2.808
38.08,1,-0.016,-0.001,0.007,-0.001,0.027,0.004,-1.584,-0.009,0.28,37.29,99.7,40.505936,-3.361371,601.8,3,5,263.8,2.808
38.19,1,-0.0,0.037,0.004,-0.005,0.023,0.003,-1.585,-0.015,0.28,37.29,99.7,40.505936,-3.361371,601.8,3,5,263.8,2.808
38.28,1,-0.002,0.037,0.029,-0.012,0.038,0.015,-1.587,-0.02,0.282,37.29,99.7,40.505936,-3.361371,601.8,3,5,263.8,2.808
38.38,1,-0.049,0.028,-0.004,-0.014,0.022,0.011,-1.59,-0.019,0.283,37.29,99.7,40.505936,-3.361371,601.8,3,5,263.8,2.808
38.48,1,-0.037,0.013,0.02,-0.034,0.02,0.008,-1.593,-0.02,0.285,38.27,100.3,40.505894,-3.361692,604.8,3,5,260.8,4.306
38.58,1,-0.014,0.018,0.003,-0.03,0.018,0.008,-1.596,-0.019,0.286,38.27,100.3,40.505894,-3.361692,604.8,3,5,260.8,4.306
38.68,1,0.029,0.036,-0.012,0.0,0.027,0.002,-1.591,-0.019,0.287,38.27,100.3,40.505894,-3.361692,604.8,3,5,260.8,4.306
38.79,1,-0.05,-0.039,0.016,-0.007,0.012,0.004,-1.591,-0.017,0.29,38.27,100.3,40.505894,-3.361692,604.8,3,5,260.8,4.306
38.88,1,-0.069,-0.071,0.048,-0.045,-0.037,0.019,-1.592,-0.016,0.292,38.27,100.3,40.505894,-3.361692,604.8,3,5,260.8,4.306
38.98,1,-0.022,-0.051,0.047,-0.041,-0.047,0.054,-1.591,-0.016,0.295,38.27,100.3,40.505894,-3.361692,604.8,3,5,260.8,4.306
39.08,1,0.004,-0.052,-0.018,-0.011,-0.056,0.015,-1.589,-0.017,0.297,38.27,100.3,40.505894,-3.361692,604.8,3,5,260.8,4.306
39.18,1,-0.046,-0.006,-0.044,-0.038,-0.032,-0.023,-1.59,-0.018,0.3,38.27,100.3,40.505894,-3.361692,604.8,3,5,260.8,4.306
39.29,1,-0.042,-0.061,0.026,-0.042,-0.037,-0.003,-1.59,-0.019,0.303,38.27,100.3,40.505894,-3.361692,604.8,3,5,260.8,4.306
39.39,1,0.035,-0.041,0.01,-0.012,-0.05,0.01,-1.587,-0.019,0.307,38.27,100.3,40.505894,-3.361692,604.8,3,5,260.8,4.306
39.48,1,0.022,-0.03,-0.134,0.025,-0.041,-0.046,-1.584,-0.016,0.31,39.26,101.0,40.505852,-3.362021,604.2,3,5,260.3,3.574
39.58,1,-0.06,-0.039,-0.13,-0.016,-0.036,-0.11,-1.583,-0.013,0.314,39.26,101.0,40.505852,-3.362021,604.2,3,5,260.3,3.574
39.68,1,-0.012,-0.069,-0.056,-0.028,-0.051,-0.088,-1.58,-0.002,0.317,39.26,101.0,40.505852,-3.362021,604.2,3,5,260.3,3.574
39.78,1,-0.045,-0.057,-0.058,-0.025,-0.061,-0.071,-1.578,-0.002,0.32,39.26,101.0,40.505852,-3.362021,604.2,3,5,260.3,3.574
39.88,1,-0.038,-0.06,-0.018,-0.042,-0.043,-0.046,-1.577,-0.007,0.322,39.26,101.0,40.505852,-3.362021,604.2,3,5,260.3,3.574
39.98,1,0.043,-0.049,-0.006,-0.01,-0.062,-0.019,-1.576,-0.009,0.325,39.26,101.0,40.505852,-3.362021,604.2,3,5,260.3,3.574
40.08,1,0.001,-0.039,0.0,0.013,-0.053,-0.009,-1.575,-0.009,0.328,39.26,101.0,40.505852,-3.362021,604.2,3,5,260.3,3.574
40.18,1,-0.032,-0.027,-0.069,-0.005,-0.035,-0.03,-1.571,-0.006,0.331,39.26,101.0,40.505852,-3.362021,604.2,3,5,260.3,3.574
40.28,1,-0.026,0.004,-0.072,-0.019,-0.018,-0.06,-1.568,-0.005,0.333,39.26,101.0,40.505852,-3.362021,604.2,3,5,260.3,3.574
40.38,1,0.036,0.013,-0.081,-0.005,-0.0,-0.069,-1.56,-0.013,0.335,39.26,101.0,40.505852,-3.362021,604.2,3,5,260.3,3.574
40.49,1,0.004,-0.004,-0.071,0.015,0.004,-0.078,-1.544,-0.015,0.337,40.32,101.8,40.505802,-3.362341,604.7,3,5,258.2,2.662
40.58,1,-0.055,-0.028,-0.066,-0.012,-0.009,-0.064,-1.534,-0.011,0.339,40.32,101.8,40.505802,-3.362341,604.7,3,5,258.2,2.662
40.68,1,-0.007,0.034,-0.063,-0.031,-0.001,-0.07,-1.531,-0.013,0.341,40.32,101.8,40.505802,-3.362341,604.7,3,5,258.2,2.662
40.78,1,0.001,-0.006,-0.064,-0.01,0.008,-0.064,-1.526,-0.015,0.343,40.32,101.8,40.505802,-3.362341,604.7,3,5,258.2,2.662
40.88,1,-0.019,-0.009,-0.027,-0.009,0.0,-0.048,-1.521,-0.012,0.346,40.32,101.8,40.505802,-3.362341,604.7,3,5,258.2,2.662
40.98,1,-0.008,-0.017,-0.003,-0.012,-0.01,-0.027,-1.518,-0.008,0.348,40.32,101.8,40.505802,-3.362341,604.7,3,5,258.2,2.662
41.08,1,0.044,-0.039,0.058,0.016,-0.026,0.014,-1.519,-0.006,0.349,40.32,101.8,40.505802,-3.362341,604.7,3,5,258.2,2.662
41.18,1,-0.021,-0.03,0.054,-0.001,-0.032,0.04,-1.521,-0.004,0.352,40.32,101.8,40.505802,-3.362341,604.7,3,5,258.2,2.662
41.3,1,-0.039,0.002,0.006,-0.017,-0.017,0.034,-1.524,-0.003,0.356,40.32,101.8,40.505802,-3.362341,604.7,3,5,258.2,2.662
41.39,1,0.027,0.021,-0.069,-0.009,-0.001,-0.013,-1.52,-0.005,0.357,40.32,101.8,40.505802,-3.362341,604.7,3,5,258.2,2.662
41.49,1,-0.041,0.026,-0.069,-0.007,0.02,-0.057,-1.51,-0.009,0.359,41.27,100.6,40.505749,-3.362663,604.5,3,5,257.0,3.298
41.59,1,0.003,0.013,-0.014,-0.016,0.018,-0.038,-1.507,-0.008,0.361,41.27,100.6,40.505749,-3.362663,604.5,3,5,257.0,3.298
41.69,1,0.0,0.03,0.028,-0.005,0.022,-0.008,-1.506,-0.008,0.363,41.27,100.6,40.505749,-3.362663,604.5,3,5,257.0,3.298
41.79,1,-0.023,0.025,-0.054,-0.011,0.021,-0.014,-1.504,-0.007,0.365,41.27,100.6,40.505749,-3.362663,604.5,3,5,257.0,3.298
41.89,1,-0.01,0.022,-0.015,-0.01,0.029,-0.031,-1.5,-0.01,0.366,41.27,100.6,40.505749,-3.362663,604.5,3,5,257.0,3.298
41.99,1,-0.068,-0.024,0.049,-0.028,0.003,0.008,-1.503,-0.009,0.368,41.27,100.6,40.505749,-3.362663,604.5,3,5,257.0,3.298
42.09,1,0.043,0.018,-0.005,-0.012,0.001,0.015,-1.504,-0.013,0.369,41.27,100.6,40.505749,-3.362663,604.5,3,5,257.0,3.298
42.19,1,-0.032,0.068,-0.007,-0.017,0.033,-0.009,-1.502,-0.018,0.37,41.27,100.6,40.505749,-3.362663,604.5,3,5,257.0,3.298
42.3,1,-0.056,0.012,0.032,-0.032,0.031,0.021,-1.505,-0.018,0.372,41.27,100.6,40.505749,-3.362663,604.5,3,5,257.0,3.298
42.39,1,0.016,0.03,-0.026,-0.018,0.026,-0.001,-1.505,-0.015,0.374,41.27,100.6,40.505749,-3.362663,604.5,3,5,257.0,3.298
42.5,1,0.034,-0.012,0.025,0.018,0.012,0.008,-1.503,-0.013,0.375,42.26,96.5,40.505684,-3.362982,606.0,3,5,254.3,3.883
42.59,1,-0.008,0.025,-0.032,0.014,0.013,-0.005,-1.502,-0.016,0.376,42.26,96.5,40.505684,-3.362982,606.0,3,5,254.3,3.883
42.69,1,-0.035,0.009,0.025,-0.015,0.016,-0.002,-1.502,-0.017,0.378,42.26,96.5,40.505684,-3.362982,606.0,3,5,254.3,3.883
42.79,1,-0.032,0.02,0.003,-0.025,0.011,0.01,-1.505,-0.016,0.379,42.26,96.5,40.505684,-3.362982,606.0,3,5,254.3,3.883
42.89,1,-0.003,0.016,0.03,-0.019,0.02,0.011,-1.507,-0.016,0.381,42.26,96.5,40.505684,-3.362982,606.0,3,5,254.3,3.883
42.99,1,-0.004,0.016,-0.032,-0.014,0.014,0.004,-1.507,-0.017,0.381,42.26,96.5,40.505684,-3.362982,606.0,3,5,254.3,3.883
43.09,1,-0.018,0.003,0.023,-0.011,0.01,0.002,-1.504,-0.017,0.382,42.26,96.5,40.505684,-3.362982,606.0,3,5,254.3,3.883
43.19,1,0.036,0.024,-0.033,0.005,0.015,-0.01,-1.502,-0.019,0.383,42.26,96.5,40.505684,-3.362982,606.0,3,5,254.3,3.883
43.29,1,0.018,0.014,0.03,0.019,0.015,0.006,-1.501,-0.02,0.384,42.26,96.5,40.505684,-3.362982,606.0,3,5,254.3,3.883
43.39,1,0.033,0.031,0.023,0.024,0.024,0.014,-1.5,-0.019,0.386,42.26,96.5,40.505684,-3.362982,606.0,3,5,254.3,3.883
43.5,1,-0.006,0.041,-0.032,0.016,0.033,0.001,-1.5,-0.018,0.387,43.26,95.1,40.505619,-3.363281,604.7,3,5,253.5,3.479
43.59,1,-0.02,-0.01,0.036,-0.004,0.018,0.009,-1.503,-0.019,0.388,43.26,95.1,40.505619,-3.363281,604.7,3,5,253.5,3.479
43.69,1,-0.021,-0.025,0.035,-0.016,-0.008,0.02,-1.506,-0.018,0.389,43.26,95.1,40.505619,-3.363281,604.7,3,5,253.5,3.479
43.8,1,-0.017,-0.006,0.027,-0.02,-0.014,0.03,-1.509,-0.018,0.39,43.26,95.1,40.505619,-3.363281,604.7,3,5,253.5,3.479
43.89,1,-0.01,-0.013,0.016,-0.013,-0.008,0.025,-1.508,-0.02,0.391,43.26,95.1,40.505619,-3.363281,604.7,3,5,253.5,3.479
43.99,1,-0.031,0.035,0.003,-0.019,0.014,0.007,-1.508,-0.021,0.393,43.26,95.1,40.505619,-3.363281,604.7,3,5,253.5,3.479
44.09,1,-0.004,0.009,-0.009,-0.018,0.012,0.003,-1.508,-0.024,0.395,43.26,95.1,40.505619,-3.363281,604.7,3,5,253.5,3.479
44.19,1,0.006,0.009,-0.005,-0.0,0.007,-0.0,-1.507,-0.023,0.395,43.26,95.1,40.505619,-3.363281,604.7,3,5,253.5,3.479
44.3,1,-0.037,0.001,0.018,-0.018,0.006,-0.001,-1.507,-0.021,0.397,43.26,95.1,40.505619,-3.363281,604.7,3,5,253.5,3.479
44.4,1,-0.054,-0.002,0.035,-0.035,0.0,0.024,-1.51,-0.021,0.398,43.26,95.1,40.505619,-3.363281,604.7,3,5,253.5,3.479
44.5,1,-0.018,0.009,0.011,-0.03,0.006,0.016,-1.512,-0.022,0.399,44.26,92.8,40.505547,-3.363574,604.2,3,5,252.0,2.292
44.6,1,0.007,0.012,0.019,-0.017,0.007,0.016,-1.511,-0.024,0.4,44.26,92.8,40.505547,-3.363574,604.2,3,5,252.0,2.292
44.7,1,0.009,0.006,0.008,0.008,0.007,0.019,-1.512,-0.025,0.401,44.26,92.8,40.505547,-3.363574,604.2,3,5,252.0,2.292
44.8,1,0.003,-0.008,0.056,0.003,-0.003,0.031,-1.516,-0.023,0.402,44.26,92.8,40.505547,-3.363574,604.2,3,5,252.0,2.292
44.9,1,-0.032,0.0,0.042,-0.014,-0.001,0.043,-1.518,-0.021,0.403,44.26,92.8,40.505547,-3.363574,604.2,3,5,252.0,2.292
45.0,1,-0.025,-0.002,0.005,-0.026,0.002,0.025,-1.519,-0.022,0.404,44.26,92.8,40.505547,-3.363574,604.2,3,5,252.0,2.292
45.1,1,-0.015,-0.002,0.041,-0.018,-0.001,0.026,-1.521,-0.02,0.405,44.26,92.8,40.505547,-3.363574,604.2,3,5,252.0,2.292
45.2,1,0.011,0.01,0.03,-0.003,0.004,0.032,-1.523,-0.022,0.406,44.26,92.8,40.505547,-3.363574,604.2,3,5,252.0,2.292
45.3,1,-0.016,-0.016,0.041,-0.011,-0.005,0.031,-1.525,-0.022,0.407,44.26,92.8,40.505547,-3.363574,604.2,3,5,252.0,2.292
45.4,1,0.002,-0.006,0.037,-0.004,-0.012,0.042,-1.529,-0.021,0.408,44.26,92.8,40.505547,-3.363574,604.2,3,5,252.0,2.292
45.5,1,0.008,0.0,0.005,0.003,-0.0,0.026,-1.529,-0.022,0.409,45.28,92.2,40.505474,-3.363865,602.4,3,5,249.6,3.897
45.6,1,0.015,0.009,0.032,0.005,0.005,0.015,-1.53,-0.025,0.41,45.28,92.2,40.505474,-3.363865,602.4,3,5,249.6,3.897
45.7,1,0.034,0.014,0.037,0.018,0.008,0.037,-1.534,-0.028,0.411,45.28,92.2,40.505474,-3.363865,602.4,3,5,249.6,3.897
45.8,1,-0.016,0.037,0.024,0.018,0.019,0.031,-1.533,-0.03,0.413,45.28,92.2,40.505474,-3.363865,602.4,3,5,249.6,3.897
45.9,1,-0.035,-0.01,0.019,-0.012,0.016,0.02,-1.538,-0.03,0.414,45.28,92.2,40.505474,-3.363865,602.4,3,5,249.6,3.897
46.0,1,-0.08,-0.026,0.095,-0.046,-0.012,0.053,-1.544,-0.027,0.415,45.28,92.2,40.505474,-3.363865,602.4,3,5,249.6,3.897
46.11,1,-0.036,-0.043,0.058,-0.054,-0.029,0.065,-1.551,-0.024,0.416,45.28,92.2,40.505474,-3.363865,602.4,3,5,249.6,3.897
46.21,1,0.012,0.015,0.035,-0.021,-0.013,0.054,-1.555,-0.025,0.417,45.28,92.2,40.505474,-3.363865,602.4,3,5,249.6,3.897
46.31,1,0.037,-0.009,0.03,0.009,0.001,0.035,-1.556,-0.028,0.419,45.28,92.2,40.505474,-3.363865,602.4,3,5,249.6,3.897
46.4,1,-0.031,0.004,0.003,-0.006,0.005,0.017,-1.556,-0.026,0.421,45.28,92.2,40.505474,-3.363865,602.4,3,5,249.6,3.897
46.5,1,0.019,0.004,0.054,0.004,-0.007,0.035,-1.56,-0.022,0.422,46.26,90.2,40.50539,-3.364143,603.1,3,5,249.6,2.414
46.6,1,0.01,-0.007,0.022,0.005,-0.005,0.031,-1.563,-0.023,0.424,46.26,90.2,40.50539,-3.364143,603.1,3,5,249.6,2.414
46.71,1,-0.044,-0.026,0.033,-0.009,-0.01,0.032,-1.565,-0.021,0.425,46.26,90.2,40.50539,-3.364143,603.1,3,5,249.6,2.414
46.8,1,0.008,-0.02,0.056,-0.01,-0.015,0.035,-1.566,-0.02,0.426,46.26,90.2,40.50539,-3.364143,603.1,3,5,249.6,2.414
46.9,1,0.027,0.012,0.04,0.008,-0.007,0.052,-1.569,-0.018,0.427,46.26,90.2,40.50539,-3.364143,603.1,3,5,249.6,2.414
47.0,1,0.008,-0.005,0.023,0.017,-0.004,0.035,-1.57,-0.02,0.428,46.26,90.2,40.50539,-3.364143,603.1,3,5,249.6,2.414
47.1,1,-0.024,0.007,0.025,-0.007,0.001,0.025,-1.573,-0.02,0.429,46.26,90.2,40.50539,-3.364143,603.1,3,5,249.6,2.414
47.2,1,-0.029,0.021,0.009,-0.018,0.008,0.016,-1.574,-0.019,0.431,46.26,90.2,40.50539,-3.364143,603.1,3,5,249.6,2.414
47.32,1,0.0,-0.017,0.034,-0.012,0.005,0.021,-1.575,-0.018,0.432,46.26,90.2,40.50539,-3.364143,603.1,3,5,249.6,2.414
47.41,1,0.001,0.009,0.032,-0.008,-0.004,0.038,-1.575,-0.02,0.433,46.26,90.2,40.50539,-3.364143,603.1,3,5,249.6,2.414
47.5,1,-0.001,-0.003,0.022,0.001,0.004,0.025,-1.577,-0.022,0.434,47.3,92.2,40.505302,-3.364423,604.7,3,5,246.6,2.954
47.6,1,0.014,-0.02,0.043,0.003,-0.005,0.03,-1.58,-0.021,0.435,47.3,92.2,40.505302,-3.364423,604.7,3,5,246.6,2.954
47.71,1,0.018,-0.01,0.086,0.014,-0.011,0.055,-1.584,-0.022,0.436,47.3,92.2,40.505302,-3.364423,604.7,3,5,246.6,2.954
47.81,1,0.026,0.015,0.03,0.022,-0.003,0.055,-1.584,-0.022,0.437,47.3,92.2,40.505302,-3.364423,604.7,3,5,246.6,2.954
47.91,1,0.002,-0.002,0.007,0.014,0.001,0.03,-1.585,-0.022,0.437,47.3,92.2,40.505302,-3.364423,604.7,3,5,246.6,2.954
48.01,1,-0.026,-0.005,0.023,-0.012,0.005,0.013,-1.585,-0.022,0.438,47.3,92.2,40.505302,-3.364423,604.7,3,5,246.6,2.954
48.11,1,-0.022,-0.001,0.041,-0.01,-0.011,0.038,-1.589,-0.02,0.439,47.3,92.2,40.505302,-3.364423,604.7,3,5,246.6,2.954
48.21,1,0.011,-0.01,0.03,-0.011,-0.005,0.03,-1.586,-0.021,0.44,47.3,92.2,40.505302,-3.364423,604.7,3,5,246.6,2.954
48.32,1,-0.007,0.009,0.004,-0.003,-0.002,0.024,-1.583,-0.019,0.441,47.3,92.2,40.505302,-3.364423,604.7,3,5,246.6,2.954
48.41,1,-0.013,0.003,0.025,-0.009,0.002,0.017,-1.584,-0.019,0.441,47.3,92.2,40.505302,-3.364423,604.7,3,5,246.6,2.954
48.51,1,-0.041,0.036,-0.008,-0.021,0.019,0.006,-1.585,-0.022,0.442,48.3,93.5,40.505211,-3.364705,604.7,3,5,246.6,2.954
48.61,1,-0.029,-0.004,0.019,-0.026,0.014,0.011,-1.586,-0.022,0.443,48.3,93.5,40.505211,-3.364705,604.7,3,5,246.6,2.954
48.71,1,-0.017,0.02,0.015,-0.027,0.006,0.012,-1.587,-0.021,0.445,48.3,93.5,40.505211,-3.364705,604.7,3,5,246.6,2.954
48.81,1,0.01,0.014,0.028,-0.017,0.016,0.02,-1.585,-0.021,0.445,48.3,93.5,40.505211,-3.364705,604.7,3,5,246.6,2.954
48.91,1,0.055,0.008,-0.001,0.027,0.013,0.013,-1.582,-0.022,0.446,48.3,93.5,40.505211,-3.364705,604.7,3,5,246.6,2.954
49.01,1,-0.043,-0.006,0.039,0.011,0.003,0.02,-1.582,-0.019,0.447,48.3,93.5,40.505211,-3.364705,604.7,3,5,246.6,2.954
49.12,1,-0.021,-0.017,0.018,-0.02,-0.007,0.025,-1.584,-0.018,0.449,48.3,93.5,40.505211,-3.364705,604.7,3,5,246.6,2.954
49.21,1,-0.022,0.007,0.04,-0.02,-0.0,0.026,-1.587,-0.019,0.45,48.3,93.5,40.505211,-3.364705,604.7,3,5,246.6,2.954
49.31,1,-0.062,0.016,0.012,-0.039,0.009,0.03,-1.587,-0.02,0.448,48.3,93.5,40.505211,-3.364705,604.7,3,5,246.6,2.954
49.41,1,-0.024,-0.011,0.033,-0.035,0.005,0.017,-1.586,-0.022,0.45,48.3,93.5,40.505211,-3.364705,604.7,3,5,246.6,2.954
49.51,1,0.026,0.009,0.05,-0.004,-0.001,0.041,-1.588,-0.025,0.451,49.3,92.3,40.505112,-3.364975,605.4,3,5,244.8,1.845
49.61,1,0.025,-0.008,0.004,0.009,0.0,0.031,-1.589,-0.026,0.451,49.3,92.3,40.505112,-3.364975,605.4,3,5,244.8,1.845
49.72,1,-0.011,0.031,-0.024,0.004,0.014,-0.001,-1.591,-0.028,0.453,49.3,92.3,40.505112,-3.364975,605.4,3,5,244.8,1.845
49.82,1,-0.003,0.015,0.049,-0.01,0.02,0.013,-1.592,-0.028,0.455,49.3,92.3,40.505112,-3.364975,605.4,3,5,244.8,1.845
49.91,1,-0.048,-0.001,0.03,-0.015,-0.0,0.033,-1.592,-0.029,0.453,49.3,92.3,40.505112,-3.364975,605.4,3,5,244.8,1.845
50.01,1,0.02,0.007,-0.032,-0.009,0.006,0.003,-1.591,-0.031,0.453,49.3,92.3,40.505112,-3.364975,605.4,3,5,244.8,1.845
50.11,1,-0.023,-0.007,0.025,-0.003,0.004,-0.001,-1.589,-0.031,0.453,49.3,92.3,40.505112,-3.364975,605.4,3,5,244.8,1.845
50.21,1,-0.046,-0.012,-0.032,-0.03,-0.009,0.001,-1.589,-0.028,0.456,49.3,92.3,40.505112,-3.364975,605.4,3,5,244.8,1.845
50.31,1,-0.004,-0.012,-0.048,-0.027,-0.007,-0.029,-1.585,-0.027,0.457,49.3,92.3,40.505112,-3.364975,605.4,3,5,244.8,1.845
50.41,1,0.003,-0.039,0.004,-0.009,-0.019,-0.019,-1.581,-0.027,0.458,49.3,92.3,40.505112,-3.364975,605.4,3,5,244.8,1.845
50.51,1,-0.023,-0.046,0.021,-0.01,-0.037,-0.003,-1.579,-0.026,0.459,50.27,96.6,40.505001,-3.365267,606.4,3,5,242.0,4.669
50.62,1,0.009,-0.003,-0.021,-0.009,-0.027,-0.001,-1.579,-0.026,0.461,50.27,96.6,40.505001,-3.365267,606.4,3,5,242.0,4.669
50.71,1,-0.009,0.023,-0.054,-0.003,-0.004,-0.031,-1.575,-0.026,0.462,50.27,96.6,40.505001,-3.365267,606.4,3,5,242.0,4.669
50.82,1,0.028,-0.024,0.021,0.005,-0.005,-0.015,-1.573,-0.023,0.463,50.27,96.6,40.505001,-3.365267,606.4,3,5,242.0,4.669
50.92,1,0.027,-0.025,-0.001,0.028,-0.019,0.003,-1.572,-0.021,0.465,50.27,96.6,40.505001,-3.365267,606.4,3,5,242.0,4.669
51.02,1,0.006,-0.005,0.029,0.009,-0.011,0.01,-1.574,-0.018,0.465,50.27,96.6,40.505001,-3.365267,606.4,3,5,242.0,4.669
51.12,1,0.044,0.027,-0.038,0.03,0.004,0.003,-1.574,-0.02,0.466,50.27,96.6,40.505001,-3.365267,606.4,3,5,242.0,4.669
51.22,1,-0.01,0.01,-0.042,0.024,0.013,-0.035,-1.573,-0.018,0.468,50.27,96.6,40.505001,-3.365267,606.4,3,5,242.0,4.669
51.32,1,-0.032,-0.029,0.047,-0.019,-0.006,-0.001,-1.576,-0.014,0.468,50.27,96.6,40.505001,-3.365267,606.4,3,5,242.0,4.669
51.42,1,-0.014,0.004,0.022,-0.022,-0.006,0.023,-1.577,-0.012,0.467,50.27,96.6,40.505001,-3.365267,606.4,3,5,242.0,4.669
51.52,1,0.012,-0.009,0.003,0.004,-0.001,0.017,-1.576,-0.011,0.468,51.27,97.3,40.50489,-3.365549,605.9,3,5,241.7,3.1
51.62,1,-0.001,0.056,-0.053,0.006,0.021,-0.023,-1.576,-0.009,0.469,51.27,97.3,40.50489,-3.365549,605.9,3,5,241.7,3.1
51.72,1,0.028,0.021,0.032,0.01,0.023,-0.004,-1.575,-0.011,0.468,51.27,97.3,40.50489,-3.365549,605.9,3,5,241.7,3.1
51.82,1,-0.011,0.015,0.044,0.005,0.025,0.022,-1.577,-0.01,0.469,51.27,97.3,40.50489,-3.365549,605.9,3,5,241.7,3.1
51.92,1,0.015,-0.025,0.049,0.006,-0.0,0.038,-1.58,-0.004,0.47,51.27,97.3,40.50489,-3.365549,605.9,3,5,241.7,3.1
52.03,1,-0.044,-0.039,0.021,-0.013,-0.023,0.035,-1.587,0.003,0.471,51.27,97.3,40.50489,-3.365549,605.9,3,5,241.7,3.1
52.12,1,-0.028,-0.022,0.015,-0.026,-0.027,0.028,-1.59,0.009,0.472,51.27,97.3,40.50489,-3.365549,605.9,3,5,241.7,3.1
52.22,1,0.019,-0.021,0.015,-0.011,-0.022,0.016,-1.59,0.013,0.474,51.27,97.3,40.50489,-3.365549,605.9,3,5,241.7,3.1
52.32,1,-0.004,-0.023,-0.036,0.004,-0.025,-0.004,-1.588,0.018,0.477,51.27,97.3,40.50489,-3.365549,605.9,3,5,241.7,3.1
52.42,1,-0.057,-0.031,0.01,-0.025,-0.024,-0.009,-1.588,0.022,0.479,51.27,97.3,40.50489,-3.365549,605.9,3,5,241.7,3.1
52.52,1,-0.027,-0.037,0.041,-0.038,-0.03,0.019,-1.591,0.026,0.481,52.31,97.2,40.504765,-3.365823,606.6,4,5,240.3,1.72
52.62,1,0.019,-0.04,0.015,-0.014,-0.035,0.024,-1.59,0.031,0.484,52.31,97.2,40.504765,-3.365823,606.6,4,5,240.3,1.72
52.72,1,0.017,-0.039,0.012,0.005,-0.034,0.009,-1.588,0.037,0.489,52.31,97.2,40.504765,-3.365823,606.6,4,5,240.3,1.72
52.82,1,0.04,-0.032,0.02,0.017,-0.041,0.026,-1.59,0.042,0.492,52.31,97.2,40.504765,-3.365823,606.6,4,5,240.3,1.72
52.92,1,0.003,-0.004,-0.021,0.032,-0.022,-0.005,-1.59,0.043,0.496,52.31,97.2,40.504765,-3.365823,606.6,4,5,240.3,1.72
53.02,1,-0.061,-0.01,-0.014,-0.019,-0.014,-0.008,-1.592,0.047,0.499,52.31,97.2,40.504765,-3.365823,606.6,4,5,240.3,1.72
53.12,1,-0.034,-0.03,0.017,-0.038,-0.016,-0.005,-1.591,0.049,0.5,52.31,97.2,40.504765,-3.365823,606.6,4,5,240.3,1.72
53.23,1,-0.025,-0.032,0.061,-0.03,-0.031,0.036,-1.596,0.052,0.501,52.31,97.2,40.504765,-3.365823,606.6,4,5,240.3,1.72
53.32,1,0.028,-0.009,0.063,-0.011,-0.021,0.051,-1.6,0.054,0.503,52.31,97.2,40.504765,-3.365823,606.6,4,5,240.3,1.72
53.42,1,-0.024,0.02,0.021,0.003,-0.001,0.045,-1.604,0.055,0.504,52.31,97.2,40.504765,-3.365823,606.6,4,5,240.3,1.72
53.52,1,-0.004,0.044,0.007,-0.01,0.025,0.017,-1.606,0.055,0.505,53.29,99.0,40.504639,-3.366111,606.0,4,5,238.9,2.802
53.62,1,-0.018,0.029,0.001,-0.016,0.026,0.012,-1.605,0.055,0.506,53.29,99.0,40.504639,-3.366111,606.0,4,5,238.9,2.802
53.72,1,0.027,0.06,-0.012,0.006,0.04,0.0,-1.602,0.053,0.505,53.29,99.0,40.504639,-3.366111,606.0,4,5,238.9,2.802
53.82,1,-0.059,0.035,0.011,-0.016,0.048,-0.004,-1.601,0.052,0.505,53.29,99.0,40.504639,-3.366111,606.0,4,5,238.9,2.802
53.94,1,-0.013,0.026,0.036,-0.021,0.034,0.022,-1.604,0.05,0.505,53.29,99.0,40.504639,-3.366111,606.0,4,5,238.9,2.802
54.03,1,-0.015,0.055,0.027,-0.027,0.038,0.026,-1.603,0.046,0.503,53.29,99.0,40.504639,-3.366111,606.0,4,5,238.9,2.802
54.13,1,0.02,0.077,-0.018,-0.006,0.06,0.006,-1.597,0.042,0.502,53.29,99.0,40.504639,-3.366111,606.0,4,5,238.9,2.802
54.23,1,-0.112,0.075,0.004,-0.031,0.068,-0.005,-1.595,0.041,0.5,53.29,99.0,40.504639,-3.366111,606.0,4,5,238.9,2.802
54.33,1,0.022,0.098,0.032,-0.043,0.079,0.022,-1.599,0.04,0.495,53.29,99.0,40.504639,-3.366111,606.0,4,5,238.9,2.802
54.44,1,0.037,0.108,0.017,0.016,0.097,0.019,-1.596,0.031,0.493,53.29,99.0,40.504639,-3.366111,606.0,4,5,238.9,2.802
54.53,1,-0.011,0.094,-0.015,0.011,0.101,0.005,-1.596,0.028,0.491,54.27,101.2,40.50449,-3.366385,606.3,4,5,238.2,2.042
54.63,1,-0.027,0.061,0.0,-0.012,0.085,-0.003,-1.596,0.026,0.488,54.27,101.2,40.50449,-3.366385,606.3,4,5,238.2,2.042
54.74,1,0.017,0.039,0.055,-0.004,0.056,0.024,-1.597,0.024,0.484,54.27,101.2,40.50449,-3.366385,606.3,4,5,238.2,2.042
54.83,1,0.005,0.081,-0.015,0.005,0.063,0.013,-1.598,0.019,0.48,54.27,101.2,40.50449,-3.366385,606.3,4,5,238.2,2.042
54.93,1,-0.016,0.074,0.044,-0.006,0.074,0.016,-1.6,0.016,0.478,54.27,101.2,40.50449,-3.366385,606.3,4,5,238.2,2.042
55.03,1,0.026,0.074,0.014,0.009,0.074,0.025,-1.6,0.012,0.475,54.27,101.2,40.50449,-3.366385,606.3,4,5,238.2,2.042
55.13,1,-0.036,0.058,-0.001,0.0,0.071,0.015,-1.599,0.011,0.473,54.27,101.2,40.50449,-3.366385,606.3,4,5,238.2,2.042
55.23,1,-0.047,0.035,-0.007,-0.035,0.05,-0.003,-1.6,0.013,0.47,54.27,101.2,40.50449,-3.366385,606.3,4,5,238.2,2.042
55.33,1,-0.053,0.043,0.009,-0.048,0.045,0.0,-1.6,0.013,0.466,54.27,101.2,40.50449,-3.366385,606.3,4,5,238.2,2.042
55.43,1,0.021,0.039,0.023,-0.019,0.041,0.012,-1.604,0.012,0.462,54.27,101.2,40.50449,-3.366385,606.3,4,5,238.2,2.042
55.53,1,0.035,0.034,0.037,0.014,0.036,0.026,-1.606,0.011,0.458,55.27,103.5,40.504349,-3.366664,607.9,4,5,238.2,0.684
55.64,1,0.019,0.039,-0.01,0.016,0.038,0.01,-1.606,0.009,0.456,55.27,103.5,40.504349,-3.366664,607.9,4,5,238.2,0.684
55.73,1,0.034,0.056,-0.012,0.027,0.045,0.003,-1.605,0.009,0.453,55.27,103.5,40.504349,-3.366664,607.9,4,5,238.2,0.684
55.84,1,-0.047,0.037,-0.02,0.002,0.048,-0.016,-1.604,0.008,0.45,55.27,103.5,40.504349,-3.366664,607.9,4,5,238.2,0.684
55.94,1,-0.043,0.01,-0.012,-0.026,0.025,-0.011,-1.604,0.007,0.446,55.27,103.5,40.504349,-3.366664,607.9,4,5,238.2,0.684
56.03,1,-0.005,0.012,-0.014,-0.029,0.022,-0.016,-1.604,0.008,0.445,55.27,103.5,40.504349,-3.366664,607.9,4,5,238.2,0.684
56.13,1,0.041,0.049,-0.033,0.012,0.029,-0.017,-1.602,0.007,0.442,55.27,103.5,40.504349,-3.366664,607.9,4,5,238.2,0.684
56.23,1,-0.002,0.027,-0.007,0.011,0.03,-0.023,-1.603,0.003,0.439,55.27,103.5,40.504349,-3.366664,607.9,4,5,238.2,0.684
56.44,1,-0.02,0.043,0.01,-0.013,0.025,0.015,-1.603,-0.004,0.432,55.27,103.5,40.504349,-3.366664,607.9,4,5,238.2,0.684
56.53,1,0.019,0.022,0.023,-0.003,0.026,0.015,-1.602,-0.006,0.429,55.27,103.5,40.504349,-3.366664,607.9,4,5,238.2,0.684
56.63,1,-0.037,0.067,-0.023,0.004,0.048,-0.004,-1.602,-0.01,0.426,56.27,105.7,40.5042,-3.366951,608.0,4,5,238.2,0.0
56.73,1,0.031,0.011,0.005,-0.001,0.029,-0.007,-1.604,-0.013,0.422,56.27,105.7,40.5042,-3.366951,608.0,4,5,238.2,0.0
56.84,1,-0.004,0.035,-0.01,0.002,0.03,0.002,-1.604,-0.017,0.419,56.27,105.7,40.5042,-3.366951,608.0,4,5,238.2,0.0
56.93,1,-0.012,0.033,-0.01,-0.003,0.032,-0.01,-1.603,-0.02,0.416,56.27,105.7,40.5042,-3.366951,608.0,4,5,238.2,0.0
57.05,1,-0.025,-0.003,0.003,-0.015,0.023,-0.005,-1.605,-0.02,0.413,56.27,105.7,40.5042,-3.366951,608.0,4,5,238.2,0.0
57.15,1,0.031,-0.007,0.001,0.001,0.004,-0.002,-1.601,-0.021,0.41,56.27,105.7,40.5042,-3.366951,608.0,4,5,238.2,0.0
57.24,1,-0.011,0.008,-0.015,-0.001,0.002,-0.005,-1.601,-0.022,0.406,56.27,105.7,40.5042,-3.366951,608.0,4,5,238.2,0.0
57.34,1,-0.025,0.038,-0.012,-0.009,0.016,-0.007,-1.6,-0.022,0.403,56.27,105.7,40.5042,-3.366951,608.0,4,5,238.2,0.0
57.44,1,-0.0,0.038,0.016,-0.015,0.032,-0.003,-1.598,-0.023,0.401,56.27,105.7,40.5042,-3.366951,608.0,4,5,238.2,0.0
57.54,1,-0.033,0.007,-0.01,-0.008,0.022,0.002,-1.596,-0.023,0.398,56.27,105.7,40.5042,-3.366951,608.0,4,5,238.2,0.0
57.65,1,-0.012,-0.017,0.026,-0.021,0.004,0.008,-1.596,-0.022,0.395,57.28,106.2,40.504059,-3.367242,610.6,4,5,236.5,1.667
57.74,1,0.045,-0.024,-0.029,0.006,-0.014,0.001,-1.595,-0.021,0.392,57.28,106.2,40.504059,-3.367242,610.6,4,5,236.5,1.667
57.84,1,0.014,0.005,-0.03,0.017,-0.006,-0.026,-1.59,-0.022,0.39,57.28,106.2,40.504059,-3.367242,610.6,4,5,236.5,1.667
57.94,1,-0.037,0.024,0.028,0.001,0.005,0.002,-1.59,-0.02,0.388,57.28,106.2,40.504059,-3.367242,610.6,4,5,236.5,1.667
58.05,1,0.002,-0.054,-0.01,-0.009,-0.014,0.001,-1.589,-0.021,0.386,57.28,106.2,40.504059,-3.367242,610.6,4,5,236.5,1.667
58.14,1,-0.005,-0.021,0.009,-0.01,-0.024,-0.002,-1.589,-0.017,0.385,57.28,106.2,40.504059,-3.367242,610.6,4,5,236.5,1.667
58.25,1,-0.04,-0.017,0.004,-0.017,-0.019,0.006,-1.586,-0.018,0.383,57.28,106.2,40.504059,-3.367242,610.6,4,5,236.5,1.667
58.34,1,0.002,-0.028,0.006,-0.017,-0.024,0.0,-1.587,-0.018,0.382,57.28,106.2,40.504059,-3.367242,610.6,4,5,236.5,1.667
58.44,1,0.018,-0.021,-0.001,0.007,-0.024,0.008,-1.589,-0.017,0.381,57.28,106.2,40.504059,-3.367242,610.6,4,5,236.5,1.667
58.54,1,-0.014,-0.011,0.004,-0.005,-0.017,-0.001,-1.591,-0.016,0.379,57.28,106.2,40.504059,-3.367242,610.6,4,5,236.5,1.667
58.64,1,0.029,-0.037,0.054,0.008,-0.027,0.024,-1.596,-0.01,0.378,58.27,108.8,40.503918,-3.36754,609.7,4,5,236.5,1.667
58.74,1,0.032,-0.033,-0.017,0.025,-0.025,0.011,-1.594,-0.009,0.376,58.27,108.8,40.503918,-3.36754,609.7,4,5,236.5,1.667
58.85,1,-0.021,-0.014,-0.012,0.006,-0.027,-0.003,-1.595,-0.006,0.375,58.27,108.8,40.503918,-3.36754,609.7,4,5,236.5,1.667
58.94,1,-0.025,0.012,0.007,-0.012,-0.006,-0.006,-1.596,-0.005,0.375,58.27,108.8,40.503918,-3.36754,609.7,4,5,236.5,1.667
59.04,1,-0.011,0.008,-0.008,-0.012,0.004,-0.001,-1.594,-0.005,0.373,58.27,108.8,40.503918,-3.36754,609.7,4,5,236.5,1.667
59.14,1,-0.015,0.013,-0.01,-0.011,0.006,-0.002,-1.593,-0.006,0.37,58.27,108.8,40.503918,-3.36754,609.7,4,5,236.5,1.667
59.25,1,-0.027,0.013,-0.053,-0.029,0.011,-0.029,-1.593,-0.006,0.369,58.27,108.8,40.503918,-3.36754,609.7,4,5,236.5,1.667
59.34,1,0.011,0.003,0.026,-0.002,0.009,-0.007,-1.593,-0.006,0.366,58.27,108.8,40.503918,-3.36754,609.7,4,5,236.5,1.667
59.45,1,0.016,-0.006,-0.039,0.005,-0.0,-0.017,-1.591,-0.005,0.365,58.27,108.8,40.503918,-3.36754,609.7,4,5,236.5,1.667
59.55,1,-0.012,-0.025,-0.013,-0.0,-0.011,-0.021,-1.589,-0.003,0.365,58.27,108.8,40.503918,-3.36754,609.7,4,5,236.5,1.667
59.64,1,-0.072,0.002,-0.006,-0.027,-0.01,-0.01,-1.59,-0.004,0.364,59.34,110.5,40.503769,-3.36784,608.1,4,5,236.5,0.0
59.75,1,-0.016,-0.011,-0.004,-0.038,-0.006,-0.009,-1.591,-0.003,0.362,59.34,110.5,40.503769,-3.36784,608.1,4,5,236.5,0.0
59.85,1,-0.013,-0.035,0.028,-0.023,-0.017,0.007,-1.588,-0.004,0.36,59.34,110.5,40.503769,-3.36784,608.1,4,5,236.5,0.0
59.94,1,0.091,-0.011,-0.017,0.029,-0.025,0.006,-1.583,-0.005,0.359,59.34,110.5,40.503769,-3.36784,608.1,4,5,236.5,0.0
60.06,1,0.147,-0.009,-0.023,0.093,-0.011,-0.011,-1.578,-0.006,0.358,59.34,110.5,40.503769,-3.36784,608.1,4,5,236.5,0.0
60.14,1,0.036,0.012,-0.019,0.082,-0.003,-0.017,-1.578,-0.002,0.357,59.34,110.5,40.503769,-3.36784,608.1,4,5,236.5,0.0
60.25,1,-0.065,0.01,0.006,0.02,0.008,-0.01,-1.581,-0.003,0.357,59.34,110.5,40.503769,-3.36784,608.1,4,5,236.5,0.0
60.35,1,-0.118,-0.036,0.025,-0.066,-0.009,0.012,-1.585,-0.006,0.356,59.34,110.5,40.503769,-3.36784,608.1,4,5,236.5,0.0
60.45,1,-0.002,-0.041,0.015,-0.047,-0.029,0.01,-1.589,-0.004,0.354,59.34,110.5,40.503769,-3.36784,608.1,4,5,236.5,0.0
60.55,1,-0.033,0.009,-0.019,-0.034,-0.015,0.002,-1.588,-0.002,0.351,59.34,110.5,40.503769,-3.36784,608.1,4,5,236.5,0.0
60.66,1,-0.012,-0.007,0.006,-0.026,-0.006,-0.002,-1.592,-0.002,0.35,60.27,107.9,40.503632,-3.368159,610.2,4,5,237.7,1.199
60.76,1,-0.046,-0.012,0.009,-0.036,-0.009,0.004,-1.596,-0.001,0.349,60.27,107.9,40.503632,-3.368159,610.2,4,5,237.7,1.199
60.85,1,-0.061,-0.015,-0.006,-0.041,-0.012,0.004,-1.595,-0.002,0.347,60.27,107.9,40.503632,-3.368159,610.2,4,5,237.7,1.199
60.95,1,-0.015,-0.006,0.005,-0.045,-0.01,-0.0,-1.595,-0.004,0.346,60.27,107.9,40.503632,-3.368159,610.2,4,5,237.7,1.199
61.05,1,-0.002,0.017,-0.017,-0.015,0.001,-0.007,-1.593,-0.005,0.344,60.27,107.9,40.503632,-3.368159,610.2,4,5,237.7,1.199
61.15,1,-0.048,0.005,-0.034,-0.023,0.01,-0.014,-1.593,-0.005,0.343,60.27,107.9,40.503632,-3.368159,610.2,4,5,237.7,1.199
61.26,1,-0.033,0.015,-0.021,-0.034,0.005,-0.03,-1.594,-0.008,0.341,60.27,107.9,40.503632,-3.368159,610.2,4,5,237.7,1.199
61.35,1,0.001,0.012,0.015,-0.018,0.01,-0.003,-1.595,-0.006,0.339,60.27,107.9,40.503632,-3.368159,610.2,4,5,237.7,1.199
61.45,1,-0.042,0.002,-0.005,-0.026,0.008,-0.004,-1.595,-0.006,0.337,60.27,107.9,40.503632,-3.368159,610.2,4,5,237.7,1.199
61.55,1,-0.041,-0.008,-0.011,-0.039,-0.002,-0.002,-1.596,-0.004,0.336,60.27,107.9,40.503632,-3.368159,610.2,4,5,237.7,1.199
61.66,1,-0.019,0.025,-0.031,-0.028,0.008,-0.018,-1.596,-0.006,0.335,61.27,112.7,40.503475,-3.368456,610.5,4,5,237.5,0.959
61.75,1,-0.011,0.033,-0.032,-0.024,0.026,-0.035,-1.592,-0.01,0.334,61.27,112.7,40.503475,-3.368456,610.5,4,5,237.5,0.959
61.86,1,-0.042,0.01,0.002,-0.019,0.02,-0.014,-1.591,-0.01,0.332,61.27,112.7,40.503475,-3.368456,610.5,4,5,237.5,0.959
61.96,1,-0.052,0.013,0.002,-0.051,0.014,-0.004,-1.591,-0.009,0.331,61.27,112.7,40.503475,-3.368456,610.5,4,5,237.5,0.959
62.05,1,0.006,-0.017,0.015,-0.018,0.004,0.006,-1.591,-0.008,0.329,61.27,112.7,40.503475,-3.368456,610.5,4,5,237.5,0.959
62.15,1,0.0,-0.009,0.008,-0.002,-0.014,0.016,-1.591,-0.008,0.328,61.27,112.7,40.503475,-3.368456,610.5,4,5,237.5,0.959
62.25,1,-0.02,0.007,-0.002,-0.016,0.002,-0.0,-1.592,-0.009,0.327,61.27,112.7,40.503475,-3.368456,610.5,4,5,237.5,0.959
62.35,1,0.028,0.043,-0.027,-0.0,0.02,-0.014,-1.59,-0.011,0.325,61.27,112.7,40.503475,-3.368456,610.5,4,5,237.5,0.959
62.46,1,-0.006,-0.017,0.001,0.006,0.011,-0.007,-1.588,-0.014,0.323,61.27,112.7,40.503475,-3.368456,610.5,4,5,237.5,0.959
62.55,1,0.034,-0.027,-0.013,0.021,-0.01,-0.008,-1.588,-0.014,0.321,61.27,112.7,40.503475,-3.368456,610.5,4,5,237.5,0.959
62.65,1,-0.026,-0.021,-0.013,0.003,-0.02,-0.01,-1.585,-0.012,0.32,62.31,114.2,40.503319,-3.368767,607.9,3,5,237.5,0.24
62.75,1,0.005,0.005,-0.025,-0.007,-0.009,-0.02,-1.584,-0.012,0.319,62.31,114.2,40.503319,-3.368767,607.9,3,5,237.5,0.24
62.86,1,0.003,-0.014,-0.044,0.004,-0.007,-0.028,-1.585,-0.011,0.318,62.31,114.2,40.503319,-3.368767,607.9,3,5,237.5,0.24
62.96,1,-0.043,-0.024,-0.031,-0.018,-0.017,-0.034,-1.585,-0.009,0.318,62.31,114.2,40.503319,-3.368767,607.9,3,5,237.5,0.24
63.06,1,-0.026,-0.008,-0.014,-0.029,-0.017,-0.024,-1.585,-0.006,0.317,62.31,114.2,40.503319,-3.368767,607.9,3,5,237.5,0.24
63.16,1,0.023,-0.007,-0.027,-0.016,-0.009,-0.023,-1.586,-0.006,0.315,62.31,114.2,40.503319,-3.368767,607.9,3,5,237.5,0.24
63.26,1,0.026,-0.001,-0.031,0.024,-0.007,-0.028,-1.583,-0.009,0.314,62.31,114.2,40.503319,-3.368767,607.9,3,5,237.5,0.24
63.36,1,0.022,-0.003,-0.008,0.021,-0.005,-0.021,-1.578,-0.011,0.313,62.31,114.2,40.503319,-3.368767,607.9,3,5,237.5,0.24
63.47,1,0.014,-0.007,-0.01,0.016,-0.0,-0.012,-1.576,-0.013,0.313,62.31,114.2,40.503319,-3.368767,607.9,3,5,237.5,0.24
63.56,1,-0.019,0.036,-0.011,0.0,0.005,-0.016,-1.575,-0.012,0.312,62.31,114.2,40.503319,-3.368767,607.9,3,5,237.5,0.24
63.67,1,0.012,-0.012,0.036,0.001,0.009,0.01,-1.578,-0.009,0.31,63.27,115.3,40.503162,-3.369088,609.1,3,5,237.5,0.0
63.76,1,0.056,-0.039,0.01,0.024,-0.013,0.017,-1.58,-0.01,0.309,63.27,115.3,40.503162,-3.369088,609.1,3,5,237.5,0.0
63.86,1,-0.017,-0.005,0.008,0.011,-0.017,0.01,-1.579,-0.014,0.309,63.27,115.3,40.503162,-3.369088,609.1,3,5,237.5,0.0
63.96,1,0.005,-0.006,-0.002,0.003,-0.007,0.004,-1.581,-0.013,0.307,63.27,115.3,40.503162,-3.369088,609.1,3,5,237.5,0.0
64.06,1,0.017,0.002,-0.014,0.017,-0.003,-0.002,-1.58,-0.014,0.306,63.27,115.3,40.503162,-3.369088,609.1,3,5,237.5,0.0
64.16,1,0.006,-0.013,-0.022,0.004,-0.01,-0.014,-1.578,-0.013,0.305,63.27,115.3,40.503162,-3.369088,609.1,3,5,237.5,0.0
64.26,1,-0.022,0.002,-0.013,-0.007,-0.008,-0.012,-1.579,-0.012,0.304,63.27,115.3,40.503162,-3.369088,609.1,3,5,237.5,0.0
64.37,1,-0.018,0.0,-0.036,-0.008,0.002,-0.028,-1.578,-0.014,0.303,63.27,115.3,40.503162,-3.369088,609.1,3,5,237.5,0.0
64.46,1,-0.041,-0.006,-0.005,-0.025,-0.003,-0.019,-1.58,-0.014,0.302,63.27,115.3,40.503162,-3.369088,609.1,3,5,237.5,0.0
64.56,1,-0.034,-0.033,0.013,-0.035,-0.013,-0.002,-1.582,-0.012,0.301,63.27,115.3,40.503162,-3.369088,609.1,3,5,237.5,0.0
64.67,1,0.029,-0.009,-0.042,0.0,-0.02,-0.016,-1.582,-0.01,0.3,64.27,115.9,40.503006,-3.369401,609.5,3,5,236.7,0.765
64.76,1,-0.05,0.01,-0.046,-0.021,0.002,-0.031,-1.58,-0.009,0.3,64.27,115.9,40.503006,-3.369401,609.5,3,5,236.7,0.765
64.87,1,-0.027,0.011,-0.043,-0.034,0.002,-0.042,-1.577,-0.007,0.3,64.27,115.9,40.503006,-3.369401,609.5,3,5,236.7,0.765
64.97,1,0.008,-0.018,0.001,-0.012,-0.002,-0.02,-1.577,-0.005,0.299,64.27,115.9,40.503006,-3.369401,609.5,3,5,236.7,0.765
65.06,1,0.021,-0.046,-0.008,0.001,-0.028,-0.017,-1.577,-0.002,0.3,64.27,115.9,40.503006,-3.369401,609.5,3,5,236.7,0.765
65.16,1,-0.05,0.01,-0.001,-0.013,-0.018,-0.005,-1.576,-0.001,0.3,64.27,115.9,40.503006,-3.369401,609.5,3,5,236.7,0.765
65.26,1,0.026,-0.043,0.017,0.007,-0.021,0.001,-1.576,-0.004,0.3,64.27,115.9,40.503006,-3.369401,609.5,3,5,236.7,0.765
65.37,1,-0.05,-0.016,0.004,-0.021,-0.023,0.009,-1.574,0.004,0.3,64.27,115.9,40.503006,-3.369401,609.5,3,5,236.7,0.765
65.46,1,0.018,-0.038,0.001,-0.011,-0.027,0.006,-1.574,0.008,0.299,64.27,115.9,40.503006,-3.369401,609.5,3,5,236.7,0.765
65.56,1,-0.046,0.018,-0.029,-0.008,-0.015,-0.011,-1.574,0.009,0.299,64.27,115.9,40.503006,-3.369401,609.5,3,5,236.7,0.765
65.66,1,-0.031,0.008,-0.02,-0.038,0.007,-0.017,-1.572,0.009,0.299,65.34,116.4,40.502842,-3.369733,603.8,3,5,237.0,0.496
65.76,1,0.029,-0.023,-0.019,-0.002,-0.007,-0.017,-1.57,0.009,0.299,65.34,116.4,40.502842,-3.369733,603.8,3,5,237.0,0.496
65.86,1,-0.005,0.001,-0.012,-0.009,-0.0,-0.018,-1.569,0.009,0.298,65.34,116.4,40.502842,-3.369733,603.8,3,5,237.0,0.496
65.96,1,0.054,0.017,-0.038,0.021,-0.001,-0.023,-1.568,0.007,0.297,65.34,116.4,40.502842,-3.369733,603.8,3,5,237.0,0.496
66.07,1,-0.014,0.039,-0.008,0.008,0.027,-0.023,-1.565,0.003,0.297,65.34,116.4,40.502842,-3.369733,603.8,3,5,237.0,0.496
66.17,1,0.028,0.013,-0.022,0.026,0.015,-0.016,-1.562,-0.001,0.296,65.34,116.4,40.502842,-3.369733,603.8,3,5,237.0,0.496
66.27,1,-0.047,0.024,-0.009,-0.014,0.027,-0.019,-1.561,0.0,0.296,65.34,116.4,40.502842,-3.369733,603.8,3,5,237.0,0.496
66.37,1,-0.046,0.012,-0.017,-0.021,0.014,-0.016,-1.558,-0.004,0.295,65.34,116.4,40.502842,-3.369733,603.8,3,5,237.0,0.496
66.47,1,-0.003,-0.006,-0.008,-0.023,0.006,-0.006,-1.558,-0.006,0.295,65.34,116.4,40.502842,-3.369733,603.8,3,5,237.0,0.496
66.57,1,-0.05,0.027,-0.038,-0.038,0.016,-0.027,-1.556,-0.008,0.294,65.34,116.4,40.502842,-3.369733,603.8,3,5,237.0,0.496
66.67,1,-0.045,0.019,-0.019,-0.041,0.014,-0.024,-1.555,-0.006,0.293,66.27,116.8,40.502686,-3.370043,596.4,4,5,237.0,0.27
66.77,1,-0.025,-0.013,0.019,-0.03,0.009,-0.009,-1.553,-0.007,0.293,66.27,116.8,40.502686,-3.370043,596.4,4,5,237.0,0.27
66.87,1,-0.004,-0.02,0.024,-0.022,-0.013,0.012,-1.555,-0.005,0.293,66.27,116.8,40.502686,-3.370043,596.4,4,5,237.0,0.27
66.97,1,0.04,0.011,0.007,0.005,0.001,0.016,-1.554,-0.007,0.292,66.27,116.8,40.502686,-3.370043,596.4,4,5,237.0,0.27
67.07,1,0.039,0.038,-0.026,0.037,0.013,-0.002,-1.555,-0.009,0.291,66.27,116.8,40.502686,-3.370043,596.4,4,5,237.0,0.27
67.17,1,0.027,0.06,-0.029,0.022,0.034,-0.022,-1.552,-0.011,0.29,66.27,116.8,40.502686,-3.370043,596.4,4,5,237.0,0.27
67.28,1,0.029,0.024,0.004,0.029,0.04,-0.014,-1.552,-0.015,0.289,66.27,116.8,40.502686,-3.370043,596.4,4,5,237.0,0.27
67.38,1,0.003,0.037,-0.009,0.024,0.037,-0.006,-1.552,-0.015,0.288,66.27,116.8,40.502686,-3.370043,596.4,4,5,237.0,0.27
67.47,1,-0.0,0.042,-0.018,0.0,0.041,-0.015,-1.549,-0.019,0.287,66.27,116.8,40.502686,-3.370043,596.4,4,5,237.0,0.27
67.57,1,0.016,0.001,0.008,0.015,0.024,-0.003,-1.548,-0.02,0.285,66.27,116.8,40.502686,-3.370043,596.4,4,5,237.0,0.27
67.67,1,-0.013,-0.009,0.002,-0.0,0.005,0.0,-1.548,-0.022,0.285,67.28,117.0,40.502529,-3.370363,596.6,4,5,247.6,10.637
67.77,1,-0.048,-0.031,0.014,-0.029,-0.012,0.004,-1.551,-0.021,0.284,67.28,117.0,40.502529,-3.370363,596.6,4,5,247.6,10.637
67.87,1,-0.055,-0.077,0.029,-0.037,-0.047,0.019,-1.555,-0.013,0.284,67.28,117.0,40.502529,-3.370363,596.6,4,5,247.6,10.637
67.97,1,-0.015,-0.076,0.04,-0.035,-0.065,0.031,-1.559,-0.012,0.284,67.28,117.0,40.502529,-3.370363,596.6,4,5,247.6,10.637
68.07,1,-0.041,-0.027,-0.003,-0.029,-0.053,0.021,-1.557,-0.012,0.285,67.28,117.0,40.502529,-3.370363,596.6,4,5,247.6,10.637
68.17,1,-0.033,-0.056,0.008,-0.038,-0.047,0.004,-1.556,-0.014,0.285,67.28,117.0,40.502529,-3.370363,596.6,4,5,247.6,10.637
68.27,1,-0.054,-0.037,-0.034,-0.04,-0.039,-0.007,-1.555,-0.012,0.286,67.28,117.0,40.502529,-3.370363,596.6,4,5,247.6,10.637
68.37,1,0.023,-0.017,-0.035,-0.014,-0.036,-0.027,-1.552,-0.013,0.286,67.28,117.0,40.502529,-3.370363,596.6,4,5,247.6,10.637
68.48,1,0.012,-0.022,0.013,-0.012,-0.019,-0.013,-1.549,-0.009,0.286,67.28,117.0,40.502529,-3.370363,596.6,4,5,247.6,10.637
68.58,1,-0.006,-0.017,-0.005,0.005,-0.027,-0.001,-1.548,-0.004,0.287,67.28,117.0,40.502529,-3.370363,596.6,4,5,247.6,10.637
68.67,1,-0.024,-0.028,0.04,-0.007,-0.022,0.013,-1.548,0.001,0.287,68.29,117.4,40.502396,-3.370707,596.0,3,5,242.8,5.786
68.77,1,0.003,-0.051,-0.004,-0.016,-0.032,0.014,-1.551,0.004,0.288,68.29,117.4,40.502396,-3.370707,596.0,3,5,242.8,5.786
68.87,1,-0.014,-0.002,-0.036,-0.01,-0.024,-0.012,-1.55,0.002,0.288,68.29,117.4,40.502396,-3.370707,596.0,3,5,242.8,5.786
68.97,1,-0.031,0.036,-0.032,-0.0,-0.001,-0.025,-1.549,0.003,0.288,68.29,117.4,40.502396,-3.370707,596.0,3,5,242.8,5.786
69.08,1,0.007,0.004,-0.0,-0.016,0.012,-0.016,-1.547,0.006,0.287,68.29,117.4,40.502396,-3.370707,596.0,3,5,242.8,5.786
69.18,1,0.005,-0.007,-0.023,-0.006,0.004,-0.018,-1.546,0.006,0.287,68.29,117.4,40.502396,-3.370707,596.0,3,5,242.8,5.786
69.28,1,-0.052,0.027,-0.013,-0.011,0.007,-0.015,-1.544,0.007,0.287,68.29,117.4,40.502396,-3.370707,596.0,3,5,242.8,5.786
69.38,1,-0.03,0.016,-0.008,-0.034,0.017,-0.016,-1.54,0.005,0.287,68.29,117.4,40.502396,-3.370707,596.0,3,5,242.8,5.786
69.48,1,-0.003,0.015,0.007,-0.015,0.016,-0.002,-1.541,0.005,0.286,68.29,117.4,40.502396,-3.370707,596.0,3,5,242.8,5.786
69.58,1,0.034,0.026,-0.012,0.002,0.024,-0.004,-1.541,0.004,0.286,68.29,117.4,40.502396,-3.370707,596.0,3,5,242.8,5.786
69.68,1,-0.034,-0.016,-0.033,-0.002,0.006,-0.016,-1.54,0.006,0.286,69.27,117.4,40.502243,-3.371035,597.4,3,5,241.4,6.223
69.78,1,0.02,-0.017,0.022,-0.011,-0.016,-0.002,-1.54,0.002,0.286,69.27,117.4,40.502243,-3.371035,597.4,3,5,241.4,6.223
69.88,1,0.031,0.083,-0.037,0.019,0.027,-0.016,-1.538,-0.005,0.285,69.27,117.4,40.502243,-3.371035,597.4,3,5,241.4,6.223
69.98,1,0.026,0.072,-0.039,0.014,0.059,-0.031,-1.533,-0.006,0.286,69.27,117.4,40.502243,-3.371035,597.4,3,5,241.4,6.223
70.08,1,-0.014,-0.018,0.009,0.026,0.032,-0.014,-1.532,-0.003,0.288,69.27,117.4,40.502243,-3.371035,597.4,3,5,241.4,6.223
70.18,1,-0.084,-0.024,0.07,-0.029,-0.002,0.02,-1.531,0.003,0.288,69.27,117.4,40.502243,-3.371035,597.4,3,5,241.4,6.223
70.28,1,0.066,-0.004,-0.002,-0.006,-0.008,0.03,-1.532,0.001,0.285,69.27,117.4,40.502243,-3.371035,597.4,3,5,241.4,6.223
70.38,1,-0.045,0.025,0.034,-0.004,0.007,0.021,-1.533,0.0,0.286,69.27,117.4,40.502243,-3.371035,597.4,3,5,241.4,6.223
70.48,1,-0.022,0.014,-0.007,-0.029,0.015,0.012,-1.533,-0.001,0.287,69.27,117.4,40.502243,-3.371035,597.4,3,5,241.4,6.223
70.58,1,0.023,-0.01,0.015,-0.003,0.004,0.012,-1.531,0.001,0.288,69.27,117.4,40.502243,-3.371035,597.4,3,5,241.4,6.223
70.68,1,-0.025,0.001,0.015,-0.011,-0.002,0.009,-1.528,0.002,0.289,70.26,117.1,40.502041,-3.371342,598.6,3,5,237.3,5.491
70.78,1,-0.008,-0.016,0.016,-0.003,-0.005,0.017,-1.53,0.001,0.29,70.26,117.1,40.502041,-3.371342,598.6,3,5,237.3,5.491
70.89,1,-0.017,0.005,-0.011,-0.024,-0.004,0.001,-1.528,-0.001,0.29,70.26,117.1,40.502041,-3.371342,598.6,3,5,237.3,5.491
70.99,1,-0.042,0.013,0.013,-0.015,0.005,0.006,-1.527,-0.004,0.291,70.26,117.1,40.502041,-3.371342,598.6,3,5,237.3,5.491
71.08,1,0.012,0.007,-0.008,-0.016,0.007,0.003,-1.525,-0.005,0.292,70.26,117.1,40.502041,-3.371342,598.6,3,5,237.3,5.491
71.18,1,-0.009,0.02,-0.013,-0.0,0.013,-0.007,-1.523,-0.006,0.293,70.26,117.1,40.502041,-3.371342,598.6,3,5,237.3,5.491
71.28,1,-0.053,0.002,0.01,-0.036,0.012,-0.005,-1.522,-0.004,0.296,70.26,117.1,40.502041,-3.371342,598.6,3,5,237.3,5.491
71.38,1,-0.014,0.0,-0.027,-0.022,0.002,-0.008,-1.523,-0.003,0.299,70.26,117.1,40.502041,-3.371342,598.6,3,5,237.3,5.491
71.49,1,-0.036,0.005,-0.042,-0.033,0.005,-0.029,-1.52,-0.003,0.298,70.26,117.1,40.502041,-3.371342,598.6,3,5,237.3,5.491
71.58,1,0.018,-0.007,0.001,-0.012,-0.001,-0.016,-1.517,-0.006,0.298,70.26,117.1,40.502041,-3.371342,598.6,3,5,237.3,5.491
71.68,1,0.01,-0.007,0.008,0.007,-0.003,-0.004,-1.514,-0.01,0.298,71.31,117.0,40.501884,-3.371678,599.4,3,5,237.7,3.768
71.78,1,0.009,0.005,-0.012,0.005,-0.004,-0.003,-1.512,-0.01,0.298,71.31,117.0,40.501884,-3.371678,599.4,3,5,237.7,3.768
71.89,1,-0.001,0.018,0.0,0.005,0.008,-0.004,-1.51,-0.012,0.297,71.31,117.0,40.501884,-3.371678,599.4,3,5,237.7,3.768
71.99,1,0.018,0.001,-0.017,0.008,0.01,-0.009,-1.51,-0.012,0.297,71.31,117.0,40.501884,-3.371678,599.4,3,5,237.7,3.768
72.09,1,0.0,-0.033,-0.025,0.01,-0.01,-0.017,-1.507,-0.009,0.298,71.31,117.0,40.501884,-3.371678,599.4,3,5,237.7,3.768
72.2,1,-0.039,0.014,-0.026,-0.016,-0.009,-0.023,-1.505,-0.009,0.297,71.31,117.0,40.501884,-3.371678,599.4,3,5,237.7,3.768
72.29,1,-0.056,0.002,-0.023,-0.032,0.004,-0.023,-1.505,-0.01,0.297,71.31,117.0,40.501884,-3.371678,599.4,3,5,237.7,3.768
72.39,1,-0.018,0.022,0.004,-0.039,0.011,-0.014,-1.503,-0.011,0.297,71.31,117.0,40.501884,-3.371678,599.4,3,5,237.7,3.768
72.49,1,0.02,-0.026,-0.014,-0.005,-0.002,-0.012,-1.497,-0.013,0.296,71.31,117.0,40.501884,-3.371678,599.4,3,5,237.7,3.768
72.59,1,-0.041,0.017,-0.01,-0.015,0.001,-0.013,-1.495,-0.012,0.296,71.31,117.0,40.501884,-3.371678,599.4,3,5,237.7,3.768
72.69,1,-0.072,0.005,0.028,-0.043,0.009,0.007,-1.495,-0.014,0.296,72.26,115.5,40.50174,-3.371998,595.9,4,5,237.3,0.352
72.79,1,0.01,-0.007,0.025,-0.028,-0.002,0.022,-1.496,-0.013,0.296,72.26,115.5,40.50174,-3.371998,595.9,4,5,237.3,0.352
72.89,1,-0.034,-0.002,0.016,-0.015,-0.004,0.017,-1.494,-0.014,0.295,72.26,115.5,40.50174,-3.371998,595.9,4,5,237.3,0.352
72.99,1,-0.01,-0.025,0.06,-0.018,-0.013,0.038,-1.495,-0.01,0.297,72.26,115.5,40.50174,-3.371998,595.9,4,5,237.3,0.352
73.09,1,-0.012,-0.014,0.043,-0.017,-0.015,0.04,-1.497,-0.011,0.297,72.26,115.5,40.50174,-3.371998,595.9,4,5,237.3,0.352
73.19,1,-0.018,0.001,0.029,-0.015,-0.006,0.041,-1.5,-0.011,0.298,72.26,115.5,40.50174,-3.371998,595.9,4,5,237.3,0.352
73.3,1,-0.022,-0.018,0.041,-0.023,-0.009,0.034,-1.504,-0.008,0.298,72.26,115.5,40.50174,-3.371998,595.9,4,5,237.3,0.352
73.39,1,-0.021,-0.03,0.057,-0.018,-0.023,0.049,-1.51,-0.005,0.299,72.26,115.5,40.50174,-3.371998,595.9,4,5,237.3,0.352
73.49,1,0.018,0.002,0.036,-0.006,-0.013,0.047,-1.514,-0.006,0.298,72.26,115.5,40.50174,-3.371998,595.9,4,5,237.3,0.352
73.59,1,0.007,-0.038,0.029,0.007,-0.018,0.036,-1.514,-0.007,0.298,72.26,115.5,40.50174,-3.371998,595.9,4,5,237.3,0.352
73.69,1,-0.015,-0.021,0.032,-0.006,-0.025,0.036,-1.519,-0.006,0.3,73.36,114.7,40.501587,-3.372311,596.5,4,5,237.7,0.352
73.8,1,-0.007,0.0,-0.009,-0.007,-0.013,0.012,-1.519,-0.008,0.301,73.36,114.7,40.501587,-3.372311,596.5,4,5,237.7,0.352
73.9,1,-0.01,-0.011,0.023,-0.015,-0.01,0.012,-1.519,-0.009,0.302,73.36,114.7,40.501587,-3.372311,596.5,4,5,237.7,0.352
73.99,1,0.005,0.014,-0.008,0.004,-0.002,0.012,-1.517,-0.01,0.302,73.36,114.7,40.501587,-3.372311,596.5,4,5,237.7,0.352
74.09,1,-0.021,0.009,-0.028,-0.011,0.011,-0.019,-1.517,-0.01,0.304,73.36,114.7,40.501587,-3.372311,596.5,4,5,237.7,0.352
74.19,1,-0.036,0.014,-0.014,-0.027,0.012,-0.016,-1.517,-0.011,0.305,73.36,114.7,40.501587,-3.372311,596.5,4,5,237.7,0.352
74.29,1,0.032,0.019,-0.016,-0.003,0.013,-0.016,-1.516,-0.012,0.303,73.36,114.7,40.501587,-3.372311,596.5,4,5,237.7,0.352
74.4,1,-0.02,0.015,0.011,-0.002,0.016,-0.002,-1.515,-0.009,0.303,73.36,114.7,40.501587,-3.372311,596.5,4,5,237.7,0.352
74.5,1,-0.01,0.022,-0.016,-0.008,0.015,-0.004,-1.518,-0.008,0.304,73.36,114.7,40.501587,-3.372311,596.5,4,5,237.7,0.352
74.6,1,-0.042,0.005,-0.022,-0.023,0.012,-0.019,-1.514,-0.007,0.304,73.36,114.7,40.501587,-3.372311,596.5,4,5,237.7,0.352
74.69,1,0.007,0.003,0.003,-0.016,0.005,-0.002,-1.514,-0.007,0.304,74.28,112.9,40.501438,-3.372613,597.8,4,5,237.3,0.352
74.79,1,0.023,0.016,-0.025,0.011,0.013,-0.016,-1.512,-0.008,0.303,74.28,112.9,40.501438,-3.372613,597.8,4,5,237.3,0.352
74.89,1,-0.031,-0.003,-0.003,-0.004,0.005,-0.009,-1.512,-0.009,0.303,74.28,112.9,40.501438,-3.372613,597.8,4,5,237.3,0.352
74.99,1,0.005,-0.0,-0.004,-0.007,0.004,-0.013,-1.511,-0.011,0.303,74.28,112.9,40.501438,-3.372613,597.8,4,5,237.3,0.352
75.11,1,-0.028,0.006,0.004,-0.021,0.006,-0.004,-1.509,-0.011,0.303,74.28,112.9,40.501438,-3.372613,597.8,4,5,237.3,0.352
75.2,1,0.091,-0.001,0.005,0.024,-0.001,0.007,-1.508,-0.012,0.3,74.28,112.9,40.501438,-3.372613,597.8,4,5,237.3,0.352
75.29,1,0.048,-0.001,-0.021,0.052,-0.001,-0.002,-1.506,-0.014,0.3,74.28,112.9,40.501438,-3.372613,597.8,4,5,237.3,0.352
75.4,1,-0.046,0.018,0.012,0.016,0.011,-0.007,-1.504,-0.014,0.301,74.28,112.9,40.501438,-3.372613,597.8,4,5,237.3,0.352
75.5,1,-0.047,-0.004,0.03,-0.028,0.002,0.014,-1.508,-0.013,0.304,74.28,112.9,40.501438,-3.372613,597.8,4,5,237.3,0.352
75.6,1,-0.017,-0.01,0.018,-0.033,-0.003,0.014,-1.511,-0.015,0.304,74.28,112.9,40.501438,-3.372613,597.8,4,5,237.3,0.352
75.71,1,-0.017,-0.006,0.055,-0.008,-0.008,0.034,-1.512,-0.015,0.304,75.33,111.5,40.501297,-3.372915,596.1,4,5,237.3,0.352
75.81,1,-0.047,0.006,0.061,-0.041,0.001,0.057,-1.513,-0.014,0.304,75.33,111.5,40.501297,-3.372915,596.1,4,5,237.3,0.352
75.9,1,-0.004,-0.028,0.035,-0.022,-0.008,0.038,-1.515,-0.013,0.305,75.33,111.5,40.501297,-3.372915,596.1,4,5,237.3,0.352
76.0,1,-0.019,-0.009,0.061,-0.015,-0.018,0.054,-1.522,-0.012,0.305,75.33,111.5,40.501297,-3.372915,596.1,4,5,237.3,0.352
76.1,1,-0.039,-0.002,0.052,-0.03,-0.007,0.052,-1.531,-0.01,0.305,75.33,111.5,40.501297,-3.372915,596.1,4,5,237.3,0.352
76.2,1,-0.012,-0.001,0.004,-0.023,-0.004,0.034,-1.533,-0.008,0.305,75.33,111.5,40.501297,-3.372915,596.1,4,5,237.3,0.352
76.3,1,-0.013,-0.024,0.032,-0.019,-0.01,0.023,-1.532,-0.008,0.304,75.33,111.5,40.501297,-3.372915,596.1,4,5,237.3,0.352
76.4,1,0.009,-0.024,0.032,0.003,-0.02,0.029,-1.534,-0.008,0.305,75.33,111.5,40.501297,-3.372915,596.1,4,5,237.3,0.352
76.5,1,-0.03,-0.007,0.016,-0.013,-0.016,0.026,-1.534,-0.007,0.306,75.33,111.5,40.501297,-3.372915,596.1,4,5,237.3,0.352
76.6,1,0.01,-0.007,0.029,-0.011,-0.006,0.022,-1.534,-0.007,0.307,75.33,111.5,40.501297,-3.372915,596.1,4,5,237.3,0.352
76.7,1,0.046,-0.029,0.002,0.021,-0.019,0.017,-1.537,-0.005,0.308,76.27,110.0,40.501148,-3.37322,596.0,4,5,237.3,0.0
76.81,1,-0.042,-0.016,0.022,0.001,-0.021,0.018,-1.537,-0.001,0.309,76.27,110.0,40.501148,-3.37322,596.0,4,5,237.3,0.0
76.9,1,-0.04,-0.011,-0.006,-0.03,-0.012,0.007,-1.537,0.002,0.31,76.27,110.0,40.501148,-3.37322,596.0,4,5,237.3,0.0
77.01,1,-0.045,-0.014,-0.01,-0.042,-0.018,-0.002,-1.537,0.003,0.312,76.27,110.0,40.501148,-3.37322,596.0,4,5,237.3,0.0
77.1,1,-0.051,-0.018,0.02,-0.044,-0.011,0.001,-1.54,0.005,0.312,76.27,110.0,40.501148,-3.37322,596.0,4,5,237.3,0.0
77.2,1,-0.026,0.016,0.017,-0.026,-0.009,0.022,-1.541,0.004,0.311,76.27,110.0,40.501148,-3.37322,596.0,4,5,237.3,0.0
77.3,1,0.012,0.014,-0.006,-0.02,0.014,-0.002,-1.54,0.004,0.311,76.27,110.0,40.501148,-3.37322,596.0,4,5,237.3,0.0
77.4,1,0.037,-0.01,0.0,0.01,-0.002,0.007,-1.54,0.006,0.313,76.27,110.0,40.501148,-3.37322,596.0,4,5,237.3,0.0
77.51,1,0.006,-0.026,0.021,0.015,-0.013,0.009,-1.54,0.006,0.314,76.27,110.0,40.501148,-3.37322,596.0,4,5,237.3,0.0
77.6,1,-0.0,-0.019,0.017,0.009,-0.016,0.013,-1.54,0.006,0.314,76.27,110.0,40.501148,-3.37322,596.0,4,5,237.3,0.0
77.7,1,-0.054,0.014,0.014,-0.019,-0.005,0.014,-1.541,0.003,0.313,77.34,110.3,40.501003,-3.37352,596.0,3,5,237.3,0.0
77.8,1,0.007,0.006,0.005,-0.024,0.006,0.015,-1.543,0.002,0.313,77.34,110.3,40.501003,-3.37352,596.0,3,5,237.3,0.0
77.95,1,0.07,-0.054,0.02,0.013,-0.009,0.008,-1.543,0.005,0.313,77.34,110.3,40.501003,-3.37352,596.0,3,5,237.3,0.0
78.01,1,0.151,-0.056,0.009,0.109,-0.059,0.018,-1.542,0.004,0.312,77.34,110.3,40.501003,-3.37352,596.0,3,5,237.3,0.0
78.1,1,-0.132,0.079,-0.031,0.019,0.003,-0.013,-1.542,0.003,0.311,77.34,110.3,40.501003,-3.37352,596.0,3,5,237.3,0.0
78.21,1,0.029,-0.027,0.036,-0.018,0.016,0.015,-1.541,-0.003,0.311,77.34,110.3,40.501003,-3.37352,596.0,3,5,237.3,0.0
78.3,1,0.0,0.011,0.028,0.001,-0.005,0.027,-1.54,-0.006,0.311,77.34,110.3,40.501003,-3.37352,596.0,3,5,237.3,0.0
78.41,1,0.031,0.056,0.049,0.004,0.031,0.031,-1.539,-0.006,0.311,77.34,110.3,40.501003,-3.37352,596.0,3,5,237.3,0.0
78.51,1,0.095,-0.006,-0.001,0.053,0.023,0.011,-1.538,-0.007,0.311,77.34,110.3,40.501003,-3.37352,596.0,3,5,237.3,0.0
78.61,1,-0.038,0.033,0.018,0.023,0.016,0.022,-1.54,-0.007,0.311,77.34,110.3,40.501003,-3.37352,596.0,3,5,237.3,0.0
78.72,1,-0.013,0.014,0.022,-0.004,0.017,0.017,-1.541,-0.009,0.311,78.31,110.2,40.500858,-3.373838,595.7,3,5,237.0,0.352
78.81,1,-0.03,0.035,0.004,-0.018,0.028,0.015,-1.543,-0.01,0.311,78.31,110.2,40.500858,-3.373838,595.7,3,5,237.0,0.352
78.91,1,-0.053,-0.006,-0.0,-0.039,0.021,0.001,-1.545,-0.006,0.312,78.31,110.2,40.500858,-3.373838,595.7,3,5,237.0,0.352
79.01,1,-0.032,-0.021,0.038,-0.036,-0.008,0.021,-1.547,-0.002,0.313,78.31,110.2,40.500858,-3.373838,595.7,3,5,237.0,0.352
79.11,1,-0.036,0.029,-0.023,-0.034,-0.0,0.004,-1.548,-0.001,0.313,78.31,110.2,40.500858,-3.373838,595.7,3,5,237.0,0.352
79.21,1,0.016,-0.005,0.021,-0.008,0.008,0.005,-1.549,-0.006,0.314,78.31,110.2,40.500858,-3.373838,595.7,3,5,237.0,0.352
79.31,1,-0.032,0.022,-0.006,-0.015,0.008,0.01,-1.548,-0.01,0.315,78.31,110.2,40.500858,-3.373838,595.7,3,5,237.0,0.352
79.42,1,-0.026,0.009,0.027,-0.024,0.013,0.01,-1.548,-0.012,0.315,78.31,110.2,40.500858,-3.373838,595.7,3,5,237.0,0.352
79.51,1,0.0,0.006,0.005,-0.016,0.01,0.014,-1.552,-0.011,0.315,78.31,110.2,40.500858,-3.373838,595.7,3,5,237.0,0.352
79.61,1,-0.064,0.01,-0.0,-0.027,0.007,0.008,-1.554,-0.009,0.316,78.31,110.2,40.500858,-3.373838,595.7,3,5,237.0,0.352
79.71,1,-0.017,-0.012,0.016,-0.04,-0.003,0.008,-1.553,-0.011,0.316,79.33,110.9,40.500706,-3.374144,595.3,4,5,237.3,0.352
79.81,1,-0.03,0.027,0.007,-0.023,0.006,0.01,-1.556,-0.011,0.316,79.33,110.9,40.500706,-3.374144,595.3,4,5,237.3,0.352
79.91,1,-0.027,-0.025,-0.008,-0.032,0.006,-0.007,-1.557,-0.006,0.316,79.33,110.9,40.500706,-3.374144,595.3,4,5,237.3,0.352
80.01,1,0.032,-0.004,-0.02,0.001,-0.008,-0.008,-1.557,-0.006,0.317,79.33,110.9,40.500706,-3.374144,595.3,4,5,237.3,0.352
80.11,1,-0.031,0.032,-0.015,-0.006,0.008,-0.011,-1.56,-0.006,0.316,79.33,110.9,40.500706,-3.374144,595.3,4,5,237.3,0.352
80.21,1,-0.018,0.027,-0.028,-0.01,0.022,-0.015,-1.558,-0.008,0.317,79.33,110.9,40.500706,-3.374144,595.3,4,5,237.3,0.352
80.31,1,0.045,-0.009,-0.024,0.009,0.008,-0.026,-1.556,-0.009,0.317,79.33,110.9,40.500706,-3.374144,595.3,4,5,237.3,0.352
80.41,1,-0.025,0.016,-0.06,-0.0,0.003,-0.035,-1.551,-0.007,0.317,79.33,110.9,40.500706,-3.374144,595.3,4,5,237.3,0.352
80.51,1,-0.008,0.008,-0.052,-0.023,0.018,-0.053,-1.548,-0.008,0.317,79.33,110.9,40.500706,-3.374144,595.3,4,5,237.3,0.352
80.63,1,0.033,-0.014,-0.011,0.019,-0.005,-0.031,-1.546,-0.005,0.318,79.33,110.9,40.500706,-3.374144,595.3,4,5,237.3,0.352
80.73,1,-0.019,-0.015,-0.05,0.003,-0.003,-0.04,-1.542,-0.002,0.319,80.34,111.4,40.500553,-3.374451,594.9,4,5,237.0,0.352
80.81,1,-0.061,0.014,-0.028,-0.035,-0.002,-0.033,-1.539,-0.0,0.319,80.34,111.4,40.500553,-3.374451,594.9,4,5,237.0,0.352
80.91,1,-0.049,-0.029,-0.037,-0.038,-0.012,-0.04,-1.534,0.003,0.319,80.34,111.4,40.500553,-3.374451,594.9,4,5,237.0,0.352
81.01,1,-0.011,-0.004,-0.0,-0.03,-0.011,-0.013,-1.531,0.001,0.32,80.34,111.4,40.500553,-3.374451,594.9,4,5,237.0,0.352
81.12,1,-0.037,-0.009,-0.012,-0.028,-0.007,-0.018,-1.529,0.003,0.32,80.34,111.4,40.500553,-3.374451,594.9,4,5,237.0,0.352
81.21,1,-0.042,0.002,-0.027,-0.042,-0.003,-0.017,-1.529,0.004,0.321,80.34,111.4,40.500553,-3.374451,594.9,4,5,237.0,0.352
81.32,1,-0.031,-0.014,-0.018,-0.031,-0.008,-0.016,-1.527,0.003,0.321,80.34,111.4,40.500553,-3.374451,594.9,4,5,237.0,0.352
81.42,1,-0.01,-0.012,-0.024,-0.019,-0.015,-0.02,-1.525,0.006,0.322,80.34,111.4,40.500553,-3.374451,594.9,4,5,237.0,0.352
81.52,1,-0.026,-0.014,0.008,-0.033,-0.008,-0.014,-1.527,0.007,0.322,80.34,111.4,40.500553,-3.374451,594.9,4,5,237.0,0.352
81.62,1,-0.036,0.009,-0.02,-0.028,-0.004,-0.007,-1.524,0.006,0.323,80.34,111.4,40.500553,-3.374451,594.9,4,5,237.0,0.352
81.72,1,0.001,-0.002,-0.018,-0.016,-0.002,-0.017,-1.52,0.005,0.324,81.31,110.2,40.500401,-3.374758,594.8,3,5,237.3,0.352
81.82,1,0.026,0.01,-0.028,0.005,0.007,-0.024,-1.517,0.004,0.324,81.31,110.2,40.500401,-3.374758,594.8,3,5,237.3,0.352
81.92,1,-0.02,0.02,-0.04,0.001,0.011,-0.032,-1.517,0.003,0.324,81.31,110.2,40.500401,-3.374758,594.8,3,5,237.3,0.352
82.02,1,-0.023,0.012,-0.032,-0.013,0.011,-0.029,-1.515,0.003,0.325,81.31,110.2,40.500401,-3.374758,594.8,3,5,237.3,0.352
82.12,1,-0.009,0.017,-0.021,-0.01,0.013,-0.024,-1.516,0.001,0.325,81.31,110.2,40.500401,-3.374758,594.8,3,5,237.3,0.352
82.22,1,-0.041,0.024,-0.031,-0.025,0.02,-0.026,-1.515,-0.0,0.326,81.31,110.2,40.500401,-3.374758,594.8,3,5,237.3,0.352
82.32,1,0.02,-0.017,-0.016,-0.009,0.006,-0.027,-1.513,0.0,0.327,81.31,110.2,40.500401,-3.374758,594.8,3,5,237.3,0.352
82.42,1,-0.007,-0.015,-0.008,-0.001,-0.004,-0.022,-1.509,-0.001,0.328,81.31,110.2,40.500401,-3.374758,594.8,3,5,237.3,0.352
82.52,1,0.007,-0.027,0.003,-0.007,-0.015,-0.002,-1.51,0.001,0.33,81.31,110.2,40.500401,-3.374758,594.8,3,5,237.3,0.352
82.62,1,-0.067,-0.017,0.022,-0.027,-0.021,0.012,-1.512,0.002,0.331,81.31,110.2,40.500401,-3.374758,594.8,3,5,237.3,0.352
82.72,1,-0.084,-0.048,0.035,-0.06,-0.031,0.023,-1.516,0.005,0.333,82.26,108.6,40.500248,-3.375059,594.5,3,5,237.3,0.352
82.82,1,-0.046,-0.03,0.056,-0.057,-0.037,0.034,-1.519,0.008,0.334,82.26,108.6,40.500248,-3.375059,594.5,3,5,237.3,0.352
82.92,1,-0.003,-0.026,0.032,-0.028,-0.03,0.036,-1.522,0.011,0.336,82.26,108.6,40.500248,-3.375059,594.5,3,5,237.3,0.352
83.03,1,-0.005,0.018,-0.008,-0.019,-0.007,0.022,-1.525,0.011,0.337,82.26,108.6,40.500248,-3.375059,594.5,3,5,237.3,0.352
83.13,1,-0.01,0.003,0.005,-0.009,0.0,0.01,-1.525,0.011,0.338,82.26,108.6,40.500248,-3.375059,594.5,3,5,237.3,0.352
83.22,1,-0.038,-0.006,0.048,-0.022,-0.0,0.015,-1.526,0.011,0.339,82.26,108.6,40.500248,-3.375059,594.5,3,5,237.3,0.352
83.32,1,-0.027,-0.007,0.017,-0.024,-0.007,0.028,-1.53,0.01,0.339,82.26,108.6,40.500248,-3.375059,594.5,3,5,237.3,0.352
83.42,1,-0.03,-0.002,0.044,-0.031,-0.004,0.038,-1.532,0.008,0.34,82.26,108.6,40.500248,-3.375059,594.5,3,5,237.3,0.352
83.52,1,0.001,0.012,0.018,-0.016,0.006,0.024,-1.532,0.007,0.34,82.26,108.6,40.500248,-3.375059,594.5,3,5,237.3,0.352
83.62,1,0.002,0.025,0.0,-0.008,0.015,0.015,-1.533,0.005,0.341,82.26,108.6,40.500248,-3.375059,594.5,3,5,237.3,0.352
83.72,1,0.015,0.012,0.024,0.008,0.011,0.017,-1.536,0.004,0.341,83.28,107.1,40.500103,-3.375356,594.2,4,5,237.0,0.352
83.82,1,-0.023,0.014,0.018,-0.014,0.016,0.018,-1.537,0.002,0.341,83.28,107.1,40.500103,-3.375356,594.2,4,5,237.0,0.352
83.92,1,-0.073,0.042,-0.004,-0.029,0.025,0.003,-1.537,-0.0,0.342,83.28,107.1,40.500103,-3.375356,594.2,4,5,237.0,0.352
84.02,1,0.006,-0.023,0.033,-0.024,0.01,0.019,-1.538,-0.001,0.342,83.28,107.1,40.500103,-3.375356,594.2,4,5,237.0,0.352
84.12,1,0.024,-0.018,0.053,-0.011,-0.002,0.035,-1.54,-0.003,0.343,83.28,107.1,40.500103,-3.375356,594.2,4,5,237.0,0.352
84.23,1,-0.025,0.001,0.025,0.004,-0.012,0.033,-1.543,-0.003,0.343,83.28,107.1,40.500103,-3.375356,594.2,4,5,237.0,0.352
84.33,1,0.021,0.004,0.046,0.001,-0.003,0.031,-1.54,-0.006,0.344,83.28,107.1,40.500103,-3.375356,594.2,4,5,237.0,0.352
84.43,1,0.009,-0.046,0.078,0.016,-0.018,0.066,-1.542,-0.005,0.344,83.28,107.1,40.500103,-3.375356,594.2,4,5,237.0,0.352
84.53,1,-0.049,-0.004,0.022,-0.014,-0.024,0.04,-1.542,-0.009,0.344,83.28,107.1,40.500103,-3.375356,594.2,4,5,237.0,0.352
84.63,1,-0.044,0.007,0.041,-0.041,0.002,0.039,-1.545,-0.009,0.344,83.28,107.1,40.500103,-3.375356,594.2,4,5,237.0,0.352
84.73,1,0.024,0.001,0.024,-0.014,0.0,0.036,-1.546,-0.009,0.344,84.26,106.7,40.499954,-3.375657,594.3,4,5,236.6,0.703
84.83,1,0.026,-0.006,0.02,0.009,-0.002,0.028,-1.546,-0.01,0.344,84.26,106.7,40.499954,-3.375657,594.3,4,5,236.6,0.703
84.93,1,0.0,-0.005,0.03,0.009,-0.004,0.027,-1.546,-0.009,0.344,84.26,106.7,40.499954,-3.375657,594.3,4,5,236.6,0.703
85.03,1,-0.014,0.009,-0.034,-0.002,0.003,-0.001,-1.543,-0.01,0.344,84.26,106.7,40.499954,-3.375657,594.3,4,5,236.6,0.703
85.13,1,-0.011,-0.009,0.039,-0.006,-0.002,0.014,-1.543,-0.011,0.345,84.26,106.7,40.499954,-3.375657,594.3,4,5,236.6,0.703
85.24,1,0.009,-0.01,0.034,-0.003,-0.005,0.021,-1.544,-0.012,0.345,84.26,106.7,40.499954,-3.375657,594.3,4,5,236.6,0.703
85.33,1,-0.019,-0.001,0.019,-0.008,-0.008,0.029,-1.547,-0.011,0.345,84.26,106.7,40.499954,-3.375657,594.3,4,5,236.6,0.703
85.44,1,-0.046,0.005,0.001,-0.024,-0.001,0.014,-1.549,-0.013,0.345,84.26,106.7,40.499954,-3.375657,594.3,4,5,236.6,0.703
85.53,1,-0.041,0.001,0.029,-0.027,-0.001,0.019,-1.552,-0.014,0.345,84.26,106.7,40.499954,-3.375657,594.3,4,5,236.6,0.703
85.63,1,-0.02,-0.006,0.057,-0.032,0.003,0.031,-1.556,-0.014,0.346,84.26,106.7,40.499954,-3.375657,594.3,4,5,236.6,0.703
85.73,1,-0.01,-0.021,0.044,-0.022,-0.011,0.049,-1.56,-0.014,0.346,85.29,106.5,40.499805,-3.375942,593.9,4,5,236.6,0.352
85.83,1,0.001,-0.004,0.032,-0.009,-0.011,0.041,-1.564,-0.013,0.347,85.29,106.5,40.499805,-3.375942,593.9,4,5,236.6,0.352
85.93,1,0.017,-0.012,0.049,0.003,-0.008,0.036,-1.567,-0.012,0.346,85.29,106.5,40.499805,-3.375942,593.9,4,5,236.6,0.352
86.03,1,-0.005,-0.024,0.037,0.005,-0.017,0.044,-1.569,-0.011,0.345,85.29,106.5,40.499805,-3.375942,593.9,4,5,236.6,0.352
86.13,1,-0.047,-0.006,0.018,-0.023,-0.014,0.029,-1.571,-0.011,0.345,85.29,106.5,40.499805,-3.375942,593.9,4,5,236.6,0.352
86.23,1,-0.029,0.009,0.009,-0.032,-0.004,0.02,-1.573,-0.011,0.346,85.29,106.5,40.499805,-3.375942,593.9,4,5,236.6,0.352
86.43,1,0.039,-0.014,0.029,0.026,-0.006,0.017,-1.572,-0.013,0.348,85.29,106.5,40.499805,-3.375942,593.9,4,5,236.6,0.352
86.53,1,0.002,-0.0,0.024,0.022,-0.002,0.022,-1.571,-0.012,0.348,85.29,106.5,40.499805,-3.375942,593.9,4,5,236.6,0.352
86.63,1,-0.015,0.01,0.017,-0.005,0.006,0.018,-1.571,-0.013,0.348,85.29,106.5,40.499805,-3.375942,593.9,4,5,236.6,0.352
86.73,1,0.058,-0.018,0.017,0.018,-0.006,0.025,-1.571,-0.011,0.349,85.29,106.5,40.499805,-3.375942,593.9,4,5,236.6,0.352
86.84,1,0.047,-0.025,0.046,0.05,-0.018,0.028,-1.571,-0.01,0.35,86.27,106.6,40.499657,-3.376232,594.0,4,5,236.6,0.0
86.93,1,-0.025,0.005,0.011,0.017,-0.008,0.026,-1.572,-0.008,0.349,86.27,106.6,40.499657,-3.376232,594.0,4,5,236.6,0.0
87.04,1,-0.052,-0.011,0.009,-0.026,-0.009,0.015,-1.572,-0.006,0.35,86.27,106.6,40.499657,-3.376232,594.0,4,5,236.6,0.0
87.13,1,-0.041,0.009,0.011,-0.04,-0.005,0.017,-1.573,-0.005,0.35,86.27,106.6,40.499657,-3.376232,594.0,4,5,236.6,0.0
87.25,1,-0.024,0.031,-0.029,-0.035,0.016,-0.005,-1.573,-0.007,0.35,86.27,106.6,40.499657,-3.376232,594.0,4,5,236.6,0.0
87.33,1,0.002,-0.01,-0.005,-0.018,0.011,-0.016,-1.568,-0.008,0.351,86.27,106.6,40.499657,-3.376232,594.0,4,5,236.6,0.0
87.43,1,0.011,0.011,0.014,-0.005,0.006,0.006,-1.569,-0.01,0.351,86.27,106.6,40.499657,-3.376232,594.0,4,5,236.6,0.0
87.54,1,-0.044,-0.023,0.018,-0.01,-0.008,0.01,-1.569,-0.013,0.352,86.27,106.6,40.499657,-3.376232,594.0,4,5,236.6,0.0
87.64,1,-0.013,0.003,-0.001,-0.021,-0.003,0.006,-1.57,-0.011,0.351,86.27,106.6,40.499657,-3.376232,594.0,4,5,236.6,0.0
87.74,1,-0.004,-0.008,0.039,-0.015,-0.01,0.022,-1.57,-0.006,0.351,86.27,106.6,40.499657,-3.376232,594.0,4,5,236.6,0.0
87.85,1,-0.02,0.016,-0.01,-0.012,0.007,0.001,-1.569,-0.005,0.354,87.3,107.9,40.499512,-3.376524,593.7,4,5,236.2,0.352
87.95,1,-0.041,0.013,-0.014,-0.028,0.011,0.006,-1.569,-0.004,0.353,87.3,107.9,40.499512,-3.376524,593.7,4,5,236.2,0.352
88.04,1,0.021,-0.004,-0.009,-0.015,0.004,-0.014,-1.568,-0.004,0.353,87.3,107.9,40.499512,-3.376524,593.7,4,5,236.2,0.352
88.14,1,-0.005,0.003,0.012,-0.005,0.005,-0.004,-1.569,-0.007,0.355,87.3,107.9,40.499512,-3.376524,593.7,4,5,236.2,0.352
88.24,1,0.003,-0.009,0.034,0.01,-0.005,0.021,-1.571,-0.007,0.356,87.3,107.9,40.499512,-3.376524,593.7,4,5,236.2,0.352
88.34,1,-0.029,0.013,0.025,-0.016,-0.002,0.025,-1.573,-0.005,0.355,87.3,107.9,40.499512,-3.376524,593.7,4,5,236.2,0.352
88.45,1,0.004,0.006,-0.0,-0.008,0.008,0.017,-1.573,-0.007,0.355,87.3,107.9,40.499512,-3.376524,593.7,4,5,236.2,0.352
88.54,1,-0.008,0.026,0.002,-0.006,0.02,0.004,-1.57,-0.006,0.356,87.3,107.9,40.499512,-3.376524,593.7,4,5,236.2,0.352
88.64,1,-0.038,-0.001,0.009,-0.016,0.01,0.001,-1.573,-0.006,0.356,87.3,107.9,40.499512,-3.376524,593.7,4,5,236.2,0.352
88.74,1,-0.09,0.004,0.014,-0.042,0.005,0.017,-1.574,-0.007,0.354,87.3,107.9,40.499512,-3.376524,593.7,4,5,236.2,0.352
88.85,1,0.022,0.036,-0.006,-0.029,0.014,0.003,-1.574,-0.01,0.354,88.3,109.0,40.499371,-3.376819,593.6,4,5,235.9,0.703
88.94,1,-0.068,0.033,-0.022,-0.035,0.03,-0.005,-1.576,-0.013,0.355,88.3,109.0,40.499371,-3.376819,593.6,4,5,235.9,0.703
89.05,1,-0.087,0.005,0.008,-0.073,0.024,-0.01,-1.579,-0.009,0.355,88.3,109.0,40.499371,-3.376819,593.6,4,5,235.9,0.703
89.14,1,0.021,-0.003,-0.019,-0.038,-0.0,-0.0,-1.581,-0.009,0.355,88.3,109.0,40.499371,-3.376819,593.6,4,5,235.9,0.703
89.25,1,-0.006,0.031,-0.013,-0.015,0.014,-0.009,-1.576,-0.014,0.355,88.3,109.0,40.499371,-3.376819,593.6,4,5,235.9,0.703
89.34,1,0.025,0.019,-0.058,0.009,0.024,-0.037,-1.572,-0.015,0.348,88.3,109.0,40.499371,-3.376819,593.6,4,5,235.9,0.703
89.45,1,0.007,0.02,-0.079,0.022,0.016,-0.055,-1.568,-0.013,0.347,88.3,109.0,40.499371,-3.376819,593.6,4,5,235.9,0.703
89.55,1,-0.085,0.011,-0.075,-0.042,0.016,-0.076,-1.564,-0.012,0.35,88.3,109.0,40.499371,-3.376819,593.6,4,5,235.9,0.703
89.65,1,0.01,0.013,-0.041,-0.019,0.016,-0.056,-1.561,-0.013,0.349,88.3,109.0,40.499371,-3.376819,593.6,4,5,235.9,0.703
89.75,1,-0.011,0.015,-0.064,-0.01,0.014,-0.057,-1.555,-0.013,0.351,88.3,109.0,40.499371,-3.376819,593.6,4,5,235.9,0.703
89.84,1,0.03,-0.027,-0.031,0.001,0.002,-0.054,-1.553,-0.01,0.354,89.28,109.9,40.499222,-3.377123,593.6,4,5,235.5,0.703
89.94,1,0.017,0.032,-0.082,0.018,0.0,-0.053,-1.548,-0.016,0.352,89.28,109.9,40.499222,-3.377123,593.6,4,5,235.5,0.703
90.05,1,-0.022,-0.0,-0.03,0.004,0.01,-0.052,-1.546,-0.016,0.35,89.28,109.9,40.499222,-3.377123,593.6,4,5,235.5,0.703
90.14,1,-0.023,-0.012,-0.044,-0.015,0.003,-0.042,-1.543,-0.013,0.349,89.28,109.9,40.499222,-3.377123,593.6,4,5,235.5,0.703
90.25,1,-0.016,0.011,-0.027,-0.02,-0.004,-0.038,-1.542,-0.013,0.347,89.28,109.9,40.499222,-3.377123,593.6,4,5,235.5,0.703
90.35,1,0.029,0.017,-0.016,0.0,0.008,-0.025,-1.538,-0.016,0.346,89.28,109.9,40.499222,-3.377123,593.6,4,5,235.5,0.703
90.44,1,0.022,0.022,-0.039,0.018,0.018,-0.031,-1.534,-0.019,0.345,89.28,109.9,40.499222,-3.377123,593.6,4,5,235.5,0.703
90.55,1,0.011,0.035,-0.037,0.021,0.027,-0.036,-1.53,-0.019,0.344,89.28,109.9,40.499222,-3.377123,593.6,4,5,235.5,0.703
90.65,1,-0.078,0.028,-0.068,-0.023,0.029,-0.05,-1.527,-0.02,0.345,89.28,109.9,40.499222,-3.377123,593.6,4,5,235.5,0.703
90.75,1,-0.051,-0.006,0.022,-0.049,0.016,-0.031,-1.525,-0.019,0.345,89.28,109.9,40.499222,-3.377123,593.6,4,5,235.5,0.703
90.86,1,0.016,0.007,-0.063,-0.028,0.004,-0.024,-1.519,-0.021,0.343,90.27,109.9,40.499065,-3.37742,593.2,4,5,235.5,0.352
90.95,1,0.01,0.022,-0.017,0.003,0.008,-0.026,-1.518,-0.02,0.342,90.27,109.9,40.499065,-3.37742,593.2,4,5,235.5,0.352
91.05,1,-0.013,0.004,0.0,-0.01,0.014,-0.014,-1.518,-0.021,0.341,90.27,109.9,40.499065,-3.37742,593.2,4,5,235.5,0.352
91.15,1,0.046,0.013,-0.005,0.022,0.011,-0.009,-1.518,-0.024,0.34,90.27,109.9,40.499065,-3.37742,593.2,4,5,235.5,0.352
91.25,1,0.033,-0.024,-0.001,0.039,-0.007,-0.009,-1.514,-0.024,0.34,90.27,109.9,40.499065,-3.37742,593.2,4,5,235.5,0.352
91.35,1,-0.023,-0.031,-0.002,0.016,-0.023,-0.002,-1.511,-0.025,0.34,90.27,109.9,40.499065,-3.37742,593.2,4,5,235.5,0.352
91.46,1,-0.002,-0.017,-0.002,-0.02,-0.015,-0.008,-1.509,-0.026,0.339,90.27,109.9,40.499065,-3.37742,593.2,4,5,235.5,0.352
91.56,1,0.004,0.002,-0.002,-0.002,-0.006,-0.002,-1.51,-0.028,0.336,90.27,109.9,40.499065,-3.37742,593.2,4,5,235.5,0.352
91.65,1,-0.044,-0.023,-0.008,-0.012,-0.014,0.001,-1.512,-0.028,0.336,90.27,109.9,40.499065,-3.37742,593.2,4,5,235.5,0.352
91.75,1,-0.066,0.026,-0.001,-0.052,0.003,-0.0,-1.513,-0.026,0.337,90.27,109.9,40.499065,-3.37742,593.2,4,5,235.5,0.352
91.85,1,0.016,-0.033,0.006,-0.023,-0.008,-0.004,-1.513,-0.026,0.337,91.29,108.3,40.498913,-3.377712,593.0,4,5,235.9,0.352
91.95,1,0.029,-0.019,-0.003,0.007,-0.019,0.002,-1.51,-0.023,0.339,91.29,108.3,40.498913,-3.377712,593.0,4,5,235.9,0.352
92.05,1,0.017,-0.01,0.001,0.019,-0.015,0.002,-1.509,-0.021,0.338,91.29,108.3,40.498913,-3.377712,593.0,4,5,235.9,0.352
92.15,1,0.013,-0.011,-0.017,0.018,-0.01,-0.011,-1.507,-0.019,0.338,91.29,108.3,40.498913,-3.377712,593.0,4,5,235.9,0.352
92.25,1,-0.015,0.001,-0.03,0.005,-0.011,-0.016,-1.504,-0.019,0.338,91.29,108.3,40.498913,-3.377712,593.0,4,5,235.9,0.352
92.35,1,-0.073,-0.028,0.001,-0.036,-0.012,-0.018,-1.505,-0.016,0.338,91.29,108.3,40.498913,-3.377712,593.0,4,5,235.9,0.352
92.46,1,-0.029,-0.013,-0.005,-0.038,-0.016,-0.002,-1.507,-0.016,0.338,91.29,108.3,40.498913,-3.377712,593.0,4,5,235.9,0.352
92.56,1,-0.01,-0.011,-0.002,-0.032,-0.015,-0.007,-1.507,-0.015,0.34,91.29,108.3,40.498913,-3.377712,593.0,4,5,235.9,0.352
92.66,1,-0.003,-0.01,0.009,-0.014,-0.011,0.0,-1.509,-0.014,0.341,91.29,108.3,40.498913,-3.377712,593.0,4,5,235.9,0.352
92.75,1,0.041,-0.014,0.006,0.018,-0.017,0.011,-1.509,-0.013,0.34,91.29,108.3,40.498913,-3.377712,593.0,4,5,235.9,0.352
92.85,1,0.03,0.002,-0.02,0.022,-0.005,-0.01,-1.507,-0.012,0.341,92.26,108.1,40.49876,-3.378005,592.3,4,5,236.6,1.055
92.95,1,0.006,0.005,0.016,0.023,0.0,0.001,-1.507,-0.011,0.341,92.26,108.1,40.49876,-3.378005,592.3,4,5,236.6,1.055
93.05,1,-0.037,0.008,0.028,-0.015,0.008,0.014,-1.507,-0.011,0.341,92.26,108.1,40.49876,-3.378005,592.3,4,5,236.6,1.055
93.15,1,-0.017,0.0,0.036,-0.008,0.002,0.032,-1.513,-0.007,0.342,92.26,108.1,40.49876,-3.378005,592.3,4,5,236.6,1.055
93.26,1,-0.024,0.007,0.009,-0.026,0.002,0.019,-1.514,-0.007,0.344,92.26,108.1,40.49876,-3.378005,592.3,4,5,236.6,1.055
93.35,1,0.001,-0.006,0.024,-0.016,-0.0,0.02,-1.513,-0.008,0.346,92.26,108.1,40.49876,-3.378005,592.3,4,5,236.6,1.055
93.45,1,0.001,0.015,0.006,-0.002,0.007,0.014,-1.515,-0.009,0.341,92.26,108.1,40.49876,-3.378005,592.3,4,5,236.6,1.055
93.56,1,0.022,0.002,0.036,0.011,0.003,0.026,-1.517,-0.006,0.339,92.26,108.1,40.49876,-3.378005,592.3,4,5,236.6,1.055
93.66,1,-0.045,-0.001,0.018,-0.008,0.002,0.024,-1.519,-0.004,0.339,92.26,108.1,40.49876,-3.378005,592.3,4,5,236.6,1.055
93.76,1,-0.072,0.035,0.025,-0.05,0.02,0.018,-1.523,-0.002,0.34,92.26,108.1,40.49876,-3.378005,592.3,4,5,236.6,1.055
93.86,1,-0.033,0.002,0.028,-0.045,0.014,0.029,-1.525,-0.003,0.34,93.28,108.4,40.498604,-3.378288,592.3,4,5,236.2,0.352
93.96,1,0.009,0.018,-0.001,-0.018,0.012,0.012,-1.527,-0.006,0.339,93.28,108.4,40.498604,-3.378288,592.3,4,5,236.2,0.352
94.06,1,-0.001,0.001,0.023,-0.004,0.01,0.017,-1.528,-0.007,0.338,93.28,108.4,40.498604,-3.378288,592.3,4,5,236.2,0.352
94.16,1,-0.037,0.016,0.008,-0.02,0.012,0.012,-1.529,-0.006,0.337,93.28,108.4,40.498604,-3.378288,592.3,4,5,236.2,0.352
94.26,1,-0.012,-0.013,0.052,-0.019,-0.002,0.028,-1.53,-0.007,0.337,93.28,108.4,40.498604,-3.378288,592.3,4,5,236.2,0.352
94.36,1,-0.034,0.009,0.015,-0.029,0.004,0.029,-1.534,-0.007,0.337,93.28,108.4,40.498604,-3.378288,592.3,4,5,236.2,0.352
94.47,1,-0.033,-0.003,-0.004,-0.03,0.004,0.01,-1.535,-0.007,0.337,93.28,108.4,40.498604,-3.378288,592.3,4,5,236.2,0.352
94.56,1,0.041,-0.006,0.013,-0.001,-0.007,0.013,-1.535,-0.007,0.337,93.28,108.4,40.498604,-3.378288,592.3,4,5,236.2,0.352
94.66,1,0.016,0.005,0.033,0.02,0.001,0.015,-1.536,-0.01,0.337,93.28,108.4,40.498604,-3.378288,592.3,4,5,236.2,0.352
94.76,1,-0.013,0.01,0.028,0.002,0.007,0.031,-1.543,-0.009,0.337,93.28,108.4,40.498604,-3.378288,592.3,4,5,236.2,0.352
94.86,1,-0.033,0.008,0.011,-0.014,0.006,0.021,-1.546,-0.01,0.337,94.28,104.1,40.498455,-3.378562,592.1,4,5,236.2,0.352
94.96,1,-0.057,0.011,0.025,-0.038,0.007,0.021,-1.55,-0.008,0.337,94.28,104.1,40.498455,-3.378562,592.1,4,5,236.2,0.352
95.07,1,-0.037,0.03,-0.048,-0.042,0.018,-0.007,-1.55,-0.009,0.337,94.28,104.1,40.498455,-3.378562,592.1,4,5,236.2,0.352
95.16,1,-0.042,-0.011,0.033,-0.036,0.009,-0.004,-1.55,-0.009,0.337,94.28,104.1,40.498455,-3.378562,592.1,4,5,236.2,0.352
95.27,1,-0.047,0.011,-0.004,-0.046,0.003,0.008,-1.551,-0.008,0.337,94.28,104.1,40.498455,-3.378562,592.1,4,5,236.2,0.352
95.36,1,-0.004,0.025,0.037,-0.032,0.017,0.013,-1.547,-0.006,0.337,94.28,104.1,40.498455,-3.378562,592.1,4,5,236.2,0.352
95.47,1,0.017,0.018,0.013,-0.0,0.018,0.026,-1.547,-0.007,0.336,94.28,104.1,40.498455,-3.378562,592.1,4,5,236.2,0.352
95.56,1,0.017,0.015,0.002,0.011,0.018,0.007,-1.547,-0.009,0.335,94.28,104.1,40.498455,-3.378562,592.1,4,5,236.2,0.352
95.67,1,-0.018,0.007,0.049,0.002,0.012,0.024,-1.549,-0.009,0.334,94.28,104.1,40.498455,-3.378562,592.1,4,5,236.2,0.352
95.76,1,0.003,0.042,0.017,-0.007,0.02,0.026,-1.554,-0.01,0.333,94.28,104.1,40.498455,-3.378562,592.1,4,5,236.2,0.352
95.86,1,0.021,0.011,0.041,0.014,0.025,0.03,-1.556,-0.014,0.332,95.26,103.8,40.49831,-3.378845,592.2,4,5,236.2,0.0
95.96,1,0.042,0.017,-0.015,0.032,0.015,0.022,-1.554,-0.016,0.331,95.26,103.8,40.49831,-3.378845,592.2,4,5,236.2,0.0
96.07,1,-0.009,0.007,-0.01,0.008,0.013,-0.01,-1.55,-0.018,0.331,95.26,103.8,40.49831,-3.378845,592.2,4,5,236.2,0.0
96.16,1,-0.029,0.031,0.001,-0.013,0.02,-0.0,-1.551,-0.022,0.33,95.26,103.8,40.49831,-3.378845,592.2,4,5,236.2,0.0
96.27,1,-0.034,0.005,0.023,-0.022,0.021,0.003,-1.55,-0.026,0.329,95.26,103.8,40.49831,-3.378845,592.2,4,5,236.2,0.0
96.36,1,-0.017,0.005,0.029,-0.022,0.006,0.028,-1.548,-0.029,0.329,95.26,103.8,40.49831,-3.378845,592.2,4,5,236.2,0.0
96.47,1,-0.008,0.019,0.017,-0.019,0.015,0.013,-1.546,-0.029,0.328,95.26,103.8,40.49831,-3.378845,592.2,4,5,236.2,0.0
96.57,1,0.031,0.019,0.009,0.005,0.017,0.018,-1.548,-0.029,0.328,95.26,103.8,40.49831,-3.378845,592.2,4,5,236.2,0.0
96.67,1,0.018,0.004,0.037,0.013,0.012,0.02,-1.549,-0.028,0.327,95.26,103.8,40.49831,-3.378845,592.2,4,5,236.2,0.0
96.77,1,0.006,0.003,0.035,0.013,0.007,0.029,-1.551,-0.027,0.326,95.26,103.8,40.49831,-3.378845,592.2,4,5,236.2,0.0
96.87,1,-0.001,-0.018,0.076,0.012,-0.003,0.05,-1.557,-0.027,0.325,96.27,103.8,40.498173,-3.379129,592.2,4,5,235.9,0.352
96.97,1,0.008,-0.012,0.059,0.009,-0.009,0.064,-1.564,-0.026,0.325,96.27,103.8,40.498173,-3.379129,592.2,4,5,235.9,0.352
97.07,1,-0.055,-0.021,0.06,-0.023,-0.013,0.057,-1.568,-0.026,0.324,96.27,103.8,40.498173,-3.379129,592.2,4,5,235.9,0.352
97.17,1,-0.048,-0.004,0.041,-0.038,-0.017,0.054,-1.573,-0.026,0.323,96.27,103.8,40.498173,-3.379129,592.2,4,5,235.9,0.352
97.27,1,0.0,-0.0,0.025,-0.024,-0.008,0.042,-1.576,-0.027,0.323,96.27,103.8,40.498173,-3.379129,592.2,4,5,235.9,0.352
97.37,1,-0.004,-0.003,0.003,-0.012,0.0,0.015,-1.577,-0.026,0.323,96.27,103.8,40.498173,-3.379129,592.2,4,5,235.9,0.352
97.47,1,0.012,-0.009,-0.003,-0.0,-0.007,0.011,-1.578,-0.026,0.322,96.27,103.8,40.498173,-3.379129,592.2,4,5,235.9,0.352
97.57,1,0.003,-0.025,-0.006,0.0,-0.01,-0.004,-1.575,-0.025,0.322,96.27,103.8,40.498173,-3.379129,592.2,4,5,235.9,0.352
97.67,1,0.004,-0.008,0.011,0.01,-0.021,0.006,-1.576,-0.025,0.321,96.27,103.8,40.498173,-3.379129,592.2,4,5,235.9,0.352
97.77,1,0.008,0.003,0.035,0.005,-0.005,0.017,-1.578,-0.024,0.321,96.27,103.8,40.498173,-3.379129,592.2,4,5,235.9,0.352
97.87,1,-0.034,0.008,-0.001,-0.015,0.004,0.015,-1.579,-0.022,0.321,97.32,104.1,40.498024,-3.379415,592.0,3,5,236.2,0.352
97.97,1,-0.044,0.009,-0.019,-0.028,0.004,-0.003,-1.581,-0.02,0.32,97.32,104.1,40.498024,-3.379415,592.0,3,5,236.2,0.352
98.08,1,-0.055,-0.01,0.018,-0.045,0.002,0.0,-1.584,-0.021,0.32,97.32,104.1,40.498024,-3.379415,592.0,3,5,236.2,0.352
98.17,1,-0.014,-0.02,0.013,-0.029,-0.012,0.008,-1.585,-0.018,0.32,97.32,104.1,40.498024,-3.379415,592.0,3,5,236.2,0.352
98.27,1,-0.034,0.013,-0.0,-0.029,-0.002,0.009,-1.585,-0.016,0.32,97.32,104.1,40.498024,-3.379415,592.0,3,5,236.2,0.352
98.37,1,-0.018,0.003,-0.009,-0.028,0.002,0.004,-1.581,-0.015,0.32,97.32,104.1,40.498024,-3.379415,592.0,3,5,236.2,0.352
98.47,1,0.003,-0.025,-0.016,-0.013,-0.006,-0.017,-1.576,-0.016,0.32,97.32,104.1,40.498024,-3.379415,592.0,3,5,236.2,0.352
98.57,1,0.033,-0.013,0.02,0.01,-0.018,0.0,-1.573,-0.017,0.32,97.32,104.1,40.498024,-3.379415,592.0,3,5,236.2,0.352
98.67,1,0.006,-0.012,0.011,0.011,-0.01,0.015,-1.574,-0.017,0.32,97.32,104.1,40.498024,-3.379415,592.0,3,5,236.2,0.352
98.77,1,0.046,-0.009,-0.003,0.023,-0.012,0.006,-1.571,-0.018,0.321,97.32,104.1,40.498024,-3.379415,592.0,3,5,236.2,0.352
98.87,1,0.024,0.005,-0.017,0.032,-0.001,-0.012,-1.57,-0.018,0.321,98.26,105.0,40.497875,-3.3797,591.7,3,5,236.6,0.703
98.97,1,0.008,-0.001,-0.008,0.024,0.002,-0.008,-1.569,-0.018,0.321,98.26,105.0,40.497875,-3.3797,591.7,3,5,236.6,0.703
99.09,1,-0.058,0.004,0.025,-0.017,-0.001,0.006,-1.568,-0.017,0.321,98.26,105.0,40.497875,-3.3797,591.7,3,5,236.6,0.703
99.17,1,-0.023,-0.032,0.03,-0.025,-0.011,0.026,-1.568,-0.014,0.321,98.26,105.0,40.497875,-3.3797,591.7,3,5,236.6,0.703
99.29,1,-0.019,-0.031,-0.005,-0.026,-0.025,0.004,-1.567,-0.009,0.322,98.26,105.0,40.497875,-3.3797,591.7,3,5,236.6,0.703
99.38,1,-0.018,-0.025,0.044,-0.019,-0.026,0.028,-1.572,-0.007,0.322,98.26,105.0,40.497875,-3.3797,591.7,3,5,236.6,0.703
99.47,1,0.044,-0.018,-0.035,0.01,-0.028,0.005,-1.573,-0.007,0.322,98.26,105.0,40.497875,-3.3797,591.7,3,5,236.6,0.703
99.58,1,-0.066,0.011,-0.024,-0.012,-0.007,-0.017,-1.57,-0.008,0.322,98.26,105.0,40.497875,-3.3797,591.7,3,5,236.6,0.703
99.68,1,0.016,0.006,-0.043,-0.015,0.002,-0.034,-1.565,-0.011,0.322,98.26,105.0,40.497875,-3.3797,591.7,3,5,236.6,0.703
99.78,1,0.035,-0.001,-0.051,0.001,0.008,-0.045,-1.56,-0.011,0.322,98.26,105.0,40.497875,-3.3797,591.7,3,5,236.6,0.703
99.88,1,-0.0,-0.007,-0.053,0.016,-0.008,-0.038,-1.558,-0.009,0.323,99.28,106.2,40.497726,-3.379986,591.7,3,5,236.6,0.352
99.98,1,-0.002,-0.001,-0.059,0.005,-0.001,-0.06,-1.55,-0.007,0.323,99.28,106.2,40.497726,-3.379986,591.7,3,5,236.6,0.352
100.08,1,-0.007,0.001,-0.078,-0.004,-0.001,-0.066,-1.542,-0.005,0.324,99.28,106.2,40.497726,-3.379986,591.7,3,5,236.6,0.352
100.18,1,-0.034,-0.02,-0.053,-0.014,-0.009,-0.06,-1.538,-0.002,0.324,99.28,106.2,40.497726,-3.379986,591.7,3,5,236.6,0.352
100.29,1,-0.017,-0.022,-0.034,-0.025,-0.015,-0.053,-1.536,-0.001,0.325,99.28,106.2,40.497726,-3.379986,591.7,3,5,236.6,0.352
100.38,1,0.0,-0.007,-0.034,-0.002,-0.017,-0.039,-1.533,0.002,0.325,99.28,106.2,40.497726,-3.379986,591.7,3,5,236.6,0.352
100.49,1,0.054,-0.007,-0.019,0.017,-0.009,-0.022,-1.533,0.003,0.326,99.28,106.2,40.497726,-3.379986,591.7,3,5,236.6,0.352
100.58,1,-0.013,0.009,-0.029,0.008,0.003,-0.035,-1.53,0.002,0.326,99.28,106.2,40.497726,-3.379986,591.7,3,5,236.6,0.352
100.68,1,-0.079,0.005,-0.032,-0.023,-0.0,-0.025,-1.53,0.003,0.327,99.28,106.2,40.497726,-3.379986,591.7,3,5,236.6,0.352
100.78,1,-0.043,-0.01,-0.03,-0.049,-0.003,-0.029,-1.53,0.001,0.327,99.28,106.2,40.497726,-3.379986,591.7,3,5,236.6,0.352
100.88,1,0.058,-0.021,-0.016,-0.007,-0.011,-0.029,-1.53,-0.003,0.327,100.26,107.1,40.497578,-3.380282,591.4,3,5,236.6,0.0
100.99,1,0.047,0.015,-0.023,0.033,-0.004,-0.017,-1.527,-0.004,0.327,100.26,107.1,40.497578,-3.380282,591.4,3,5,236.6,0.0
101.08,1,0.001,-0.019,-0.016,0.027,-0.001,-0.027,-1.524,-0.005,0.327,100.26,107.1,40.497578,-3.380282,591.4,3,5,236.6,0.0
101.18,1,0.026,-0.003,-0.037,0.02,-0.012,-0.013,-1.524,-0.006,0.327,100.26,107.1,40.497578,-3.380282,591.4,3,5,236.6,0.0
101.28,1,0.004,-0.018,-0.032,0.01,-0.006,-0.039,-1.521,-0.008,0.327,100.26,107.1,40.497578,-3.380282,591.4,3,5,236.6,0.0
101.38,1,-0.008,0.019,-0.019,0.007,-0.004,-0.028,-1.52,-0.008,0.326,100.26,107.1,40.497578,-3.380282,591.4,3,5,236.6,0.0
101.49,1,-0.035,-0.013,0.004,-0.016,-0.002,-0.014,-1.519,-0.006,0.326,100.26,107.1,40.497578,-3.380282,591.4,3,5,236.6,0.0
101.58,1,-0.055,0.016,-0.036,-0.038,0.006,-0.014,-1.517,-0.005,0.326,100.26,107.1,40.497578,-3.380282,591.4,3,5,236.6,0.0
101.69,1,-0.023,-0.007,0.01,-0.043,0.007,-0.014,-1.517,-0.008,0.326,100.26,107.1,40.497578,-3.380282,591.4,3,5,236.6,0.0
101.79,1,-0.057,0.039,-0.033,-0.033,0.012,-0.014,-1.516,-0.01,0.325,100.26,107.1,40.497578,-3.380282,591.4,3,5,236.6,0.0
101.88,1,0.006,-0.023,0.01,-0.024,0.006,-0.012,-1.516,-0.01,0.325,101.26,106.7,40.497425,-3.380573,591.3,3,5,236.6,0.0
101.98,1,0.016,-0.002,0.003,-0.006,-0.006,0.002,-1.518,-0.011,0.324,101.26,106.7,40.497425,-3.380573,591.3,3,5,236.6,0.0
102.08,1,-0.001,-0.017,0.029,0.003,-0.01,0.018,-1.519,-0.012,0.324,101.26,106.7,40.497425,-3.380573,591.3,3,5,236.6,0.0
102.19,1,-0.05,0.003,0.023,-0.009,-0.008,0.019,-1.52,-0.011,0.324,101.26,106.7,40.497425,-3.380573,591.3,3,5,236.6,0.0
102.28,1,-0.003,-0.012,0.047,-0.028,-0.004,0.026,-1.522,-0.011,0.324,101.26,106.7,40.497425,-3.380573,591.3,3,5,236.6,0.0
102.38,1,0.04,0.019,0.02,0.009,-0.001,0.039,-1.522,-0.012,0.323,101.26,106.7,40.497425,-3.380573,591.3,3,5,236.6,0.0
102.49,1,-0.014,0.037,-0.03,0.005,0.025,-0.004,-1.521,-0.013,0.323,101.26,106.7,40.497425,-3.380573,591.3,3,5,236.6,0.0
102.58,1,-0.03,-0.018,0.078,-0.011,0.006,0.026,-1.524,-0.014,0.323,101.26,106.7,40.497425,-3.380573,591.3,3,5,236.6,0.0
102.69,1,-0.02,-0.006,0.049,-0.026,-0.0,0.049,-1.529,-0.016,0.323,101.26,106.7,40.497425,-3.380573,591.3,3,5,236.6,0.0
102.79,1,0.005,-0.012,0.075,-0.016,-0.005,0.054,-1.535,-0.015,0.322,101.26,106.7,40.497425,-3.380573,591.3,3,5,236.6,0.0
102.89,1,-0.009,0.009,0.041,-0.0,-0.003,0.062,-1.541,-0.014,0.322,102.26,105.5,40.497276,-3.380861,590.9,3,5,236.2,0.352
102.99,1,-0.001,0.008,0.038,-0.008,0.006,0.04,-1.545,-0.015,0.322,102.26,105.5,40.497276,-3.380861,590.9,3,5,236.2,0.352
103.09,1,0.017,0.012,0.038,0.009,0.006,0.047,-1.546,-0.017,0.322,102.26,105.5,40.497276,-3.380861,590.9,3,5,236.2,0.352
103.19,1,-0.001,-0.004,0.066,0.002,0.005,0.044,-1.549,-0.016,0.322,102.26,105.5,40.497276,-3.380861,590.9,3,5,236.2,0.352
103.29,1,0.006,-0.001,0.021,0.001,-0.0,0.047,-1.553,-0.015,0.322,102.26,105.5,40.497276,-3.380861,590.9,3,5,236.2,0.352
103.39,1,-0.04,0.011,-0.008,-0.003,0.009,0.016,-1.553,-0.016,0.322,102.26,105.5,40.497276,-3.380861,590.9,3,5,236.2,0.352
103.49,1,-0.013,-0.015,0.029,-0.024,-0.006,0.017,-1.556,-0.014,0.322,102.26,105.5,40.497276,-3.380861,590.9,3,5,236.2,0.352
103.59,1,-0.025,0.01,0.024,-0.019,0.0,0.022,-1.558,-0.013,0.322,102.26,105.5,40.497276,-3.380861,590.9,3,5,236.2,0.352
103.69,1,0.011,-0.008,0.024,-0.003,-0.003,0.025,-1.559,-0.01,0.322,102.26,105.5,40.497276,-3.380861,590.9,3,5,236.2,0.352
103.79,1,-0.048,-0.018,0.016,-0.023,-0.007,0.019,-1.558,-0.007,0.322,102.26,105.5,40.497276,-3.380861,590.9,3,5,236.2,0.352
103.89,1,-0.046,-0.016,0.019,-0.032,-0.017,0.022,-1.562,-0.003,0.322,103.33,104.4,40.497135,-3.381146,592.5,3,5,236.6,0.352
103.99,1,-0.048,-0.017,0.033,-0.047,-0.015,0.021,-1.566,-0.001,0.322,103.33,104.4,40.497135,-3.381146,592.5,3,5,236.6,0.352
104.09,1,-0.01,-0.007,-0.024,-0.032,-0.016,0.01,-1.568,-0.001,0.322,103.33,104.4,40.497135,-3.381146,592.5,3,5,236.6,0.352
104.19,1,-0.003,-0.025,0.022,-0.019,-0.02,0.007,-1.568,0.001,0.322,103.33,104.4,40.497135,-3.381146,592.5,3,5,236.6,0.352
104.29,1,-0.004,-0.007,-0.018,-0.005,-0.014,0.003,-1.566,-0.002,0.322,103.33,104.4,40.497135,-3.381146,592.5,3,5,236.6,0.352
104.39,1,0.007,0.002,-0.056,-0.007,-0.003,-0.03,-1.565,-0.001,0.323,103.33,104.4,40.497135,-3.381146,592.5,3,5,236.6,0.352
104.49,1,-0.078,0.056,-0.066,-0.029,0.026,-0.055,-1.562,0.0,0.322,103.33,104.4,40.497135,-3.381146,592.5,3,5,236.6,0.352
104.6,1,0.013,0.008,-0.005,-0.028,0.027,-0.035,-1.561,0.0,0.322,103.33,104.4,40.497135,-3.381146,592.5,3,5,236.6,0.352
104.69,1,-0.008,-0.003,-0.008,-0.0,0.007,-0.017,-1.559,-0.001,0.322,103.33,104.4,40.497135,-3.381146,592.5,3,5,236.6,0.352
104.79,1,-0.031,0.026,-0.031,-0.021,0.013,-0.017,-1.559,-0.005,0.321,103.33,104.4,40.497135,-3.381146,592.5,3,5,236.6,0.352
104.89,1,-0.027,-0.012,0.034,-0.026,0.003,-0.011,-1.56,-0.006,0.321,104.3,104.3,40.49699,-3.381434,594.7,3,5,236.6,0.352
104.99,1,0.006,0.025,0.004,-0.013,0.011,0.016,-1.568,-0.007,0.32,104.3,104.3,40.49699,-3.381434,594.7,3,5,236.6,0.352
105.11,1,0.008,0.024,0.015,-0.0,0.025,0.006,-1.568,-0.006,0.32,104.3,104.3,40.49699,-3.381434,594.7,3,5,236.6,0.352
105.2,1,0.033,0.011,-0.033,0.026,0.013,0.001,-1.567,-0.006,0.32,104.3,104.3,40.49699,-3.381434,594.7,3,5,236.6,0.352
105.31,1,-0.0,0.019,-0.011,0.007,0.015,-0.016,-1.563,-0.006,0.32,104.3,104.3,40.49699,-3.381434,594.7,3,5,236.6,0.352
105.4,1,0.001,0.037,-0.027,0.002,0.027,-0.019,-1.562,-0.01,0.319,104.3,104.3,40.49699,-3.381434,594.7,3,5,236.6,0.352
105.49,1,-0.016,0.005,0.011,-0.006,0.02,-0.003,-1.561,-0.011,0.318,104.3,104.3,40.49699,-3.381434,594.7,3,5,236.6,0.352
105.6,1,0.016,0.007,-0.015,0.004,0.01,-0.014,-1.558,-0.01,0.318,104.3,104.3,40.49699,-3.381434,594.7,3,5,236.6,0.352
105.7,1,-0.018,0.006,-0.013,0.005,0.009,-0.01,-1.558,-0.011,0.318,104.3,104.3,40.49699,-3.381434,594.7,3,5,236.6,0.352
105.81,1,-0.018,-0.008,0.005,-0.012,-0.0,-0.004,-1.559,-0.01,0.317,104.3,104.3,40.49699,-3.381434,594.7,3,5,236.6,0.352
105.9,1,-0.014,0.007,-0.01,-0.016,0.002,-0.007,-1.559,-0.012,0.317,105.28,105.0,40.496845,-3.381718,594.0,3,5,236.6,0.0
106.0,1,-0.008,-0.03,0.024,-0.012,-0.011,0.008,-1.562,-0.011,0.317,105.28,105.0,40.496845,-3.381718,594.0,3,5,236.6,0.0
106.1,1,-0.035,0.003,-0.013,-0.028,-0.007,-0.0,-1.562,-0.014,0.317,105.28,105.0,40.496845,-3.381718,594.0,3,5,236.6,0.0
106.2,1,-0.002,-0.006,0.016,-0.018,-0.01,0.009,-1.562,-0.014,0.317,105.28,105.0,40.496845,-3.381718,594.0,3,5,236.6,0.0
106.31,1,-0.016,-0.005,0.014,-0.017,-0.001,0.008,-1.561,-0.013,0.318,105.28,105.0,40.496845,-3.381718,594.0,3,5,236.6,0.0
106.4,1,0.022,-0.003,0.012,0.006,-0.006,0.014,-1.562,-0.014,0.318,105.28,105.0,40.496845,-3.381718,594.0,3,5,236.6,0.0
106.5,1,-0.004,-0.016,0.0,0.008,-0.008,0.005,-1.563,-0.013,0.318,105.28,105.0,40.496845,-3.381718,594.0,3,5,236.6,0.0
106.6,1,-0.013,-0.008,0.006,-0.007,-0.012,0.009,-1.565,-0.013,0.318,105.28,105.0,40.496845,-3.381718,594.0,3,5,236.6,0.0
106.7,1,-0.045,-0.012,0.034,-0.025,-0.005,0.012,-1.567,-0.013,0.318,105.28,105.0,40.496845,-3.381718,594.0,3,5,236.6,0.0
106.8,1,-0.071,0.013,0.025,-0.037,-0.004,0.028,-1.568,-0.013,0.318,105.28,105.0,40.496845,-3.381718,594.0,3,5,236.6,0.0
106.91,1,-0.012,-0.029,0.029,-0.045,-0.011,0.026,-1.57,-0.013,0.318,106.27,105.0,40.496696,-3.382003,591.1,3,5,236.2,0.352
107.0,1,-0.034,-0.004,-0.017,-0.025,-0.012,0.01,-1.569,-0.012,0.318,106.27,105.0,40.496696,-3.382003,591.1,3,5,236.2,0.352
107.1,1,-0.034,-0.018,0.0,-0.037,-0.01,-0.001,-1.569,-0.01,0.318,106.27,105.0,40.496696,-3.382003,591.1,3,5,236.2,0.352
107.2,1,-0.01,-0.01,0.025,-0.023,-0.014,0.009,-1.57,-0.009,0.318,106.27,105.0,40.496696,-3.382003,591.1,3,5,236.2,0.352
107.3,1,0.024,-0.01,0.01,-0.004,-0.01,0.016,-1.569,-0.009,0.318,106.27,105.0,40.496696,-3.382003,591.1,3,5,236.2,0.352
107.4,1,0.02,0.001,0.003,0.017,-0.014,0.012,-1.573,-0.009,0.318,106.27,105.0,40.496696,-3.382003,591.1,3,5,236.2,0.352
107.5,1,-0.06,-0.004,0.026,-0.022,0.0,0.005,-1.574,-0.01,0.318,106.27,105.0,40.496696,-3.382003,591.1,3,5,236.2,0.352
107.6,1,0.027,0.001,0.012,0.004,-0.011,0.021,-1.577,-0.013,0.317,106.27,105.0,40.496696,-3.382003,591.1,3,5,236.2,0.352
107.71,1,0.039,-0.008,-0.008,0.017,0.0,0.005,-1.576,-0.015,0.317,106.27,105.0,40.496696,-3.382003,591.1,3,5,236.2,0.352
107.81,1,0.009,-0.006,-0.016,0.014,-0.002,-0.011,-1.573,-0.017,0.317,106.27,105.0,40.496696,-3.382003,591.1,3,5,236.2,0.352
107.9,1,-0.018,-0.014,0.021,0.003,-0.007,0.008,-1.573,-0.018,0.317,107.26,105.1,40.496548,-3.382283,590.3,3,5,236.2,0.352
108.0,1,-0.051,-0.016,0.01,-0.025,-0.014,0.011,-1.573,-0.014,0.318,107.26,105.1,40.496548,-3.382283,590.3,3,5,236.2,0.352
108.1,1,-0.041,0.002,0.009,-0.039,-0.006,0.003,-1.575,-0.013,0.318,107.26,105.1,40.496548,-3.382283,590.3,3,5,236.2,0.352
108.2,1,-0.061,-0.012,-0.004,-0.051,-0.003,0.005,-1.576,-0.012,0.318,107.26,105.1,40.496548,-3.382283,590.3,3,5,236.2,0.352
108.32,1,-0.026,-0.042,0.027,-0.037,-0.025,0.018,-1.579,-0.012,0.318,107.26,105.1,40.496548,-3.382283,590.3,3,5,236.2,0.352
108.4,1,-0.05,-0.005,0.0,-0.044,-0.018,0.006,-1.58,-0.013,0.319,107.26,105.1,40.496548,-3.382283,590.3,3,5,236.2,0.352
