Timestamp_Accel,SystemActivated,accelerometerXAxis,accelerometerYAxis,accelerometerZAxis,AccelX_KF,AccelY_KF,AccelZ_KF,gyroscopeXAxis,gyroscopeYAxis,gyroscopeZAxis,Timestamp_GPS,Speed,latitude,longitude,Altitude,VerticalAccuracy,HorizontalAccuracy,Course,Difcourse
17.77,1,0.047,-0.007,0.011,0.011,0.002,0.044,-1.592,-0.035,-0.058,17.73,79.4,40.584465,-3.55425,615.7,3,5,95.6,1.055
17.87,1,0.037,-0.021,0.04,0.036,-0.015,0.028,-1.592,-0.031,-0.059,17.73,79.4,40.584465,-3.55425,615.7,3,5,95.6,1.055
17.96,1,-0.08,-0.045,0.007,-0.007,-0.027,0.015,-1.593,-0.028,-0.06,17.73,79.4,40.584465,-3.55425,615.7,3,5,95.6,1.055
18.07,1,-0.023,-0.044,0.044,-0.034,-0.039,0.019,-1.596,-0.029,-0.062,17.73,79.4,40.584465,-3.55425,615.7,3,5,95.6,1.055
18.17,1,-0.04,-0.027,0.071,-0.037,-0.04,0.056,-1.596,-0.031,-0.064,17.73,79.4,40.584465,-3.55425,615.7,3,5,95.6,1.055
18.26,1,-0.021,-0.005,0.008,-0.035,-0.022,0.036,-1.595,-0.033,-0.066,17.73,79.4,40.584465,-3.55425,615.7,3,5,95.6,1.055
18.36,1,0.041,0.002,0.054,0.006,-0.007,0.033,-1.595,-0.035,-0.068,17.73,79.4,40.584465,-3.55425,615.7,3,5,95.6,1.055
18.47,1,-0.047,0.007,-0.006,-0.012,0.005,0.022,-1.595,-0.035,-0.07,17.73,79.4,40.584465,-3.55425,615.7,3,5,95.6,1.055
18.57,1,0.001,-0.038,0.068,-0.021,-0.013,0.039,-1.598,-0.034,-0.071,17.73,79.4,40.584465,-3.55425,615.7,3,5,95.6,1.055
18.68,1,0.017,-0.039,0.014,0.005,-0.025,0.038,-1.597,-0.034,-0.073,17.73,79.4,40.584465,-3.55425,615.7,3,5,95.6,1.055
18.78,1,0.038,-0.02,0.011,0.021,-0.027,0.017,-1.596,-0.036,-0.075,18.68,82.4,40.584442,-3.553986,616.1,3,5,97.0,2.461
18.87,1,-0.007,-0.021,0.016,0.012,-0.023,0.021,-1.594,-0.036,-0.077,18.68,82.4,40.584442,-3.553986,616.1,3,5,97.0,2.461
18.97,1,0.025,0.016,0.075,0.017,-0.008,0.042,-1.593,-0.034,-0.079,18.68,82.4,40.584442,-3.553986,616.1,3,5,97.0,2.461
19.07,1,-0.051,-0.055,-0.001,-0.016,-0.024,0.03,-1.594,-0.033,-0.08,18.68,82.4,40.584442,-3.553986,616.1,3,5,97.0,2.461
19.17,1,-0.026,-0.064,0.071,-0.036,-0.037,0.04,-1.597,-0.034,-0.081,18.68,82.4,40.584442,-3.553986,616.1,3,5,97.0,2.461
19.28,1,0.022,0.007,0.044,0.002,-0.029,0.046,-1.596,-0.036,-0.084,18.68,82.4,40.584442,-3.553986,616.1,3,5,97.0,2.461
19.37,1,0.011,0.03,0.034,0.011,0.001,0.037,-1.596,-0.037,-0.085,18.68,82.4,40.584442,-3.553986,616.1,3,5,97.0,2.461
19.47,1,-0.001,-0.001,0.042,0.003,0.003,0.039,-1.597,-0.037,-0.086,18.68,82.4,40.584442,-3.553986,616.1,3,5,97.0,2.461
19.57,1,-0.006,-0.032,0.031,0.0,-0.015,0.039,-1.596,-0.035,-0.087,18.68,82.4,40.584442,-3.553986,616.1,3,5,97.0,2.461
19.68,1,-0.027,-0.029,0.013,-0.017,-0.018,0.025,-1.596,-0.034,-0.088,18.68,82.4,40.584442,-3.553986,616.1,3,5,97.0,2.461
19.77,1,-0.0,-0.037,0.023,-0.004,-0.032,0.025,-1.605,-0.024,-0.089,19.68,83.8,40.584412,-3.553719,616.1,3,5,98.1,2.461
19.88,1,-0.013,-0.052,-0.021,-0.011,-0.036,0.003,-1.611,-0.017,-0.089,19.68,83.8,40.584412,-3.553719,616.1,3,5,98.1,2.461
19.97,1,0.001,-0.029,0.022,-0.001,-0.04,0.007,-1.612,-0.016,-0.09,19.68,83.8,40.584412,-3.553719,616.1,3,5,98.1,2.461
20.07,1,-0.052,-0.033,-0.023,-0.023,-0.037,-0.002,-1.612,-0.015,-0.09,19.68,83.8,40.584412,-3.553719,616.1,3,5,98.1,2.461
20.17,1,-0.013,-0.008,-0.028,-0.03,-0.025,-0.013,-1.613,-0.007,-0.09,19.68,83.8,40.584412,-3.553719,616.1,3,5,98.1,2.461
20.27,1,-0.024,-0.016,0.001,-0.017,-0.023,-0.012,-1.613,-0.002,-0.09,19.68,83.8,40.584412,-3.553719,616.1,3,5,98.1,2.461
20.37,1,0.01,-0.034,0.005,-0.014,-0.029,-0.005,-1.608,0.004,-0.09,19.68,83.8,40.584412,-3.553719,616.1,3,5,98.1,2.461
20.48,1,0.003,0.004,0.01,-0.002,-0.003,-0.003,-1.608,0.006,-0.09,19.68,83.8,40.584412,-3.553719,616.1,3,5,98.1,2.461
20.57,1,-0.027,-0.026,-0.008,-0.017,-0.008,0.004,-1.607,0.007,-0.09,19.68,83.8,40.584412,-3.553719,616.1,3,5,98.1,2.461
20.67,1,0.004,-0.01,-0.001,0.0,-0.027,-0.01,-1.607,0.007,-0.09,19.68,83.8,40.584412,-3.553719,616.1,3,5,98.1,2.461
20.77,1,-0.013,-0.068,-0.008,-0.015,-0.037,-0.008,-1.607,0.007,-0.09,20.79,84.7,40.584377,-3.553446,616.3,3,5,98.1,1.055
20.87,1,0.047,-0.029,-0.039,0.022,-0.038,-0.009,-1.605,0.006,-0.09,20.79,84.7,40.584377,-3.553446,616.3,3,5,98.1,1.055
20.97,1,0.01,0.026,-0.026,0.026,-0.011,-0.029,-1.604,0.006,-0.09,20.79,84.7,40.584377,-3.553446,616.3,3,5,98.1,1.055
21.08,1,-0.023,-0.002,-0.07,-0.004,0.007,-0.042,-1.604,0.006,-0.091,20.79,84.7,40.584377,-3.553446,616.3,3,5,98.1,1.055
21.18,1,-0.057,0.021,-0.074,-0.024,0.008,-0.061,-1.606,0.005,-0.091,20.79,84.7,40.584377,-3.553446,616.3,3,5,98.1,1.055
21.28,1,0.0,-0.014,-0.027,-0.036,-0.016,-0.049,-1.608,0.003,-0.091,20.79,84.7,40.584377,-3.553446,616.3,3,5,98.1,1.055
21.37,1,0.079,0.003,-0.057,0.011,-0.003,-0.046,-1.607,0.001,-0.092,20.79,84.7,40.584377,-3.553446,616.3,3,5,98.1,1.055
21.48,1,-0.009,0.027,-0.093,0.035,0.026,-0.068,-1.606,0.001,-0.092,20.79,84.7,40.584377,-3.553446,616.3,3,5,98.1,1.055
21.58,1,0.044,-0.025,-0.068,0.029,0.001,-0.074,-1.607,0.0,-0.093,20.79,84.7,40.584377,-3.553446,616.3,3,5,98.1,1.055
21.67,1,0.034,-0.007,-0.024,0.039,-0.006,-0.053,-1.605,-0.001,-0.093,20.79,84.7,40.584377,-3.553446,616.3,3,5,98.1,1.055
21.77,1,-0.007,0.028,-0.04,0.018,0.005,-0.039,-1.598,0.002,-0.094,21.71,85.5,40.584354,-3.553169,617.4,3,5,98.8,0.703
21.88,1,0.013,-0.009,-0.042,0.008,0.004,-0.04,-1.597,0.0,-0.095,21.71,85.5,40.584354,-3.553169,617.4,3,5,98.8,0.703
21.98,1,-0.045,0.032,-0.046,-0.009,0.012,-0.046,-1.592,-0.007,-0.096,21.71,85.5,40.584354,-3.553169,617.4,3,5,98.8,0.703
22.08,1,-0.062,0.024,-0.049,-0.04,0.017,-0.046,-1.59,-0.014,-0.098,21.71,85.5,40.584354,-3.553169,617.4,3,5,98.8,0.703
22.18,1,0.019,0.044,-0.059,-0.024,0.034,-0.05,-1.583,-0.024,-0.1,21.71,85.5,40.584354,-3.553169,617.4,3,5,98.8,0.703
22.28,1,0.02,0.066,0.013,-0.003,0.062,-0.033,-1.587,-0.025,-0.102,21.71,85.5,40.584354,-3.553169,617.4,3,5,98.8,0.703
22.38,1,-0.081,0.006,0.026,-0.021,0.026,0.006,-1.589,-0.024,-0.103,21.71,85.5,40.584354,-3.553169,617.4,3,5,98.8,0.703
22.48,1,-0.0,0.024,0.005,-0.036,0.028,0.007,-1.59,-0.025,-0.105,21.71,85.5,40.584354,-3.553169,617.4,3,5,98.8,0.703
22.58,1,0.06,0.003,0.033,0.02,0.009,0.026,-1.588,-0.032,-0.108,21.71,85.5,40.584354,-3.553169,617.4,3,5,98.8,0.703
22.68,1,0.034,0.029,-0.008,0.03,0.021,0.001,-1.586,-0.034,-0.11,21.71,85.5,40.584354,-3.553169,617.4,3,5,98.8,0.703
22.78,1,-0.009,0.054,-0.028,0.016,0.034,-0.007,-1.59,-0.035,-0.112,22.69,84.5,40.584316,-3.552898,617.3,3,5,99.1,1.055
22.88,1,0.047,0.006,0.038,0.016,0.024,0.004,-1.597,-0.038,-0.115,22.69,84.5,40.584316,-3.552898,617.3,3,5,99.1,1.055
22.98,1,0.009,0.025,-0.015,0.028,0.025,0.01,-1.595,-0.036,-0.117,22.69,84.5,40.584316,-3.552898,617.3,3,5,99.1,1.055
23.08,1,-0.031,0.008,-0.044,-0.0,0.018,-0.025,-1.594,-0.035,-0.119,22.69,84.5,40.584316,-3.552898,617.3,3,5,99.1,1.055
23.18,1,-0.064,-0.005,-0.051,-0.032,0.0,-0.038,-1.597,-0.035,-0.121,22.69,84.5,40.584316,-3.552898,617.3,3,5,99.1,1.055
23.28,1,-0.05,0.015,0.013,-0.039,0.001,-0.021,-1.601,-0.036,-0.124,22.69,84.5,40.584316,-3.552898,617.3,3,5,99.1,1.055
23.38,1,-0.096,0.015,-0.025,-0.069,0.019,-0.013,-1.603,-0.036,-0.126,22.69,84.5,40.584316,-3.552898,617.3,3,5,99.1,1.055
23.48,1,-0.048,0.019,0.005,-0.07,0.028,-0.002,-1.604,-0.036,-0.129,22.69,84.5,40.584316,-3.552898,617.3,3,5,99.1,1.055
23.58,1,-0.005,0.046,-0.032,-0.037,0.028,-0.017,-1.606,-0.035,-0.132,22.69,84.5,40.584316,-3.552898,617.3,3,5,99.1,1.055
23.68,1,0.016,0.016,0.012,-0.008,0.021,-0.015,-1.606,-0.035,-0.135,22.69,84.5,40.584316,-3.552898,617.3,3,5,99.1,1.055
23.78,1,0.005,0.048,-0.013,0.003,0.031,-0.002,-1.607,-0.036,-0.138,23.69,84.6,40.58427,-3.552619,617.4,3,5,100.5,1.758
23.88,1,-0.002,0.025,-0.002,0.0,0.032,-0.006,-1.611,-0.042,-0.141,23.69,84.6,40.58427,-3.552619,617.4,3,5,100.5,1.758
23.99,1,0.035,0.019,-0.0,0.013,0.026,-0.003,-1.605,-0.049,-0.144,23.69,84.6,40.58427,-3.552619,617.4,3,5,100.5,1.758
24.08,1,0.022,0.024,-0.013,0.034,0.024,-0.003,-1.604,-0.053,-0.147,23.69,84.6,40.58427,-3.552619,617.4,3,5,100.5,1.758
24.18,1,-0.008,0.009,-0.015,0.003,0.019,-0.012,-1.601,-0.056,-0.15,23.69,84.6,40.58427,-3.552619,617.4,3,5,100.5,1.758
24.28,1,-0.029,-0.007,0.013,-0.007,0.003,-0.002,-1.601,-0.054,-0.153,23.69,84.6,40.58427,-3.552619,617.4,3,5,100.5,1.758
24.38,1,-0.075,-0.007,-0.034,-0.038,-0.001,-0.013,-1.603,-0.056,-0.155,23.69,84.6,40.58427,-3.552619,617.4,3,5,100.5,1.758
24.48,1,-0.039,-0.044,-0.011,-0.048,-0.02,-0.015,-1.604,-0.059,-0.157,23.69,84.6,40.58427,-3.552619,617.4,3,5,100.5,1.758
24.58,1,-0.018,-0.002,-0.002,-0.045,-0.009,-0.015,-1.605,-0.063,-0.159,23.69,84.6,40.58427,-3.552619,617.4,3,5,100.5,1.758
24.68,1,-0.013,0.004,0.004,-0.017,-0.001,0.003,-1.605,-0.06,-0.162,23.69,84.6,40.58427,-3.552619,617.4,3,5,100.5,1.758
24.78,1,0.017,0.035,-0.007,-0.006,0.011,-0.004,-1.604,-0.058,-0.164,24.7,83.1,40.584229,-3.552358,617.7,4,5,101.6,2.461
24.88,1,-0.006,-0.003,-0.022,-0.001,0.011,-0.012,-1.604,-0.057,-0.167,24.7,83.1,40.584229,-3.552358,617.7,4,5,101.6,2.461
24.98,1,-0.037,0.001,-0.027,-0.015,0.001,-0.024,-1.605,-0.058,-0.169,24.7,83.1,40.584229,-3.552358,617.7,4,5,101.6,2.461
25.09,1,0.028,-0.039,0.045,-0.003,-0.012,0.004,-1.606,-0.059,-0.172,24.7,83.1,40.584229,-3.552358,617.7,4,5,101.6,2.461
25.18,1,-0.014,0.008,-0.027,-0.001,-0.006,0.007,-1.606,-0.058,-0.174,24.7,83.1,40.584229,-3.552358,617.7,4,5,101.6,2.461
25.3,1,-0.006,-0.004,-0.033,-0.005,-0.008,-0.023,-1.607,-0.058,-0.177,24.7,83.1,40.584229,-3.552358,617.7,4,5,101.6,2.461
25.39,1,-0.004,0.001,-0.003,-0.004,-0.004,-0.015,-1.608,-0.059,-0.179,24.7,83.1,40.584229,-3.552358,617.7,4,5,101.6,2.461
25.49,1,0.038,-0.013,-0.026,0.013,-0.008,-0.016,-1.607,-0.06,-0.182,24.7,83.1,40.584229,-3.552358,617.7,4,5,101.6,2.461
25.58,1,0.01,0.013,-0.012,0.018,-0.002,-0.017,-1.607,-0.06,-0.184,24.7,83.1,40.584229,-3.552358,617.7,4,5,101.6,2.461
25.69,1,0.021,-0.022,0.001,0.013,-0.007,-0.011,-1.603,-0.057,-0.185,24.7,83.1,40.584229,-3.552358,617.7,4,5,101.6,2.461
25.79,1,-0.021,-0.028,0.027,0.004,-0.021,0.008,-1.601,-0.057,-0.186,25.67,86.4,40.584167,-3.552088,617.9,4,5,104.8,4.219
25.89,1,-0.014,-0.017,-0.024,-0.008,-0.021,0.003,-1.604,-0.051,-0.189,25.67,86.4,40.584167,-3.552088,617.9,4,5,104.8,4.219
25.99,1,-0.02,-0.013,-0.016,-0.014,-0.014,-0.015,-1.604,-0.046,-0.19,25.67,86.4,40.584167,-3.552088,617.9,4,5,104.8,4.219
26.09,1,-0.017,-0.016,0.018,-0.02,-0.015,-0.002,-1.605,-0.047,-0.192,25.67,86.4,40.584167,-3.552088,617.9,4,5,104.8,4.219
26.19,1,0.032,-0.021,-0.012,0.006,-0.018,0.001,-1.606,-0.048,-0.193,25.67,86.4,40.584167,-3.552088,617.9,4,5,104.8,4.219
26.29,1,-0.033,-0.005,-0.015,-0.0,-0.014,-0.01,-1.605,-0.048,-0.195,25.67,86.4,40.584167,-3.552088,617.9,4,5,104.8,4.219
26.39,1,-0.002,-0.009,0.006,-0.014,-0.012,-0.001,-1.608,-0.043,-0.196,25.67,86.4,40.584167,-3.552088,617.9,4,5,104.8,4.219
26.49,1,-0.032,-0.014,-0.021,-0.023,-0.009,-0.009,-1.603,-0.037,-0.197,25.67,86.4,40.584167,-3.552088,617.9,4,5,104.8,4.219
26.59,1,-0.013,-0.033,0.016,-0.015,-0.021,-0.003,-1.603,-0.033,-0.198,25.67,86.4,40.584167,-3.552088,617.9,4,5,104.8,4.219
26.7,1,-0.014,0.004,-0.013,-0.018,-0.012,-0.003,-1.602,-0.03,-0.2,25.67,86.4,40.584167,-3.552088,617.9,4,5,104.8,4.219
26.79,1,0.021,0.028,0.017,0.0,0.005,0.002,-1.6,-0.027,-0.201,26.69,86.6,40.58411,-3.551814,618.0,3,5,106.2,4.57
26.89,1,-0.019,0.016,-0.02,-0.007,0.02,-0.003,-1.598,-0.024,-0.203,26.69,86.6,40.58411,-3.551814,618.0,3,5,106.2,4.57
26.99,1,-0.042,0.02,-0.008,-0.013,0.016,-0.004,-1.599,-0.026,-0.205,26.69,86.6,40.58411,-3.551814,618.0,3,5,106.2,4.57
27.1,1,0.043,-0.003,-0.015,-0.005,0.009,-0.017,-1.6,-0.03,-0.206,26.69,86.6,40.58411,-3.551814,618.0,3,5,106.2,4.57
27.2,1,0.011,0.022,0.052,0.015,0.014,0.019,-1.601,-0.03,-0.208,26.69,86.6,40.58411,-3.551814,618.0,3,5,106.2,4.57
27.3,1,-0.032,0.029,-0.025,0.001,0.026,0.002,-1.602,-0.032,-0.21,26.69,86.6,40.58411,-3.551814,618.0,3,5,106.2,4.57
27.39,1,-0.057,0.021,-0.028,-0.036,0.022,-0.013,-1.6,-0.034,-0.211,26.69,86.6,40.58411,-3.551814,618.0,3,5,106.2,4.57
27.49,1,0.009,0.007,-0.029,-0.025,0.013,-0.029,-1.603,-0.037,-0.213,26.69,86.6,40.58411,-3.551814,618.0,3,5,106.2,4.57
27.59,1,0.025,0.003,0.024,0.005,0.008,0.001,-1.603,-0.041,-0.214,26.69,86.6,40.58411,-3.551814,618.0,3,5,106.2,4.57
27.7,1,-0.045,-0.005,-0.0,-0.003,-0.001,0.0,-1.603,-0.041,-0.216,26.69,86.6,40.58411,-3.551814,618.0,3,5,106.2,4.57
27.79,1,0.013,-0.024,-0.037,-0.025,-0.008,-0.016,-1.597,-0.037,-0.217,27.68,87.5,40.584045,-3.55154,618.2,3,5,107.6,2.812
27.9,1,-0.038,0.011,-0.036,-0.01,-0.004,-0.031,-1.596,-0.038,-0.218,27.68,87.5,40.584045,-3.55154,618.2,3,5,107.6,2.812
27.99,1,-0.017,0.001,-0.012,-0.015,0.005,-0.021,-1.599,-0.039,-0.219,27.68,87.5,40.584045,-3.55154,618.2,3,5,107.6,2.812
28.1,1,-0.023,-0.021,0.014,-0.026,-0.007,-0.004,-1.601,-0.036,-0.22,27.68,87.5,40.584045,-3.55154,618.2,3,5,107.6,2.812
28.19,1,0.007,0.014,-0.001,-0.009,0.001,0.004,-1.601,-0.036,-0.22,27.68,87.5,40.584045,-3.55154,618.2,3,5,107.6,2.812
28.3,1,0.033,0.018,0.005,0.014,0.006,0.004,-1.601,-0.035,-0.222,27.68,87.5,40.584045,-3.55154,618.2,3,5,107.6,2.812
28.39,1,0.033,-0.05,-0.022,0.023,-0.021,-0.017,-1.602,-0.04,-0.223,27.68,87.5,40.584045,-3.55154,618.2,3,5,107.6,2.812
28.5,1,-0.03,-0.022,-0.021,0.005,-0.023,-0.014,-1.603,-0.04,-0.224,27.68,87.5,40.584045,-3.55154,618.2,3,5,107.6,2.812
28.6,1,-0.053,-0.007,-0.011,-0.024,-0.016,-0.013,-1.604,-0.04,-0.225,27.68,87.5,40.584045,-3.55154,618.2,3,5,107.6,2.812
28.69,1,0.009,0.007,0.004,-0.02,0.0,-0.007,-1.605,-0.04,-0.226,27.68,87.5,40.584045,-3.55154,618.2,3,5,107.6,2.812
28.79,1,0.059,-0.0,0.009,0.02,-0.001,0.002,-1.603,-0.042,-0.227,28.7,87.9,40.583977,-3.551271,618.4,3,5,109.0,2.812
28.9,1,0.029,-0.004,-0.013,0.034,-0.001,-0.0,-1.602,-0.045,-0.229,28.7,87.9,40.583977,-3.551271,618.4,3,5,109.0,2.812
28.99,1,-0.018,-0.005,-0.005,0.006,-0.001,-0.003,-1.606,-0.046,-0.23,28.7,87.9,40.583977,-3.551271,618.4,3,5,109.0,2.812
29.1,1,-0.033,0.01,-0.017,-0.01,-0.0,-0.012,-1.608,-0.045,-0.232,28.7,87.9,40.583977,-3.551271,618.4,3,5,109.0,2.812
29.2,1,-0.034,0.031,0.012,-0.028,0.01,-0.004,-1.611,-0.045,-0.234,28.7,87.9,40.583977,-3.551271,618.4,3,5,109.0,2.812
29.3,1,-0.019,0.012,-0.004,-0.022,0.017,0.0,-1.612,-0.047,-0.235,28.7,87.9,40.583977,-3.551271,618.4,3,5,109.0,2.812
29.4,1,0.029,0.041,-0.003,-0.007,0.026,-0.002,-1.611,-0.049,-0.237,28.7,87.9,40.583977,-3.551271,618.4,3,5,109.0,2.812
29.5,1,-0.029,0.022,-0.039,-0.002,0.027,-0.016,-1.61,-0.053,-0.239,28.7,87.9,40.583977,-3.551271,618.4,3,5,109.0,2.812
29.6,1,-0.029,0.027,0.004,-0.023,0.026,-0.023,-1.61,-0.055,-0.24,28.7,87.9,40.583977,-3.551271,618.4,3,5,109.0,2.812
29.7,1,-0.001,0.008,0.014,-0.011,0.018,0.002,-1.615,-0.056,-0.242,28.7,87.9,40.583977,-3.551271,618.4,3,5,109.0,2.812
29.8,1,0.002,0.036,-0.031,-0.002,0.027,-0.01,-1.615,-0.055,-0.244,29.68,88.0,40.583897,-3.550999,618.6,3,5,110.4,2.812
29.9,1,-0.004,0.016,-0.033,-0.002,0.023,-0.021,-1.615,-0.054,-0.246,29.68,88.0,40.583897,-3.550999,618.6,3,5,110.4,2.812
30.0,1,-0.005,0.031,-0.003,-0.004,0.025,-0.019,-1.616,-0.054,-0.248,29.68,88.0,40.583897,-3.550999,618.6,3,5,110.4,2.812
30.1,1,-0.012,0.015,-0.023,-0.01,0.019,-0.01,-1.616,-0.054,-0.25,29.68,88.0,40.583897,-3.550999,618.6,3,5,110.4,2.812
30.2,1,-0.014,0.026,-0.019,-0.014,0.027,-0.019,-1.617,-0.054,-0.252,29.68,88.0,40.583897,-3.550999,618.6,3,5,110.4,2.812
30.31,1,-0.018,0.044,-0.022,-0.014,0.033,-0.022,-1.618,-0.056,-0.254,29.68,88.0,40.583897,-3.550999,618.6,3,5,110.4,2.812
30.4,1,-0.028,0.021,-0.003,-0.017,0.029,-0.013,-1.613,-0.059,-0.256,29.68,88.0,40.583897,-3.550999,618.6,3,5,110.4,2.812
30.5,1,-0.011,0.007,-0.011,-0.02,0.016,-0.008,-1.615,-0.059,-0.257,29.68,88.0,40.583897,-3.550999,618.6,3,5,110.4,2.812
30.6,1,-0.005,-0.001,-0.007,-0.011,0.009,-0.014,-1.614,-0.058,-0.259,29.68,88.0,40.583897,-3.550999,618.6,3,5,110.4,2.812
30.7,1,-0.046,-0.003,-0.013,-0.028,0.005,-0.01,-1.61,-0.056,-0.26,29.68,88.0,40.583897,-3.550999,618.6,3,5,110.4,2.812
30.82,1,-0.057,0.016,-0.007,-0.04,0.003,-0.011,-1.61,-0.054,-0.261,30.69,87.3,40.58382,-3.550737,619.6,3,5,112.1,3.164
30.91,1,0.019,0.002,-0.016,-0.021,0.004,-0.009,-1.61,-0.049,-0.262,30.69,87.3,40.58382,-3.550737,619.6,3,5,112.1,3.164
31.02,1,0.016,0.016,-0.008,0.003,0.011,-0.013,-1.609,-0.048,-0.263,30.69,87.3,40.58382,-3.550737,619.6,3,5,112.1,3.164
31.11,1,-0.034,-0.012,-0.011,-0.005,0.004,-0.008,-1.609,-0.047,-0.264,30.69,87.3,40.58382,-3.550737,619.6,3,5,112.1,3.164
31.21,1,-0.056,0.018,-0.036,-0.035,0.005,-0.021,-1.607,-0.044,-0.264,30.69,87.3,40.58382,-3.550737,619.6,3,5,112.1,3.164
31.3,1,-0.014,0.015,-0.013,-0.037,0.012,-0.021,-1.608,-0.043,-0.265,30.69,87.3,40.58382,-3.550737,619.6,3,5,112.1,3.164
31.4,1,-0.025,0.001,0.001,-0.024,0.006,-0.005,-1.611,-0.042,-0.266,30.69,87.3,40.58382,-3.550737,619.6,3,5,112.1,3.164
31.51,1,-0.003,-0.014,-0.02,-0.016,0.002,-0.012,-1.607,-0.042,-0.266,30.69,87.3,40.58382,-3.550737,619.6,3,5,112.1,3.164
31.61,1,0.032,0.0,-0.009,0.011,-0.007,-0.013,-1.607,-0.044,-0.267,30.69,87.3,40.58382,-3.550737,619.6,3,5,112.1,3.164
31.7,1,-0.006,0.007,-0.022,0.007,0.001,-0.019,-1.604,-0.049,-0.268,30.69,87.3,40.58382,-3.550737,619.6,3,5,112.1,3.164
31.8,1,-0.023,-0.001,0.012,-0.014,0.007,-0.009,-1.605,-0.052,-0.268,31.69,89.9,40.583721,-3.55044,619.5,3,5,114.3,3.867
31.91,1,0.001,0.02,0.002,-0.006,0.006,0.001,-1.606,-0.05,-0.27,31.69,89.9,40.583721,-3.55044,619.5,3,5,114.3,3.867
32.01,1,-0.03,-0.006,-0.014,-0.015,0.006,-0.006,-1.607,-0.049,-0.27,31.69,89.9,40.583721,-3.55044,619.5,3,5,114.3,3.867
32.11,1,0.007,-0.017,0.005,-0.01,-0.011,-0.003,-1.607,-0.049,-0.27,31.69,89.9,40.583721,-3.55044,619.5,3,5,114.3,3.867
32.2,1,-0.007,0.0,-0.027,-0.002,-0.006,-0.006,-1.607,-0.048,-0.271,31.69,89.9,40.583721,-3.55044,619.5,3,5,114.3,3.867
32.3,1,-0.011,-0.012,-0.015,-0.008,-0.002,-0.019,-1.608,-0.046,-0.271,31.69,89.9,40.583721,-3.55044,619.5,3,5,114.3,3.867
32.4,1,-0.044,-0.034,-0.01,-0.02,-0.02,-0.006,-1.606,-0.044,-0.271,31.69,89.9,40.583721,-3.55044,619.5,3,5,114.3,3.867
32.51,1,-0.041,-0.029,-0.005,-0.035,-0.026,-0.009,-1.607,-0.044,-0.271,31.69,89.9,40.583721,-3.55044,619.5,3,5,114.3,3.867
32.61,1,0.022,-0.024,0.009,-0.014,-0.028,-0.003,-1.608,-0.044,-0.271,31.69,89.9,40.583721,-3.55044,619.5,3,5,114.3,3.867
32.71,1,-0.001,-0.012,-0.029,-0.003,-0.021,-0.012,-1.607,-0.045,-0.271,31.69,89.9,40.583721,-3.55044,619.5,3,5,114.3,3.867
32.82,1,-0.029,0.006,-0.004,-0.01,-0.009,-0.012,-1.605,-0.043,-0.271,32.69,90.6,40.583626,-3.550174,619.5,3,5,116.0,3.867
32.91,1,0.006,-0.012,0.001,-0.011,-0.004,-0.004,-1.601,-0.044,-0.271,32.69,90.6,40.583626,-3.550174,619.5,3,5,116.0,3.867
33.01,1,0.06,-0.02,-0.008,0.023,-0.015,-0.006,-1.602,-0.046,-0.271,32.69,90.6,40.583626,-3.550174,619.5,3,5,116.0,3.867
33.11,1,-0.038,0.001,-0.033,0.012,-0.007,-0.015,-1.601,-0.047,-0.271,32.69,90.6,40.583626,-3.550174,619.5,3,5,116.0,3.867
33.21,1,-0.014,-0.001,0.001,-0.018,0.001,-0.014,-1.599,-0.047,-0.271,32.69,90.6,40.583626,-3.550174,619.5,3,5,116.0,3.867
33.31,1,0.009,0.01,-0.016,0.001,-0.004,-0.012,-1.6,-0.041,-0.272,32.69,90.6,40.583626,-3.550174,619.5,3,5,116.0,3.867
33.42,1,0.002,0.036,0.001,-0.003,0.015,-0.007,-1.598,-0.038,-0.273,32.69,90.6,40.583626,-3.550174,619.5,3,5,116.0,3.867
33.51,1,-0.073,0.018,-0.02,-0.021,0.027,-0.005,-1.599,-0.042,-0.273,32.69,90.6,40.583626,-3.550174,619.5,3,5,116.0,3.867
33.61,1,-0.081,-0.02,-0.016,-0.064,0.005,-0.021,-1.602,-0.045,-0.274,32.69,90.6,40.583626,-3.550174,619.5,3,5,116.0,3.867
33.71,1,0.016,-0.02,0.032,-0.032,-0.017,0.003,-1.605,-0.047,-0.274,32.69,90.6,40.583626,-3.550174,619.5,3,5,116.0,3.867
33.81,1,0.014,-0.025,0.011,-0.009,-0.017,0.014,-1.605,-0.047,-0.275,33.67,91.6,40.583519,-3.549911,619.7,3,5,117.1,2.812
33.91,1,0.053,-0.004,-0.012,0.026,-0.01,-0.0,-1.604,-0.049,-0.276,33.67,91.6,40.583519,-3.549911,619.7,3,5,117.1,2.812
34.02,1,-0.027,0.019,-0.018,0.01,-0.001,-0.006,-1.605,-0.049,-0.276,33.67,91.6,40.583519,-3.549911,619.7,3,5,117.1,2.812
34.12,1,-0.027,-0.003,-0.016,-0.019,0.012,-0.013,-1.604,-0.047,-0.277,33.67,91.6,40.583519,-3.549911,619.7,3,5,117.1,2.812
34.21,1,0.023,0.004,-0.025,-0.001,0.003,-0.023,-1.603,-0.045,-0.277,33.67,91.6,40.583519,-3.549911,619.7,3,5,117.1,2.812
34.31,1,-0.026,0.022,-0.024,-0.003,0.007,-0.015,-1.602,-0.046,-0.278,33.67,91.6,40.583519,-3.549911,619.7,3,5,117.1,2.812
34.41,1,-0.025,0.028,-0.064,-0.013,0.02,-0.045,-1.598,-0.047,-0.279,33.67,91.6,40.583519,-3.549911,619.7,3,5,117.1,2.812
34.51,1,-0.001,0.01,-0.05,-0.018,0.014,-0.049,-1.59,-0.048,-0.28,33.67,91.6,40.583519,-3.549911,619.7,3,5,117.1,2.812
34.62,1,-0.043,0.041,-0.058,-0.015,0.022,-0.048,-1.585,-0.05,-0.281,33.67,91.6,40.583519,-3.549911,619.7,3,5,117.1,2.812
34.72,1,-0.045,0.012,-0.052,-0.04,0.028,-0.055,-1.582,-0.049,-0.282,33.67,91.6,40.583519,-3.549911,619.7,3,5,117.1,2.812
34.82,1,-0.057,0.007,-0.048,-0.048,0.015,-0.055,-1.576,-0.056,-0.282,34.71,92.1,40.583416,-3.549657,619.8,4,5,118.8,2.812
34.91,1,-0.013,-0.014,-0.049,-0.037,-0.004,-0.052,-1.569,-0.057,-0.282,34.71,92.1,40.583416,-3.549657,619.8,4,5,118.8,2.812
35.01,1,0.025,-0.015,-0.033,-0.002,-0.008,-0.037,-1.568,-0.055,-0.282,34.71,92.1,40.583416,-3.549657,619.8,4,5,118.8,2.812
35.12,1,0.015,-0.006,-0.057,0.006,-0.008,-0.044,-1.568,-0.054,-0.283,34.71,92.1,40.583416,-3.549657,619.8,4,5,118.8,2.812
35.22,1,0.037,-0.009,-0.048,0.028,-0.007,-0.05,-1.563,-0.053,-0.283,34.71,92.1,40.583416,-3.549657,619.8,4,5,118.8,2.812
35.32,1,-0.04,0.01,-0.054,0.0,-0.002,-0.051,-1.561,-0.051,-0.283,34.71,92.1,40.583416,-3.549657,619.8,4,5,118.8,2.812
35.41,1,-0.052,0.016,-0.06,-0.032,0.005,-0.058,-1.559,-0.049,-0.282,34.71,92.1,40.583416,-3.549657,619.8,4,5,118.8,2.812
35.51,1,-0.012,-0.021,-0.025,-0.026,0.001,-0.041,-1.56,-0.046,-0.282,34.71,92.1,40.583416,-3.549657,619.8,4,5,118.8,2.812
35.61,1,-0.003,-0.001,-0.024,-0.017,-0.007,-0.031,-1.557,-0.043,-0.282,34.71,92.1,40.583416,-3.549657,619.8,4,5,118.8,2.812
35.71,1,-0.007,-0.011,-0.046,-0.015,-0.002,-0.034,-1.554,-0.043,-0.282,34.71,92.1,40.583416,-3.549657,619.8,4,5,118.8,2.812
35.81,1,-0.036,-0.016,-0.043,-0.017,-0.01,-0.045,-1.55,-0.042,-0.282,35.83,90.8,40.583294,-3.549395,620.0,3,5,120.6,3.516
35.92,1,0.012,-0.04,-0.014,-0.01,-0.025,-0.03,-1.544,-0.041,-0.281,35.83,90.8,40.583294,-3.549395,620.0,3,5,120.6,3.516
36.02,1,-0.012,0.006,-0.024,-0.005,-0.016,-0.023,-1.542,-0.041,-0.281,35.83,90.8,40.583294,-3.549395,620.0,3,5,120.6,3.516
36.12,1,0.008,0.021,-0.018,-0.005,0.004,-0.022,-1.54,-0.04,-0.281,35.83,90.8,40.583294,-3.549395,620.0,3,5,120.6,3.516
36.22,1,-0.003,-0.002,-0.038,0.002,0.002,-0.028,-1.537,-0.041,-0.28,35.83,90.8,40.583294,-3.549395,620.0,3,5,120.6,3.516
36.32,1,-0.038,0.017,-0.011,-0.008,0.01,-0.025,-1.534,-0.04,-0.28,35.83,90.8,40.583294,-3.549395,620.0,3,5,120.6,3.516
36.42,1,-0.024,0.031,0.003,-0.029,0.019,-0.006,-1.535,-0.039,-0.281,35.83,90.8,40.583294,-3.549395,620.0,3,5,120.6,3.516
36.53,1,-0.032,0.022,-0.006,-0.028,0.02,-0.004,-1.533,-0.039,-0.282,35.83,90.8,40.583294,-3.549395,620.0,3,5,120.6,3.516
36.62,1,-0.009,0.026,0.007,-0.019,0.026,-0.004,-1.532,-0.04,-0.282,35.83,90.8,40.583294,-3.549395,620.0,3,5,120.6,3.516
36.82,1,0.006,0.05,-0.005,-0.003,0.033,-0.005,-1.528,-0.042,-0.284,35.83,90.8,40.583294,-3.549395,620.0,3,5,120.6,3.516
36.92,1,-0.009,0.045,0.004,-0.002,0.042,-0.002,-1.529,-0.045,-0.285,36.71,88.2,40.583172,-3.54913,619.9,3,5,122.0,3.164
37.02,1,-0.001,-0.001,0.005,-0.011,0.026,0.004,-1.532,-0.047,-0.287,36.71,88.2,40.583172,-3.54913,619.9,3,5,122.0,3.164
37.12,1,-0.017,0.029,-0.0,-0.006,0.017,0.003,-1.532,-0.048,-0.288,36.71,88.2,40.583172,-3.54913,619.9,3,5,122.0,3.164
37.22,1,0.011,0.003,-0.004,-0.004,0.02,-0.001,-1.531,-0.048,-0.288,36.71,88.2,40.583172,-3.54913,619.9,3,5,122.0,3.164
37.32,1,-0.002,0.014,0.013,-0.002,0.015,0.0,-1.533,-0.048,-0.289,36.71,88.2,40.583172,-3.54913,619.9,3,5,122.0,3.164
37.42,1,-0.048,0.028,0.032,-0.016,0.016,0.022,-1.537,-0.048,-0.291,36.71,88.2,40.583172,-3.54913,619.9,3,5,122.0,3.164
37.52,1,0.022,-0.002,-0.012,-0.007,0.013,0.009,-1.538,-0.051,-0.291,36.71,88.2,40.583172,-3.54913,619.9,3,5,122.0,3.164
37.62,1,-0.01,0.003,0.024,-0.003,0.006,0.007,-1.539,-0.054,-0.292,36.71,88.2,40.583172,-3.54913,619.9,3,5,122.0,3.164
37.72,1,-0.009,-0.007,-0.003,-0.012,-0.001,0.008,-1.541,-0.053,-0.293,36.71,88.2,40.583172,-3.54913,619.9,3,5,122.0,3.164
37.82,1,-0.007,-0.03,0.032,-0.009,-0.014,0.014,-1.546,-0.051,-0.293,36.71,88.2,40.583172,-3.54913,619.9,3,5,122.0,3.164
37.92,1,-0.045,-0.036,0.032,-0.019,-0.024,0.029,-1.553,-0.047,-0.293,37.74,86.8,40.583073,-3.548912,619.9,3,5,123.8,3.164
38.02,1,-0.009,-0.028,0.023,-0.019,-0.026,0.03,-1.556,-0.044,-0.292,37.74,86.8,40.583073,-3.548912,619.9,3,5,123.8,3.164
38.12,1,-0.028,-0.016,0.031,-0.021,-0.024,0.03,-1.557,-0.042,-0.292,37.74,86.8,40.583073,-3.548912,619.9,3,5,123.8,3.164
38.22,1,-0.038,-0.051,0.015,-0.037,-0.033,0.016,-1.558,-0.043,-0.291,37.74,86.8,40.583073,-3.548912,619.9,3,5,123.8,3.164
38.33,1,0.002,-0.025,0.072,-0.019,-0.029,0.043,-1.564,-0.043,-0.291,37.74,86.8,40.583073,-3.548912,619.9,3,5,123.8,3.164
38.42,1,0.05,-0.0,0.044,0.016,-0.019,0.051,-1.563,-0.043,-0.29,37.74,86.8,40.583073,-3.548912,619.9,3,5,123.8,3.164
38.52,1,0.012,-0.019,0.003,0.025,-0.015,0.029,-1.561,-0.041,-0.289,37.74,86.8,40.583073,-3.548912,619.9,3,5,123.8,3.164
38.62,1,-0.033,-0.026,0.015,-0.005,-0.023,0.012,-1.562,-0.038,-0.288,37.74,86.8,40.583073,-3.548912,619.9,3,5,123.8,3.164
38.72,1,-0.036,-0.016,0.029,-0.031,-0.022,0.022,-1.566,-0.034,-0.287,37.74,86.8,40.583073,-3.548912,619.9,3,5,123.8,3.164
38.82,1,0.014,-0.021,0.031,-0.011,-0.021,0.03,-1.57,-0.032,-0.286,37.74,86.8,40.583073,-3.548912,619.9,3,5,123.8,3.164
38.93,1,-0.003,-0.013,0.021,-0.0,-0.017,0.026,-1.574,-0.029,-0.286,38.74,86.1,40.582951,-3.548675,620.0,3,5,125.5,3.516
39.02,1,-0.027,-0.024,0.033,-0.01,-0.023,0.03,-1.577,-0.033,-0.284,38.74,86.1,40.582951,-3.548675,620.0,3,5,125.5,3.516
39.13,1,0.0,0.013,0.012,-0.015,-0.004,0.018,-1.577,-0.036,-0.284,38.74,86.1,40.582951,-3.548675,620.0,3,5,125.5,3.516
39.22,1,0.038,-0.026,0.009,0.017,-0.006,0.019,-1.575,-0.034,-0.283,38.74,86.1,40.582951,-3.548675,620.0,3,5,125.5,3.516
39.32,1,-0.024,0.003,-0.024,0.004,-0.008,-0.005,-1.573,-0.035,-0.282,38.74,86.1,40.582951,-3.548675,620.0,3,5,125.5,3.516
39.43,1,-0.034,0.008,0.019,-0.021,0.002,0.002,-1.575,-0.03,-0.281,38.74,86.1,40.582951,-3.548675,620.0,3,5,125.5,3.516
39.53,1,-0.025,-0.011,0.015,-0.025,-0.005,0.014,-1.577,-0.029,-0.28,38.74,86.1,40.582951,-3.548675,620.0,3,5,125.5,3.516
39.63,1,0.042,-0.022,0.006,0.009,-0.013,0.009,-1.575,-0.029,-0.28,38.74,86.1,40.582951,-3.548675,620.0,3,5,125.5,3.516
39.73,1,0.064,0.024,0.022,0.038,0.003,0.019,-1.576,-0.028,-0.28,38.74,86.1,40.582951,-3.548675,620.0,3,5,125.5,3.516
39.83,1,-0.033,0.026,0.01,0.012,0.013,0.008,-1.578,-0.03,-0.28,38.74,86.1,40.582951,-3.548675,620.0,3,5,125.5,3.516
39.93,1,-0.038,-0.006,0.012,-0.017,0.01,0.012,-1.579,-0.029,-0.279,39.7,86.5,40.582825,-3.548448,620.4,3,5,126.6,2.812
40.03,1,-0.053,0.008,0.002,-0.033,0.004,0.009,-1.579,-0.028,-0.279,39.7,86.5,40.582825,-3.548448,620.4,3,5,126.6,2.812
40.14,1,-0.045,0.014,-0.009,-0.05,0.01,-0.001,-1.579,-0.027,-0.278,39.7,86.5,40.582825,-3.548448,620.4,3,5,126.6,2.812
40.23,1,0.022,-0.005,0.025,-0.017,0.001,0.009,-1.581,-0.026,-0.278,39.7,86.5,40.582825,-3.548448,620.4,3,5,126.6,2.812
40.33,1,-0.007,0.026,0.007,-0.003,0.012,0.011,-1.586,-0.03,-0.278,39.7,86.5,40.582825,-3.548448,620.4,3,5,126.6,2.812
40.43,1,-0.023,0.029,0.016,-0.015,0.017,0.012,-1.589,-0.032,-0.278,39.7,86.5,40.582825,-3.548448,620.4,3,5,126.6,2.812
40.53,1,-0.013,-0.021,-0.031,-0.014,0.007,-0.008,-1.588,-0.03,-0.277,39.7,86.5,40.582825,-3.548448,620.4,3,5,126.6,2.812
40.64,1,0.0,0.004,0.001,-0.011,0.003,-0.006,-1.588,-0.03,-0.277,39.7,86.5,40.582825,-3.548448,620.4,3,5,126.6,2.812
40.73,1,-0.015,0.024,-0.016,-0.007,0.007,-0.008,-1.588,-0.031,-0.278,39.7,86.5,40.582825,-3.548448,620.4,3,5,126.6,2.812
40.84,1,-0.032,0.012,0.004,-0.019,0.014,-0.004,-1.587,-0.032,-0.278,39.7,86.5,40.582825,-3.548448,620.4,3,5,126.6,2.812
40.93,1,-0.016,0.04,0.006,-0.02,0.031,0.001,-1.59,-0.033,-0.278,40.67,86.7,40.582691,-3.54823,620.6,3,5,127.6,2.109
41.03,1,0.006,0.022,-0.01,-0.009,0.03,-0.006,-1.59,-0.034,-0.279,40.67,86.7,40.582691,-3.54823,620.6,3,5,127.6,2.109
41.13,1,-0.007,0.032,-0.015,-0.002,0.023,-0.01,-1.59,-0.038,-0.28,40.67,86.7,40.582691,-3.54823,620.6,3,5,127.6,2.109
41.23,1,-0.044,0.034,0.005,-0.02,0.031,-0.002,-1.591,-0.042,-0.281,40.67,86.7,40.582691,-3.54823,620.6,3,5,127.6,2.109
41.33,1,-0.002,0.018,-0.004,-0.019,0.026,-0.003,-1.592,-0.044,-0.282,40.67,86.7,40.582691,-3.54823,620.6,3,5,127.6,2.109
41.43,1,-0.009,0.016,0.013,-0.011,0.018,0.003,-1.592,-0.047,-0.283,40.67,86.7,40.582691,-3.54823,620.6,3,5,127.6,2.109
41.53,1,-0.008,0.009,-0.006,-0.013,0.011,0.002,-1.59,-0.05,-0.283,40.67,86.7,40.582691,-3.54823,620.6,3,5,127.6,2.109
41.63,1,0.007,0.017,-0.026,-0.004,0.017,-0.01,-1.591,-0.05,-0.284,40.67,86.7,40.582691,-3.54823,620.6,3,5,127.6,2.109
41.73,1,-0.008,0.011,-0.018,0.005,0.015,-0.018,-1.594,-0.048,-0.285,40.67,86.7,40.582691,-3.54823,620.6,3,5,127.6,2.109
41.83,1,-0.04,0.007,-0.012,-0.02,0.014,-0.016,-1.595,-0.051,-0.286,40.67,86.7,40.582691,-3.54823,620.6,3,5,127.6,2.109
41.93,1,-0.018,0.016,-0.013,-0.03,0.009,-0.016,-1.596,-0.051,-0.286,41.7,86.9,40.58255,-3.547999,621.1,3,5,129.4,2.812
42.04,1,-0.022,-0.011,-0.019,-0.019,-0.002,-0.015,-1.595,-0.051,-0.285,41.7,86.9,40.58255,-3.547999,621.1,3,5,129.4,2.812
42.14,1,-0.013,-0.031,-0.006,-0.018,-0.014,-0.014,-1.596,-0.051,-0.285,41.7,86.9,40.58255,-3.547999,621.1,3,5,129.4,2.812
42.23,1,0.027,-0.018,-0.005,-0.001,-0.018,-0.009,-1.597,-0.051,-0.285,41.7,86.9,40.58255,-3.547999,621.1,3,5,129.4,2.812
42.33,1,0.007,-0.023,-0.014,0.01,-0.015,-0.006,-1.597,-0.054,-0.285,41.7,86.9,40.58255,-3.547999,621.1,3,5,129.4,2.812
42.44,1,-0.041,-0.035,-0.023,-0.007,-0.029,-0.016,-1.598,-0.056,-0.284,41.7,86.9,40.58255,-3.547999,621.1,3,5,129.4,2.812
42.53,1,-0.035,-0.006,-0.016,-0.03,-0.021,-0.019,-1.601,-0.055,-0.284,41.7,86.9,40.58255,-3.547999,621.1,3,5,129.4,2.812
42.64,1,-0.018,-0.01,-0.024,-0.025,-0.011,-0.015,-1.602,-0.054,-0.283,41.7,86.9,40.58255,-3.547999,621.1,3,5,129.4,2.812
42.74,1,-0.021,-0.012,-0.016,-0.024,-0.011,-0.022,-1.598,-0.054,-0.282,41.7,86.9,40.58255,-3.547999,621.1,3,5,129.4,2.812
42.84,1,-0.025,-0.039,-0.018,-0.019,-0.032,-0.017,-1.598,-0.054,-0.281,41.7,86.9,40.58255,-3.547999,621.1,3,5,129.4,2.812
42.94,1,-0.012,-0.04,-0.032,-0.025,-0.032,-0.023,-1.597,-0.054,-0.28,42.67,87.0,40.582413,-3.547778,621.4,3,5,131.1,3.516
43.04,1,0.005,-0.024,-0.018,-0.008,-0.028,-0.025,-1.598,-0.052,-0.28,42.67,87.0,40.582413,-3.547778,621.4,3,5,131.1,3.516
43.13,1,0.077,-0.019,-0.01,0.02,-0.025,-0.019,-1.6,-0.048,-0.28,42.67,87.0,40.582413,-3.547778,621.4,3,5,131.1,3.516
43.24,1,0.003,-0.002,-0.035,0.047,-0.015,-0.014,-1.602,-0.051,-0.28,42.67,87.0,40.582413,-3.547778,621.4,3,5,131.1,3.516
43.34,1,-0.086,-0.014,-0.049,-0.024,-0.007,-0.044,-1.604,-0.047,-0.279,42.67,87.0,40.582413,-3.547778,621.4,3,5,131.1,3.516
43.44,1,-0.004,-0.011,-0.002,-0.034,-0.013,-0.024,-1.604,-0.048,-0.278,42.67,87.0,40.582413,-3.547778,621.4,3,5,131.1,3.516
43.54,1,0.021,0.007,-0.023,-0.004,-0.006,-0.018,-1.603,-0.049,-0.278,42.67,87.0,40.582413,-3.547778,621.4,3,5,131.1,3.516
43.64,1,-0.007,-0.023,-0.034,0.005,-0.012,-0.025,-1.603,-0.048,-0.277,42.67,87.0,40.582413,-3.547778,621.4,3,5,131.1,3.516
43.74,1,-0.013,0.003,-0.018,-0.013,-0.0,-0.03,-1.599,-0.047,-0.276,42.67,87.0,40.582413,-3.547778,621.4,3,5,131.1,3.516
43.84,1,-0.018,0.019,-0.014,-0.011,0.003,-0.017,-1.598,-0.05,-0.276,42.67,87.0,40.582413,-3.547778,621.4,3,5,131.1,3.516
43.94,1,-0.02,-0.012,-0.023,-0.012,0.001,-0.017,-1.595,-0.054,-0.275,43.66,86.9,40.582268,-3.547569,621.5,3,5,132.2,2.812
44.04,1,-0.027,-0.016,-0.049,-0.02,-0.009,-0.038,-1.591,-0.053,-0.274,43.66,86.9,40.582268,-3.547569,621.5,3,5,132.2,2.812
44.14,1,-0.05,-0.045,-0.011,-0.033,-0.02,-0.025,-1.589,-0.05,-0.272,43.66,86.9,40.582268,-3.547569,621.5,3,5,132.2,2.812
44.24,1,-0.029,-0.013,-0.031,-0.043,-0.023,-0.03,-1.59,-0.051,-0.272,43.66,86.9,40.582268,-3.547569,621.5,3,5,132.2,2.812
44.34,1,0.012,0.005,0.002,-0.019,-0.015,-0.021,-1.59,-0.053,-0.271,43.66,86.9,40.582268,-3.547569,621.5,3,5,132.2,2.812
44.44,1,-0.0,-0.02,-0.009,0.007,-0.012,0.001,-1.589,-0.052,-0.269,43.66,86.9,40.582268,-3.547569,621.5,3,5,132.2,2.812
44.54,1,-0.0,-0.023,-0.012,0.003,-0.015,-0.008,-1.587,-0.05,-0.268,43.66,86.9,40.582268,-3.547569,621.5,3,5,132.2,2.812
44.64,1,0.008,-0.012,-0.008,-0.002,-0.016,-0.009,-1.581,-0.044,-0.266,43.66,86.9,40.582268,-3.547569,621.5,3,5,132.2,2.812
44.74,1,-0.053,-0.016,-0.014,-0.022,-0.017,-0.014,-1.58,-0.041,-0.264,43.66,86.9,40.582268,-3.547569,621.5,3,5,132.2,2.812
44.84,1,0.011,-0.004,0.004,-0.013,-0.015,-0.005,-1.579,-0.038,-0.263,43.66,86.9,40.582268,-3.547569,621.5,3,5,132.2,2.812
44.95,1,-0.014,-0.008,-0.001,-0.007,-0.007,0.001,-1.573,-0.035,-0.261,44.71,86.8,40.582119,-3.547361,621.6,3,5,133.6,2.461
45.04,1,-0.043,-0.008,-0.002,-0.022,-0.004,-0.004,-1.57,-0.032,-0.259,44.71,86.8,40.582119,-3.547361,621.6,3,5,133.6,2.461
45.14,1,0.003,-0.01,0.016,-0.023,-0.007,0.004,-1.569,-0.03,-0.257,44.71,86.8,40.582119,-3.547361,621.6,3,5,133.6,2.461
45.24,1,0.032,-0.022,-0.002,-0.002,-0.015,0.005,-1.569,-0.028,-0.255,44.71,86.8,40.582119,-3.547361,621.6,3,5,133.6,2.461
45.34,1,-0.0,-0.049,0.013,0.01,-0.027,0.008,-1.569,-0.024,-0.253,44.71,86.8,40.582119,-3.547361,621.6,3,5,133.6,2.461
45.44,1,-0.094,-0.033,-0.002,-0.026,-0.038,0.01,-1.57,-0.022,-0.25,44.71,86.8,40.582119,-3.547361,621.6,3,5,133.6,2.461
45.54,1,-0.082,-0.022,-0.003,-0.063,-0.033,-0.003,-1.569,-0.02,-0.246,44.71,86.8,40.582119,-3.547361,621.6,3,5,133.6,2.461
45.64,1,-0.043,0.001,-0.028,-0.062,-0.014,-0.011,-1.566,-0.02,-0.243,44.71,86.8,40.582119,-3.547361,621.6,3,5,133.6,2.461
45.74,1,0.008,-0.01,0.032,-0.033,-0.009,-0.001,-1.567,-0.023,-0.241,44.71,86.8,40.582119,-3.547361,621.6,3,5,133.6,2.461
45.84,1,-0.003,-0.015,0.001,-0.008,-0.013,0.011,-1.568,-0.024,-0.238,44.71,86.8,40.582119,-3.547361,621.6,3,5,133.6,2.461
45.94,1,-0.034,-0.004,0.009,-0.02,-0.019,0.006,-1.569,-0.022,-0.235,45.67,86.7,40.58197,-3.547153,621.8,3,5,133.9,1.758
46.04,1,-0.034,-0.028,0.022,-0.025,-0.012,0.015,-1.571,-0.021,-0.233,45.67,86.7,40.58197,-3.547153,621.8,3,5,133.9,1.758
46.15,1,-0.005,-0.014,0.01,-0.027,-0.014,0.015,-1.571,-0.022,-0.231,45.67,86.7,40.58197,-3.547153,621.8,3,5,133.9,1.758
46.25,1,0.035,-0.008,0.028,0.012,-0.012,0.018,-1.572,-0.023,-0.229,45.67,86.7,40.58197,-3.547153,621.8,3,5,133.9,1.758
46.35,1,0.006,0.007,0.014,0.016,-0.003,0.02,-1.572,-0.026,-0.228,45.67,86.7,40.58197,-3.547153,621.8,3,5,133.9,1.758
46.44,1,-0.056,0.003,0.018,-0.014,-0.002,0.018,-1.574,-0.029,-0.225,45.67,86.7,40.58197,-3.547153,621.8,3,5,133.9,1.758
46.55,1,-0.055,0.006,0.013,-0.049,0.01,0.013,-1.575,-0.028,-0.223,45.67,86.7,40.58197,-3.547153,621.8,3,5,133.9,1.758
46.65,1,0.012,-0.043,0.006,-0.018,-0.015,0.016,-1.578,-0.023,-0.222,45.67,86.7,40.58197,-3.547153,621.8,3,5,133.9,1.758
46.75,1,-0.021,-0.008,0.001,-0.018,-0.022,0.002,-1.583,-0.016,-0.22,45.67,86.7,40.58197,-3.547153,621.8,3,5,133.9,1.758
46.86,1,-0.005,0.005,0.011,-0.014,-0.002,0.008,-1.583,-0.017,-0.218,45.67,86.7,40.58197,-3.547153,621.8,3,5,133.9,1.758
46.95,1,-0.004,0.012,-0.011,-0.006,0.002,-0.002,-1.583,-0.017,-0.216,46.67,85.5,40.581821,-3.546953,622.0,3,5,134.6,1.055
47.05,1,-0.032,0.022,-0.017,-0.015,0.011,-0.011,-1.586,-0.016,-0.214,46.67,85.5,40.581821,-3.546953,622.0,3,5,134.6,1.055
47.15,1,0.003,0.004,0.034,-0.019,0.015,0.009,-1.587,-0.014,-0.211,46.67,85.5,40.581821,-3.546953,622.0,3,5,134.6,1.055
47.25,1,-0.002,-0.002,0.026,-0.0,0.008,0.023,-1.591,-0.018,-0.209,46.67,85.5,40.581821,-3.546953,622.0,3,5,134.6,1.055
47.36,1,-0.003,-0.014,-0.012,0.004,-0.011,0.007,-1.591,-0.018,-0.207,46.67,85.5,40.581821,-3.546953,622.0,3,5,134.6,1.055
47.45,1,-0.025,-0.013,-0.005,-0.02,-0.012,0.002,-1.594,-0.016,-0.204,46.67,85.5,40.581821,-3.546953,622.0,3,5,134.6,1.055
47.55,1,0.011,-0.002,-0.0,-0.005,-0.005,-0.002,-1.594,-0.017,-0.202,46.67,85.5,40.581821,-3.546953,622.0,3,5,134.6,1.055
47.65,1,0.004,0.01,-0.002,0.001,0.004,-0.007,-1.594,-0.019,-0.199,46.67,85.5,40.581821,-3.546953,622.0,3,5,134.6,1.055
47.75,1,-0.006,-0.001,-0.01,-0.0,-0.001,-0.005,-1.594,-0.017,-0.197,46.67,85.5,40.581821,-3.546953,622.0,3,5,134.6,1.055
47.85,1,-0.017,-0.001,0.0,-0.009,-0.003,-0.002,-1.592,-0.011,-0.194,46.67,85.5,40.581821,-3.546953,622.0,3,5,134.6,1.055
47.95,1,0.007,-0.003,-0.027,0.002,0.001,-0.01,-1.592,-0.008,-0.192,47.73,86.3,40.581673,-3.54675,622.0,3,5,134.6,0.703
48.06,1,0.024,-0.011,0.014,0.015,-0.006,-0.005,-1.592,-0.008,-0.19,47.73,86.3,40.581673,-3.54675,622.0,3,5,134.6,0.703
48.16,1,-0.033,0.016,0.002,-0.008,0.002,-0.001,-1.59,-0.011,-0.187,47.73,86.3,40.581673,-3.54675,622.0,3,5,134.6,0.703
48.26,1,-0.018,0.009,0.002,-0.02,0.01,0.008,-1.587,-0.012,-0.185,47.73,86.3,40.581673,-3.54675,622.0,3,5,134.6,0.703
48.35,1,-0.004,-0.007,0.012,-0.013,-0.0,0.004,-1.585,-0.01,-0.182,47.73,86.3,40.581673,-3.54675,622.0,3,5,134.6,0.703
48.45,1,-0.032,0.027,-0.007,-0.016,0.008,0.006,-1.582,-0.004,-0.18,47.73,86.3,40.581673,-3.54675,622.0,3,5,134.6,0.703
48.55,1,0.02,-0.01,0.013,-0.009,0.002,0.001,-1.58,-0.0,-0.177,47.73,86.3,40.581673,-3.54675,622.0,3,5,134.6,0.703
48.65,1,-0.033,-0.005,0.012,-0.005,0.0,0.008,-1.581,0.002,-0.175,47.73,86.3,40.581673,-3.54675,622.0,3,5,134.6,0.703
48.76,1,-0.024,0.007,-0.001,-0.019,0.003,0.009,-1.58,0.005,-0.172,47.73,86.3,40.581673,-3.54675,622.0,3,5,134.6,0.703
48.85,1,-0.009,0.009,0.018,-0.02,0.006,0.007,-1.581,0.005,-0.17,47.73,86.3,40.581673,-3.54675,622.0,3,5,134.6,0.703
48.95,1,-0.029,0.023,0.042,-0.024,0.013,0.019,-1.581,0.004,-0.168,48.68,86.6,40.581528,-3.546546,622.6,3,5,133.9,0.703
49.05,1,-0.007,0.007,0.011,-0.02,0.012,0.028,-1.584,-0.001,-0.166,48.68,86.6,40.581528,-3.546546,622.6,3,5,133.9,0.703
49.15,1,-0.03,0.026,-0.004,-0.019,0.017,0.003,-1.58,-0.004,-0.164,48.68,86.6,40.581528,-3.546546,622.6,3,5,133.9,0.703
49.25,1,0.035,-0.004,0.006,-0.0,0.013,0.008,-1.582,-0.006,-0.162,48.68,86.6,40.581528,-3.546546,622.6,3,5,133.9,0.703
49.35,1,-0.007,0.003,-0.003,0.006,-0.001,0.004,-1.584,-0.011,-0.16,48.68,86.6,40.581528,-3.546546,622.6,3,5,133.9,0.703
49.46,1,-0.061,0.002,0.017,-0.017,0.005,0.007,-1.587,-0.014,-0.158,48.68,86.6,40.581528,-3.546546,622.6,3,5,133.9,0.703
49.56,1,-0.042,0.005,0.007,-0.043,0.007,0.012,-1.586,-0.013,-0.156,48.68,86.6,40.581528,-3.546546,622.6,3,5,133.9,0.703
49.65,1,0.038,-0.004,0.026,-0.012,0.002,0.02,-1.585,-0.015,-0.154,48.68,86.6,40.581528,-3.546546,622.6,3,5,133.9,0.703
49.76,1,0.028,-0.026,0.005,0.018,-0.009,0.012,-1.583,-0.014,-0.151,48.68,86.6,40.581528,-3.546546,622.6,3,5,133.9,0.703
49.85,1,-0.015,-0.011,0.006,0.007,-0.015,0.007,-1.584,-0.015,-0.149,48.68,86.6,40.581528,-3.546546,622.6,3,5,133.9,0.703
49.95,1,-0.01,0.004,0.018,-0.005,-0.008,0.012,-1.584,-0.014,-0.147,49.69,87.1,40.581371,-3.546342,622.7,3,5,134.6,0.703
50.06,1,-0.014,0.01,0.01,-0.008,0.003,0.009,-1.583,-0.016,-0.145,49.69,87.1,40.581371,-3.546342,622.7,3,5,134.6,0.703
50.16,1,-0.03,-0.003,0.017,-0.02,0.003,0.015,-1.582,-0.015,-0.143,49.69,87.1,40.581371,-3.546342,622.7,3,5,134.6,0.703
50.26,1,-0.019,-0.008,0.026,-0.024,-0.008,0.017,-1.582,-0.014,-0.141,49.69,87.1,40.581371,-3.546342,622.7,3,5,134.6,0.703
50.36,1,-0.009,-0.013,0.019,-0.014,-0.006,0.019,-1.58,-0.012,-0.139,49.69,87.1,40.581371,-3.546342,622.7,3,5,134.6,0.703
50.46,1,-0.015,-0.013,0.01,-0.014,-0.013,0.019,-1.581,-0.012,-0.137,49.69,87.1,40.581371,-3.546342,622.7,3,5,134.6,0.703
50.56,1,-0.03,0.008,0.011,-0.024,-0.006,0.014,-1.582,-0.014,-0.135,49.69,87.1,40.581371,-3.546342,622.7,3,5,134.6,0.703
50.66,1,0.025,0.009,0.019,-0.01,0.006,0.015,-1.584,-0.011,-0.133,49.69,87.1,40.581371,-3.546342,622.7,3,5,134.6,0.703
50.76,1,0.022,0.009,0.018,0.027,0.009,0.018,-1.585,-0.011,-0.13,49.69,87.1,40.581371,-3.546342,622.7,3,5,134.6,0.703
50.86,1,-0.041,-0.021,-0.009,-0.01,-0.002,0.003,-1.583,-0.005,-0.128,49.69,87.1,40.581371,-3.546342,622.7,3,5,134.6,0.703
50.96,1,-0.003,-0.005,-0.002,-0.014,-0.01,0.004,-1.586,-0.002,-0.126,50.67,87.9,40.581223,-3.546142,623.1,3,5,134.6,0.703
51.06,1,-0.034,-0.016,-0.034,-0.017,-0.013,-0.015,-1.587,-0.003,-0.123,50.67,87.9,40.581223,-3.546142,623.1,3,5,134.6,0.703
51.16,1,-0.006,0.002,0.017,-0.021,-0.006,-0.007,-1.587,-0.003,-0.121,50.67,87.9,40.581223,-3.546142,623.1,3,5,134.6,0.703
51.26,1,-0.004,-0.004,-0.01,-0.013,-0.006,-0.002,-1.587,-0.004,-0.118,50.67,87.9,40.581223,-3.546142,623.1,3,5,134.6,0.703
51.36,1,0.02,-0.016,0.007,0.003,-0.009,-0.001,-1.587,-0.006,-0.116,50.67,87.9,40.581223,-3.546142,623.1,3,5,134.6,0.703
51.46,1,-0.04,-0.005,-0.015,-0.005,-0.009,-0.005,-1.587,-0.007,-0.113,50.67,87.9,40.581223,-3.546142,623.1,3,5,134.6,0.703
51.56,1,-0.045,-0.036,-0.022,-0.036,-0.016,-0.014,-1.589,-0.008,-0.11,50.67,87.9,40.581223,-3.546142,623.1,3,5,134.6,0.703
51.67,1,-0.031,-0.024,-0.014,-0.038,-0.022,-0.017,-1.589,-0.007,-0.107,50.67,87.9,40.581223,-3.546142,623.1,3,5,134.6,0.703
51.76,1,-0.011,-0.031,-0.007,-0.023,-0.027,-0.006,-1.588,-0.008,-0.105,50.67,87.9,40.581223,-3.546142,623.1,3,5,134.6,0.703
51.87,1,-0.005,-0.028,0.003,-0.013,-0.029,-0.009,-1.588,-0.007,-0.102,50.67,87.9,40.581223,-3.546142,623.1,3,5,134.6,0.703
51.96,1,0.024,0.021,-0.001,0.012,-0.01,-0.002,-1.589,-0.006,-0.099,51.68,87.9,40.581059,-3.545932,623.1,4,5,134.3,0.352
52.06,1,-0.032,-0.001,-0.006,-0.016,0.001,-0.006,-1.59,-0.007,-0.097,51.68,87.9,40.581059,-3.545932,623.1,4,5,134.3,0.352
52.16,1,-0.001,-0.049,-0.007,-0.007,-0.019,-0.003,-1.589,-0.004,-0.094,51.68,87.9,40.581059,-3.545932,623.1,4,5,134.3,0.352
52.26,1,-0.028,-0.006,-0.009,-0.016,-0.022,-0.007,-1.59,-0.004,-0.091,51.68,87.9,40.581059,-3.545932,623.1,4,5,134.3,0.352
52.37,1,-0.026,-0.019,-0.011,-0.02,-0.015,-0.007,-1.591,-0.003,-0.089,51.68,87.9,40.581059,-3.545932,623.1,4,5,134.3,0.352
52.46,1,-0.072,-0.002,-0.02,-0.048,-0.012,-0.016,-1.592,-0.004,-0.086,51.68,87.9,40.581059,-3.545932,623.1,4,5,134.3,0.352
52.57,1,-0.046,0.04,-0.015,-0.049,0.012,-0.017,-1.592,-0.007,-0.084,51.68,87.9,40.581059,-3.545932,623.1,4,5,134.3,0.352
52.66,1,-0.005,-0.029,-0.016,-0.029,0.001,-0.015,-1.594,-0.009,-0.081,51.68,87.9,40.581059,-3.545932,623.1,4,5,134.3,0.352
52.76,1,-0.006,0.001,-0.011,-0.018,-0.004,-0.016,-1.593,-0.006,-0.079,51.68,87.9,40.581059,-3.545932,623.1,4,5,134.3,0.352
52.88,1,-0.021,-0.003,0.006,-0.011,-0.008,-0.005,-1.597,-0.006,-0.076,51.68,87.9,40.581059,-3.545932,623.1,4,5,134.3,0.352
52.96,1,-0.027,0.003,-0.013,-0.023,0.006,-0.001,-1.598,-0.005,-0.074,52.67,88.2,40.580902,-3.545731,623.9,3,5,134.3,0.352
53.08,1,0.009,-0.009,-0.024,-0.008,-0.004,-0.014,-1.599,-0.004,-0.071,52.67,88.2,40.580902,-3.545731,623.9,3,5,134.3,0.352
53.16,1,0.004,-0.007,-0.016,-0.006,-0.007,-0.022,-1.603,-0.005,-0.069,52.67,88.2,40.580902,-3.545731,623.9,3,5,134.3,0.352
53.26,1,-0.001,-0.024,-0.016,0.0,-0.009,-0.013,-1.604,-0.006,-0.066,52.67,88.2,40.580902,-3.545731,623.9,3,5,134.3,0.352
53.36,1,0.032,-0.019,-0.007,0.016,-0.02,-0.016,-1.605,-0.005,-0.063,52.67,88.2,40.580902,-3.545731,623.9,3,5,134.3,0.352
53.46,1,-0.055,0.009,-0.024,-0.01,-0.008,-0.014,-1.605,-0.003,-0.061,52.67,88.2,40.580902,-3.545731,623.9,3,5,134.3,0.352
53.58,1,0.0,-0.007,0.009,-0.02,-0.001,-0.006,-1.602,0.0,-0.059,52.67,88.2,40.580902,-3.545731,623.9,3,5,134.3,0.352
53.67,1,-0.028,0.004,0.002,-0.015,-0.004,0.003,-1.601,0.001,-0.056,52.67,88.2,40.580902,-3.545731,623.9,3,5,134.3,0.352
53.78,1,-0.014,0.024,-0.012,-0.021,0.009,-0.007,-1.6,0.002,-0.054,52.67,88.2,40.580902,-3.545731,623.9,3,5,134.3,0.352
53.87,1,-0.001,-0.049,-0.024,-0.01,-0.013,-0.015,-1.601,0.005,-0.051,52.67,88.2,40.580902,-3.545731,623.9,3,5,134.3,0.352
53.97,1,-0.007,0.003,-0.001,-0.004,-0.019,-0.011,-1.601,0.006,-0.048,53.71,88.3,40.580742,-3.545506,624.3,3,5,133.6,0.703
54.07,1,0.013,-0.009,-0.026,-0.001,-0.001,-0.012,-1.602,0.006,-0.046,53.71,88.3,40.580742,-3.545506,624.3,3,5,133.6,0.703
54.17,1,0.006,-0.012,-0.015,0.004,-0.011,-0.02,-1.604,0.004,-0.044,53.71,88.3,40.580742,-3.545506,624.3,3,5,133.6,0.703
54.27,1,0.01,0.017,-0.01,0.014,0.002,-0.01,-1.602,0.007,-0.041,53.71,88.3,40.580742,-3.545506,624.3,3,5,133.6,0.703
54.37,1,0.016,-0.006,-0.01,0.008,-0.0,-0.015,-1.597,0.013,-0.039,53.71,88.3,40.580742,-3.545506,624.3,3,5,133.6,0.703
54.47,1,-0.006,0.027,-0.016,0.01,0.008,-0.012,-1.592,0.012,-0.037,53.71,88.3,40.580742,-3.545506,624.3,3,5,133.6,0.703
54.57,1,-0.034,0.046,-0.034,-0.013,0.028,-0.024,-1.589,0.01,-0.035,53.71,88.3,40.580742,-3.545506,624.3,3,5,133.6,0.703
54.67,1,0.008,0.007,0.001,-0.01,0.027,-0.014,-1.587,0.012,-0.034,53.71,88.3,40.580742,-3.545506,624.3,3,5,133.6,0.703
54.78,1,-0.021,0.014,-0.011,-0.012,0.017,-0.015,-1.585,0.01,-0.032,53.71,88.3,40.580742,-3.545506,624.3,3,5,133.6,0.703
54.87,1,-0.069,0.024,0.005,-0.034,0.018,-0.005,-1.582,0.007,-0.03,53.71,88.3,40.580742,-3.545506,624.3,3,5,133.6,0.703
54.97,1,0.026,0.006,-0.013,-0.026,0.016,-0.004,-1.583,0.007,-0.028,54.69,89.0,40.580593,-3.545294,624.7,4,5,133.2,1.055
55.07,1,0.008,0.006,-0.034,0.006,0.014,-0.018,-1.581,0.006,-0.027,54.69,89.0,40.580593,-3.545294,624.7,4,5,133.2,1.055
55.17,1,-0.023,0.025,-0.007,-0.008,0.011,-0.017,-1.58,0.003,-0.025,54.69,89.0,40.580593,-3.545294,624.7,4,5,133.2,1.055
55.27,1,-0.025,0.011,0.006,-0.018,0.02,-0.0,-1.578,0.0,-0.023,54.69,89.0,40.580593,-3.545294,624.7,4,5,133.2,1.055
55.38,1,-0.023,-0.014,-0.028,-0.02,-0.0,-0.013,-1.577,-0.002,-0.022,54.69,89.0,40.580593,-3.545294,624.7,4,5,133.2,1.055
55.48,1,-0.027,-0.002,-0.008,-0.026,-0.005,-0.018,-1.578,-0.003,-0.02,54.69,89.0,40.580593,-3.545294,624.7,4,5,133.2,1.055
55.58,1,-0.017,0.006,0.007,-0.021,-0.001,-0.005,-1.577,-0.003,-0.018,54.69,89.0,40.580593,-3.545294,624.7,4,5,133.2,1.055
55.67,1,-0.013,0.011,0.016,-0.016,0.01,0.008,-1.576,-0.001,-0.016,54.69,89.0,40.580593,-3.545294,624.7,4,5,133.2,1.055
55.78,1,0.019,0.013,0.013,0.002,0.009,0.019,-1.576,-0.001,-0.015,54.69,89.0,40.580593,-3.545294,624.7,4,5,133.2,1.055
55.87,1,-0.033,0.002,-0.026,-0.012,0.011,-0.012,-1.579,-0.003,-0.013,54.69,89.0,40.580593,-3.545294,624.7,4,5,133.2,1.055
55.98,1,-0.004,0.016,0.007,-0.013,0.005,-0.008,-1.581,-0.007,-0.011,55.67,87.7,40.580441,-3.545082,625.1,3,5,132.5,1.055
56.07,1,-0.029,0.0,-0.037,-0.013,0.008,-0.006,-1.58,-0.008,-0.01,55.67,87.7,40.580441,-3.545082,625.1,3,5,132.5,1.055
56.18,1,-0.061,-0.011,-0.03,-0.04,-0.001,-0.03,-1.578,-0.011,-0.008,55.67,87.7,40.580441,-3.545082,625.1,3,5,132.5,1.055
56.27,1,-0.004,0.003,0.02,-0.035,-0.002,-0.011,-1.582,-0.012,-0.006,55.67,87.7,40.580441,-3.545082,625.1,3,5,132.5,1.055
56.37,1,-0.035,-0.002,0.003,-0.025,-0.0,0.006,-1.582,-0.011,-0.004,55.67,87.7,40.580441,-3.545082,625.1,3,5,132.5,1.055
56.47,1,-0.003,-0.022,0.011,-0.015,-0.017,0.007,-1.576,-0.011,-0.003,55.67,87.7,40.580441,-3.545082,625.1,3,5,132.5,1.055
56.58,1,-0.006,0.005,0.017,-0.013,0.001,0.014,-1.574,-0.013,-0.001,55.67,87.7,40.580441,-3.545082,625.1,3,5,132.5,1.055
56.67,1,-0.022,-0.006,-0.016,-0.022,-0.003,-0.0,-1.575,-0.013,0.001,55.67,87.7,40.580441,-3.545082,625.1,3,5,132.5,1.055
56.87,1,0.003,0.007,-0.013,-0.009,0.001,-0.006,-1.581,-0.01,0.004,55.67,87.7,40.580441,-3.545082,625.1,3,5,132.5,1.055
56.97,1,-0.003,-0.022,-0.009,-0.006,-0.003,-0.007,-1.579,-0.011,0.006,55.67,87.7,40.580441,-3.545082,625.1,3,5,132.5,1.055
57.07,1,-0.057,-0.014,0.014,-0.025,-0.013,0.005,-1.582,-0.009,0.007,56.69,87.7,40.580288,-3.544871,625.4,3,5,132.5,0.703
57.17,1,0.022,-0.053,0.024,-0.024,-0.026,0.011,-1.584,-0.009,0.009,56.69,87.7,40.580288,-3.544871,625.4,3,5,132.5,0.703
57.28,1,-0.009,0.011,0.013,0.001,-0.02,0.015,-1.578,-0.011,0.011,56.69,87.7,40.580288,-3.544871,625.4,3,5,132.5,0.703
57.38,1,-0.005,-0.024,-0.014,-0.005,-0.013,0.002,-1.577,-0.012,0.013,56.69,87.7,40.580288,-3.544871,625.4,3,5,132.5,0.703
57.48,1,0.02,0.007,0.019,-0.001,-0.006,0.012,-1.575,-0.011,0.014,56.69,87.7,40.580288,-3.544871,625.4,3,5,132.5,0.703
57.58,1,0.02,-0.034,0.015,0.024,-0.018,0.013,-1.577,-0.009,0.016,56.69,87.7,40.580288,-3.544871,625.4,3,5,132.5,0.703
57.68,1,-0.021,-0.015,-0.009,0.005,-0.017,-0.002,-1.576,-0.01,0.018,56.69,87.7,40.580288,-3.544871,625.4,3,5,132.5,0.703
57.78,1,-0.038,-0.004,0.043,-0.025,-0.006,0.015,-1.58,-0.007,0.02,56.69,87.7,40.580288,-3.544871,625.4,3,5,132.5,0.703
57.88,1,0.003,-0.006,0.001,-0.014,-0.018,0.019,-1.584,-0.006,0.021,56.69,87.7,40.580288,-3.544871,625.4,3,5,132.5,0.703
57.98,1,-0.024,0.004,-0.003,-0.015,-0.0,0.005,-1.584,-0.007,0.023,56.69,87.7,40.580288,-3.544871,625.4,3,5,132.5,0.703
58.08,1,-0.005,-0.001,0.012,-0.012,0.001,0.004,-1.584,-0.005,0.025,57.67,86.9,40.580135,-3.544652,625.9,3,5,131.8,0.703
58.18,1,-0.008,-0.012,0.0,-0.004,-0.005,0.01,-1.587,-0.002,0.027,57.67,86.9,40.580135,-3.544652,625.9,3,5,131.8,0.703
58.28,1,-0.016,0.003,-0.002,-0.017,-0.008,-0.008,-1.59,-0.005,0.029,57.67,86.9,40.580135,-3.544652,625.9,3,5,131.8,0.703
58.38,1,0.005,0.024,-0.001,-0.008,0.008,0.001,-1.59,-0.005,0.031,57.67,86.9,40.580135,-3.544652,625.9,3,5,131.8,0.703
58.48,1,0.01,-0.005,0.003,0.007,0.004,0.008,-1.591,-0.005,0.033,57.67,86.9,40.580135,-3.544652,625.9,3,5,131.8,0.703
58.59,1,-0.04,-0.008,0.005,-0.01,-0.004,0.006,-1.592,-0.004,0.035,57.67,86.9,40.580135,-3.544652,625.9,3,5,131.8,0.703
58.68,1,-0.015,-0.019,0.02,-0.023,-0.005,0.01,-1.593,-0.003,0.037,57.67,86.9,40.580135,-3.544652,625.9,3,5,131.8,0.703
58.78,1,-0.012,-0.028,-0.001,-0.012,-0.018,0.004,-1.593,-0.002,0.039,57.67,86.9,40.580135,-3.544652,625.9,3,5,131.8,0.703
58.88,1,0.003,-0.017,-0.001,-0.013,-0.02,0.003,-1.598,-0.001,0.041,57.67,86.9,40.580135,-3.544652,625.9,3,5,131.8,0.703
58.98,1,-0.002,-0.018,-0.019,-0.002,-0.018,-0.004,-1.601,0.0,0.042,57.67,86.9,40.580135,-3.544652,625.9,3,5,131.8,0.703
59.08,1,-0.008,-0.009,-0.008,0.002,-0.014,-0.011,-1.604,0.003,0.044,58.72,86.2,40.579994,-3.544441,626.3,3,5,131.1,1.406
59.18,1,-0.014,0.006,-0.006,-0.021,-0.003,-0.015,-1.604,0.003,0.046,58.72,86.2,40.579994,-3.544441,626.3,3,5,131.1,1.406
59.3,1,-0.048,0.016,-0.011,-0.011,-0.001,-0.001,-1.606,0.004,0.048,58.72,86.2,40.579994,-3.544441,626.3,3,5,131.1,1.406
59.38,1,-0.036,-0.001,-0.01,-0.036,0.006,-0.015,-1.61,0.003,0.049,58.72,86.2,40.579994,-3.544441,626.3,3,5,131.1,1.406
59.48,1,-0.007,-0.014,-0.038,-0.024,0.001,-0.015,-1.612,0.003,0.051,58.72,86.2,40.579994,-3.544441,626.3,3,5,131.1,1.406
59.58,1,0.043,0.031,-0.002,0.005,0.006,-0.018,-1.609,0.004,0.052,58.72,86.2,40.579994,-3.544441,626.3,3,5,131.1,1.406
59.68,1,0.011,-0.002,-0.015,0.012,0.004,-0.018,-1.606,0.003,0.054,58.72,86.2,40.579994,-3.544441,626.3,3,5,131.1,1.406
59.79,1,-0.02,0.012,-0.021,-0.005,0.009,-0.018,-1.605,0.002,0.056,58.72,86.2,40.579994,-3.544441,626.3,3,5,131.1,1.406
59.88,1,0.003,-0.003,0.01,-0.002,0.01,-0.003,-1.607,0.001,0.057,58.72,86.2,40.579994,-3.544441,626.3,3,5,131.1,1.406
59.98,1,0.023,-0.002,0.014,0.012,-0.002,0.005,-1.608,-0.001,0.059,58.72,86.2,40.579994,-3.544441,626.3,3,5,131.1,1.406
60.08,1,-0.017,-0.002,-0.023,0.005,-0.003,-0.008,-1.611,-0.002,0.06,59.67,86.6,40.579849,-3.544231,626.6,3,5,130.1,1.758
60.18,1,0.001,-0.008,-0.043,-0.001,-0.003,-0.021,-1.611,-0.001,0.062,59.67,86.6,40.579849,-3.544231,626.6,3,5,130.1,1.758
60.29,1,-0.001,-0.025,-0.013,-0.005,-0.012,-0.027,-1.611,0.0,0.063,59.67,86.6,40.579849,-3.544231,626.6,3,5,130.1,1.758
60.38,1,-0.016,-0.001,-0.013,-0.008,-0.012,-0.011,-1.613,-0.0,0.065,59.67,86.6,40.579849,-3.544231,626.6,3,5,130.1,1.758
60.5,1,0.013,0.003,-0.016,-0.009,-0.004,-0.016,-1.615,-0.003,0.066,59.67,86.6,40.579849,-3.544231,626.6,3,5,130.1,1.758
60.59,1,0.033,0.013,-0.034,0.022,0.002,-0.027,-1.619,-0.0,0.068,59.67,86.6,40.579849,-3.544231,626.6,3,5,130.1,1.758
60.69,1,-0.037,0.006,-0.03,0.004,0.009,-0.022,-1.619,0.001,0.069,59.67,86.6,40.579849,-3.544231,626.6,3,5,130.1,1.758
60.79,1,-0.022,-0.007,-0.026,-0.021,0.003,-0.032,-1.617,0.003,0.071,59.67,86.6,40.579849,-3.544231,626.6,3,5,130.1,1.758
60.89,1,-0.023,-0.013,-0.022,-0.02,-0.014,-0.023,-1.617,0.003,0.072,59.67,86.6,40.579849,-3.544231,626.6,3,5,130.1,1.758
60.99,1,-0.004,0.021,-0.012,-0.012,0.003,-0.017,-1.617,0.002,0.073,59.67,86.6,40.579849,-3.544231,626.6,3,5,130.1,1.758
61.09,1,0.005,0.013,-0.017,-0.006,0.017,-0.017,-1.616,-0.0,0.074,60.68,87.6,40.5797,-3.544009,627.1,3,5,129.7,1.406
61.19,1,0.013,-0.01,-0.021,0.004,0.004,-0.025,-1.612,-0.001,0.076,60.68,87.6,40.5797,-3.544009,627.1,3,5,129.7,1.406
61.29,1,0.025,-0.036,-0.012,0.021,-0.016,-0.014,-1.612,-0.001,0.078,60.68,87.6,40.5797,-3.544009,627.1,3,5,129.7,1.406
61.39,1,-0.023,-0.007,0.001,0.001,-0.015,-0.008,-1.61,0.004,0.08,60.68,87.6,40.5797,-3.544009,627.1,3,5,129.7,1.406
61.49,1,-0.061,0.029,-0.034,-0.03,0.003,-0.011,-1.613,0.005,0.082,60.68,87.6,40.5797,-3.544009,627.1,3,5,129.7,1.406
61.59,1,-0.081,-0.007,0.005,-0.056,0.002,-0.015,-1.615,0.007,0.084,60.68,87.6,40.5797,-3.544009,627.1,3,5,129.7,1.406
61.7,1,-0.054,-0.017,-0.03,-0.068,-0.002,-0.014,-1.615,0.007,0.087,60.68,87.6,40.5797,-3.544009,627.1,3,5,129.7,1.406
61.79,1,0.002,-0.029,-0.002,-0.035,-0.019,-0.02,-1.613,0.007,0.089,60.68,87.6,40.5797,-3.544009,627.1,3,5,129.7,1.406
61.89,1,0.048,-0.007,0.008,0.006,-0.017,-0.0,-1.614,0.008,0.091,60.68,87.6,40.5797,-3.544009,627.1,3,5,129.7,1.406
61.99,1,-0.003,-0.005,-0.033,0.017,-0.01,-0.014,-1.607,0.008,0.093,60.68,87.6,40.5797,-3.544009,627.1,3,5,129.7,1.406
62.09,1,0.003,-0.019,0.015,0.003,-0.014,-0.007,-1.602,0.009,0.095,61.67,88.1,40.579567,-3.543781,627.5,3,5,129.0,1.055
62.19,1,-0.006,-0.014,0.016,0.004,-0.008,0.009,-1.601,0.011,0.097,61.67,88.1,40.579567,-3.543781,627.5,3,5,129.0,1.055
62.29,1,-0.004,0.009,-0.019,-0.002,-0.009,0.003,-1.601,0.012,0.099,61.67,88.1,40.579567,-3.543781,627.5,3,5,129.0,1.055
62.39,1,-0.002,0.034,-0.012,-0.008,0.012,-0.009,-1.601,0.012,0.1,61.67,88.1,40.579567,-3.543781,627.5,3,5,129.0,1.055
62.49,1,-0.006,-0.014,0.006,-0.003,0.008,-0.008,-1.602,0.012,0.102,61.67,88.1,40.579567,-3.543781,627.5,3,5,129.0,1.055
62.59,1,-0.072,0.022,0.005,-0.031,0.011,0.007,-1.603,0.012,0.103,61.67,88.1,40.579567,-3.543781,627.5,3,5,129.0,1.055
62.7,1,-0.068,0.003,0.002,-0.061,0.009,0.001,-1.604,0.01,0.104,61.67,88.1,40.579567,-3.543781,627.5,3,5,129.0,1.055
62.8,1,0.015,-0.011,-0.006,-0.036,-0.003,-0.0,-1.608,0.003,0.105,61.67,88.1,40.579567,-3.543781,627.5,3,5,129.0,1.055
62.89,1,0.021,0.016,-0.0,0.012,0.005,-0.001,-1.608,-0.001,0.106,61.67,88.1,40.579567,-3.543781,627.5,3,5,129.0,1.055
62.99,1,-0.009,-0.003,0.009,0.002,0.007,0.001,-1.61,0.001,0.107,61.67,88.1,40.579567,-3.543781,627.5,3,5,129.0,1.055
63.09,1,-0.004,0.019,-0.013,0.001,0.005,-0.001,-1.612,0.005,0.107,62.77,88.5,40.579422,-3.543556,628.0,3,5,128.0,1.758
63.19,1,-0.007,0.004,-0.006,-0.012,0.006,-0.006,-1.613,0.002,0.108,62.77,88.5,40.579422,-3.543556,628.0,3,5,128.0,1.758
63.29,1,-0.024,0.01,0.006,-0.012,0.01,-0.001,-1.609,-0.001,0.108,62.77,88.5,40.579422,-3.543556,628.0,3,5,128.0,1.758
63.4,1,-0.016,-0.031,-0.016,-0.01,-0.008,-0.006,-1.611,-0.001,0.109,62.77,88.5,40.579422,-3.543556,628.0,3,5,128.0,1.758
63.5,1,-0.024,-0.008,-0.025,-0.023,-0.014,-0.021,-1.612,-0.001,0.11,62.77,88.5,40.579422,-3.543556,628.0,3,5,128.0,1.758
63.59,1,-0.047,0.022,0.004,-0.03,0.005,-0.008,-1.611,-0.002,0.111,62.77,88.5,40.579422,-3.543556,628.0,3,5,128.0,1.758
63.7,1,-0.025,0.009,0.002,-0.037,0.012,-0.001,-1.612,-0.002,0.111,62.77,88.5,40.579422,-3.543556,628.0,3,5,128.0,1.758
63.79,1,-0.084,0.038,-0.013,-0.053,0.014,-0.011,-1.611,-0.004,0.112,62.77,88.5,40.579422,-3.543556,628.0,3,5,128.0,1.758
63.9,1,0.032,-0.003,0.019,-0.021,0.015,0.001,-1.609,-0.004,0.113,62.77,88.5,40.579422,-3.543556,628.0,3,5,128.0,1.758
64.0,1,-0.031,0.01,-0.017,-0.012,0.017,0.002,-1.605,0.0,0.114,62.77,88.5,40.579422,-3.543556,628.0,3,5,128.0,1.758
64.1,1,0.004,0.003,0.005,-0.014,0.004,-0.002,-1.606,0.0,0.114,63.68,89.4,40.579288,-3.543321,628.2,3,5,127.3,1.758
64.2,1,0.016,0.002,0.003,0.002,-0.001,0.003,-1.605,-0.001,0.115,63.68,89.4,40.579288,-3.543321,628.2,3,5,127.3,1.758
64.3,1,0.01,0.016,0.01,0.007,0.015,0.007,-1.605,-0.001,0.115,63.68,89.4,40.579288,-3.543321,628.2,3,5,127.3,1.758
64.4,1,-0.018,0.008,-0.003,0.003,0.009,0.004,-1.603,0.002,0.116,63.68,89.4,40.579288,-3.543321,628.2,3,5,127.3,1.758
64.5,1,-0.016,0.017,-0.017,-0.013,0.008,-0.005,-1.602,0.008,0.117,63.68,89.4,40.579288,-3.543321,628.2,3,5,127.3,1.758
64.6,1,0.006,0.027,-0.025,-0.007,0.014,-0.018,-1.604,0.008,0.118,63.68,89.4,40.579288,-3.543321,628.2,3,5,127.3,1.758
64.7,1,-0.039,0.015,0.02,-0.007,0.022,-0.0,-1.608,0.009,0.118,63.68,89.4,40.579288,-3.543321,628.2,3,5,127.3,1.758
64.8,1,-0.014,0.022,-0.052,-0.025,0.025,-0.018,-1.608,0.008,0.119,63.68,89.4,40.579288,-3.543321,628.2,3,5,127.3,1.758
64.9,1,-0.022,-0.017,-0.05,-0.027,0.006,-0.042,-1.608,0.009,0.12,63.68,89.4,40.579288,-3.543321,628.2,3,5,127.3,1.758
65.0,1,-0.015,0.012,-0.023,-0.013,0.005,-0.033,-1.603,0.008,0.121,63.68,89.4,40.579288,-3.543321,628.2,3,5,127.3,1.758
65.1,1,-0.005,-0.017,-0.002,-0.01,-0.005,-0.021,-1.6,0.013,0.122,64.7,90.5,40.579151,-3.543079,628.6,3,5,126.9,1.055
65.2,1,-0.029,0.018,-0.003,-0.018,0.001,-0.012,-1.599,0.01,0.123,64.7,90.5,40.579151,-3.543079,628.6,3,5,126.9,1.055
65.3,1,-0.002,-0.003,-0.026,-0.014,0.005,-0.012,-1.595,0.01,0.124,64.7,90.5,40.579151,-3.543079,628.6,3,5,126.9,1.055
65.4,1,-0.014,0.01,-0.015,-0.013,0.01,-0.014,-1.594,0.011,0.126,64.7,90.5,40.579151,-3.543079,628.6,3,5,126.9,1.055
65.5,1,-0.002,-0.006,-0.034,-0.016,-0.002,-0.024,-1.595,0.009,0.127,64.7,90.5,40.579151,-3.543079,628.6,3,5,126.9,1.055
65.6,1,0.028,0.006,-0.032,0.011,-0.002,-0.03,-1.591,0.009,0.128,64.7,90.5,40.579151,-3.543079,628.6,3,5,126.9,1.055
65.7,1,-0.058,0.007,-0.007,-0.011,0.006,-0.02,-1.59,0.008,0.13,64.7,90.5,40.579151,-3.543079,628.6,3,5,126.9,1.055
65.81,1,-0.037,-0.01,-0.035,-0.033,-0.0,-0.02,-1.586,0.009,0.131,64.7,90.5,40.579151,-3.543079,628.6,3,5,126.9,1.055
65.9,1,0.014,-0.018,-0.039,-0.016,-0.011,-0.036,-1.585,0.007,0.133,64.7,90.5,40.579151,-3.543079,628.6,3,5,126.9,1.055
66.0,1,0.007,-0.038,-0.001,0.006,-0.021,-0.02,-1.579,0.008,0.134,64.7,90.5,40.579151,-3.543079,628.6,3,5,126.9,1.055
66.1,1,-0.001,-0.003,-0.022,0.002,-0.017,-0.015,-1.576,0.007,0.135,65.72,90.4,40.579021,-3.542838,628.7,3,5,126.2,1.055
66.2,1,0.011,-0.027,0.004,-0.005,-0.015,-0.012,-1.577,0.006,0.136,65.72,90.4,40.579021,-3.542838,628.7,3,5,126.2,1.055
66.3,1,0.016,0.0,0.022,0.011,-0.014,0.005,-1.578,0.004,0.138,65.72,90.4,40.579021,-3.542838,628.7,3,5,126.2,1.055
66.4,1,0.019,-0.009,-0.004,0.014,-0.008,0.005,-1.575,0.006,0.139,65.72,90.4,40.579021,-3.542838,628.7,3,5,126.2,1.055
66.5,1,0.017,-0.021,-0.008,0.016,-0.014,-0.004,-1.574,0.005,0.14,65.72,90.4,40.579021,-3.542838,628.7,3,5,126.2,1.055
66.6,1,-0.003,0.005,-0.006,0.011,-0.013,-0.0,-1.577,0.006,0.142,65.72,90.4,40.579021,-3.542838,628.7,3,5,126.2,1.055
66.7,1,-0.004,0.021,-0.027,0.0,0.006,-0.018,-1.575,0.007,0.143,65.72,90.4,40.579021,-3.542838,628.7,3,5,126.2,1.055
66.9,1,0.046,-0.003,-0.015,0.024,-0.003,-0.021,-1.576,0.008,0.146,65.72,90.4,40.579021,-3.542838,628.7,3,5,126.2,1.055
67.01,1,-0.062,0.001,-0.055,-0.003,-0.002,-0.035,-1.577,0.008,0.147,65.72,90.4,40.579021,-3.542838,628.7,3,5,126.2,1.055
67.1,1,-0.024,-0.029,0.001,-0.017,-0.012,-0.022,-1.577,0.006,0.148,65.72,90.4,40.579021,-3.542838,628.7,3,5,126.2,1.055
67.21,1,-0.001,-0.018,-0.01,-0.017,-0.021,-0.013,-1.578,0.006,0.149,66.74,90.4,40.578888,-3.542594,629.0,3,5,125.5,1.406
67.3,1,-0.031,-0.048,-0.022,-0.021,-0.03,-0.02,-1.575,0.004,0.151,66.74,90.4,40.578888,-3.542594,629.0,3,5,125.5,1.406
67.4,1,-0.025,-0.015,-0.011,-0.027,-0.023,-0.015,-1.572,-0.002,0.153,66.74,90.4,40.578888,-3.542594,629.0,3,5,125.5,1.406
67.51,1,-0.019,-0.044,-0.028,-0.023,-0.036,-0.017,-1.573,-0.002,0.154,66.74,90.4,40.578888,-3.542594,629.0,3,5,125.5,1.406
67.61,1,-0.017,-0.02,-0.008,-0.022,-0.026,-0.018,-1.573,-0.002,0.155,66.74,90.4,40.578888,-3.542594,629.0,3,5,125.5,1.406
67.71,1,-0.018,-0.019,-0.024,-0.015,-0.027,-0.016,-1.568,-0.002,0.157,66.74,90.4,40.578888,-3.542594,629.0,3,5,125.5,1.406
67.81,1,-0.036,-0.032,-0.008,-0.019,-0.029,-0.016,-1.563,-0.001,0.158,66.74,90.4,40.578888,-3.542594,629.0,3,5,125.5,1.406
67.91,1,-0.049,-0.001,-0.013,-0.035,-0.018,-0.019,-1.563,-0.0,0.159,66.74,90.4,40.578888,-3.542594,629.0,3,5,125.5,1.406
68.01,1,-0.054,-0.022,0.0,-0.058,-0.012,-0.004,-1.563,0.0,0.161,66.74,90.4,40.578888,-3.542594,629.0,3,5,125.5,1.406
68.11,1,0.021,-0.01,0.007,-0.025,-0.013,-0.001,-1.562,0.001,0.162,66.74,90.4,40.578888,-3.542594,629.0,3,5,125.5,1.406
68.22,1,0.001,-0.006,-0.001,0.002,-0.012,0.001,-1.56,0.001,0.163,67.69,89.7,40.578766,-3.542354,629.2,3,5,124.8,1.406
68.31,1,0.017,-0.008,0.006,0.004,-0.008,0.005,-1.561,0.001,0.164,67.69,89.7,40.578766,-3.542354,629.2,3,5,124.8,1.406
68.42,1,0.036,-0.014,0.021,0.022,-0.01,0.011,-1.565,0.002,0.165,67.69,89.7,40.578766,-3.542354,629.2,3,5,124.8,1.406
68.51,1,-0.03,-0.02,-0.015,0.009,-0.014,0.0,-1.565,0.003,0.166,67.69,89.7,40.578766,-3.542354,629.2,3,5,124.8,1.406
68.61,1,-0.011,-0.005,0.006,-0.012,-0.014,0.001,-1.565,0.004,0.167,67.69,89.7,40.578766,-3.542354,629.2,3,5,124.8,1.406
68.71,1,-0.004,-0.031,0.015,-0.006,-0.019,0.006,-1.567,-0.0,0.168,67.69,89.7,40.578766,-3.542354,629.2,3,5,124.8,1.406
68.81,1,-0.032,-0.025,-0.009,-0.02,-0.023,-0.0,-1.57,-0.001,0.168,67.69,89.7,40.578766,-3.542354,629.2,3,5,124.8,1.406
68.92,1,-0.01,0.004,0.01,-0.018,-0.011,0.01,-1.568,-0.003,0.169,67.69,89.7,40.578766,-3.542354,629.2,3,5,124.8,1.406
69.02,1,-0.02,0.002,-0.021,-0.016,-0.002,-0.01,-1.569,-0.005,0.169,67.69,89.7,40.578766,-3.542354,629.2,3,5,124.8,1.406
69.12,1,-0.008,0.003,0.013,-0.014,-0.003,-0.004,-1.569,-0.006,0.169,67.69,89.7,40.578766,-3.542354,629.2,3,5,124.8,1.406
69.22,1,-0.025,0.001,0.017,-0.015,0.002,0.016,-1.572,-0.008,0.169,68.68,89.5,40.57864,-3.542111,629.4,3,5,123.8,1.758
69.31,1,0.01,0.001,0.004,-0.008,0.001,0.004,-1.573,-0.008,0.169,68.68,89.5,40.57864,-3.542111,629.4,3,5,123.8,1.758
69.41,1,0.016,0.001,-0.02,0.009,-0.002,-0.0,-1.575,-0.011,0.168,68.68,89.5,40.57864,-3.542111,629.4,3,5,123.8,1.758
69.51,1,-0.013,-0.017,-0.013,-0.004,-0.003,-0.011,-1.576,-0.012,0.168,68.68,89.5,40.57864,-3.542111,629.4,3,5,123.8,1.758
69.62,1,0.008,0.017,0.011,0.001,0.003,-0.002,-1.577,-0.012,0.168,68.68,89.5,40.57864,-3.542111,629.4,3,5,123.8,1.758
69.71,1,-0.032,0.018,0.03,-0.008,0.009,0.014,-1.577,-0.011,0.168,68.68,89.5,40.57864,-3.542111,629.4,3,5,123.8,1.758
69.82,1,-0.036,0.035,-0.002,-0.026,0.025,0.007,-1.578,-0.009,0.168,68.68,89.5,40.57864,-3.542111,629.4,3,5,123.8,1.758
69.92,1,-0.014,0.028,-0.028,-0.031,0.026,-0.014,-1.576,-0.012,0.168,68.68,89.5,40.57864,-3.542111,629.4,3,5,123.8,1.758
70.02,1,-0.032,0.013,0.009,-0.021,0.019,0.002,-1.576,-0.013,0.167,68.68,89.5,40.57864,-3.542111,629.4,3,5,123.8,1.758
70.12,1,-0.075,0.02,-0.018,-0.05,0.02,-0.012,-1.575,-0.013,0.167,68.68,89.5,40.57864,-3.542111,629.4,3,5,123.8,1.758
70.21,1,-0.002,0.025,-0.001,-0.031,0.02,-0.006,-1.578,-0.013,0.167,69.68,89.9,40.578518,-3.541865,629.5,3,5,123.4,1.406
70.31,1,0.001,-0.002,-0.011,-0.01,0.013,-0.003,-1.579,-0.012,0.167,69.68,89.9,40.578518,-3.541865,629.5,3,5,123.4,1.406
70.42,1,0.001,0.007,-0.004,-0.005,0.01,-0.009,-1.578,-0.011,0.167,69.68,89.9,40.578518,-3.541865,629.5,3,5,123.4,1.406
70.51,1,-0.014,0.003,-0.024,-0.003,0.004,-0.01,-1.577,-0.01,0.167,69.68,89.9,40.578518,-3.541865,629.5,3,5,123.4,1.406
70.62,1,0.023,0.007,-0.011,0.005,0.013,-0.014,-1.579,-0.011,0.167,69.68,89.9,40.578518,-3.541865,629.5,3,5,123.4,1.406
70.71,1,-0.051,0.002,-0.029,-0.016,0.002,-0.019,-1.578,-0.013,0.167,69.68,89.9,40.578518,-3.541865,629.5,3,5,123.4,1.406
70.82,1,-0.003,-0.004,-0.009,-0.024,0.002,-0.021,-1.578,-0.012,0.168,69.68,89.9,40.578518,-3.541865,629.5,3,5,123.4,1.406
70.92,1,0.045,-0.008,-0.015,0.014,-0.006,-0.015,-1.575,-0.014,0.168,69.68,89.9,40.578518,-3.541865,629.5,3,5,123.4,1.406
71.02,1,-0.001,-0.003,0.001,0.019,-0.004,-0.005,-1.572,-0.015,0.169,69.68,89.9,40.578518,-3.541865,629.5,3,5,123.4,1.406
71.12,1,-0.03,-0.025,-0.016,-0.009,-0.018,-0.009,-1.572,-0.011,0.17,69.68,89.9,40.578518,-3.541865,629.5,3,5,123.4,1.406
71.22,1,-0.01,-0.053,-0.005,-0.015,-0.035,-0.007,-1.573,-0.008,0.17,70.68,88.9,40.578396,-3.541621,629.6,3,5,122.7,1.055
71.32,1,-0.051,0.004,-0.007,-0.022,-0.023,-0.009,-1.574,-0.009,0.171,70.68,88.9,40.578396,-3.541621,629.6,3,5,122.7,1.055
71.42,1,-0.021,-0.014,-0.0,-0.038,-0.007,-0.006,-1.573,-0.011,0.172,70.68,88.9,40.578396,-3.541621,629.6,3,5,122.7,1.055
71.53,1,0.03,0.006,0.007,-0.008,-0.005,0.001,-1.569,-0.004,0.172,70.68,88.9,40.578396,-3.541621,629.6,3,5,122.7,1.055
71.62,1,-0.024,0.014,-0.014,0.0,0.007,-0.008,-1.566,-0.002,0.172,70.68,88.9,40.578396,-3.541621,629.6,3,5,122.7,1.055
71.72,1,-0.009,-0.024,-0.004,-0.016,-0.002,-0.007,-1.565,-0.004,0.173,70.68,88.9,40.578396,-3.541621,629.6,3,5,122.7,1.055
71.82,1,0.013,-0.023,0.004,0.003,-0.02,-0.001,-1.569,-0.004,0.174,70.68,88.9,40.578396,-3.541621,629.6,3,5,122.7,1.055
71.92,1,-0.032,-0.022,0.019,-0.01,-0.026,0.008,-1.573,-0.003,0.175,70.68,88.9,40.578396,-3.541621,629.6,3,5,122.7,1.055
72.02,1,-0.022,-0.012,-0.003,-0.024,-0.013,0.009,-1.574,-0.002,0.176,70.68,88.9,40.578396,-3.541621,629.6,3,5,122.7,1.055
72.12,1,0.027,-0.023,0.014,-0.002,-0.02,0.006,-1.578,-0.0,0.177,70.68,88.9,40.578396,-3.541621,629.6,3,5,122.7,1.055
72.22,1,-0.022,0.002,-0.007,0.004,-0.011,0.004,-1.58,0.004,0.178,71.72,89.0,40.578278,-3.541372,630.0,3,5,122.3,1.055
72.32,1,-0.039,0.02,0.006,-0.029,0.006,0.003,-1.583,0.003,0.179,71.72,89.0,40.578278,-3.541372,630.0,3,5,122.3,1.055
72.42,1,0.024,-0.019,0.026,-0.004,-0.003,0.012,-1.583,0.003,0.18,71.72,89.0,40.578278,-3.541372,630.0,3,5,122.3,1.055
72.53,1,0.042,0.002,0.005,0.024,-0.004,0.013,-1.58,0.003,0.181,71.72,89.0,40.578278,-3.541372,630.0,3,5,122.3,1.055
72.62,1,0.012,-0.0,-0.009,0.012,0.003,0.006,-1.581,0.005,0.182,71.72,89.0,40.578278,-3.541372,630.0,3,5,122.3,1.055
72.73,1,-0.01,-0.021,0.022,0.008,-0.009,0.007,-1.583,0.002,0.183,71.72,89.0,40.578278,-3.541372,630.0,3,5,122.3,1.055
72.82,1,-0.023,0.011,0.003,-0.01,-0.004,0.004,-1.584,0.003,0.184,71.72,89.0,40.578278,-3.541372,630.0,3,5,122.3,1.055
72.92,1,0.001,-0.002,0.007,-0.008,-0.003,0.007,-1.585,0.007,0.185,71.72,89.0,40.578278,-3.541372,630.0,3,5,122.3,1.055
73.02,1,-0.015,0.001,-0.024,-0.015,-0.002,-0.011,-1.584,0.008,0.186,71.72,89.0,40.578278,-3.541372,630.0,3,5,122.3,1.055
73.13,1,-0.048,0.011,0.001,-0.022,0.008,-0.006,-1.585,0.006,0.186,71.72,89.0,40.578278,-3.541372,630.0,3,5,122.3,1.055
73.23,1,-0.045,0.006,0.005,-0.037,0.003,0.005,-1.586,0.005,0.187,72.7,87.7,40.578186,-3.541142,630.2,3,5,121.3,1.406
73.32,1,-0.017,-0.024,-0.003,-0.031,-0.006,0.002,-1.588,0.005,0.187,72.7,87.7,40.578186,-3.541142,630.2,3,5,121.3,1.406
73.42,1,-0.045,-0.0,-0.008,-0.032,-0.008,-0.003,-1.588,0.002,0.188,72.7,87.7,40.578186,-3.541142,630.2,3,5,121.3,1.406
73.52,1,-0.044,0.016,0.005,-0.038,0.006,-0.004,-1.589,0.003,0.188,72.7,87.7,40.578186,-3.541142,630.2,3,5,121.3,1.406
73.62,1,0.024,-0.018,0.011,-0.013,-0.003,0.004,-1.59,0.005,0.189,72.7,87.7,40.578186,-3.541142,630.2,3,5,121.3,1.406
73.72,1,0.004,0.017,0.01,-0.0,0.01,0.013,-1.591,0.002,0.189,72.7,87.7,40.578186,-3.541142,630.2,3,5,121.3,1.406
73.82,1,0.003,0.01,0.013,0.0,0.005,0.009,-1.592,0.002,0.189,72.7,87.7,40.578186,-3.541142,630.2,3,5,121.3,1.406
73.94,1,-0.009,-0.005,0.012,-0.002,0.0,0.01,-1.593,0.001,0.19,72.7,87.7,40.578186,-3.541142,630.2,3,5,121.3,1.406
74.02,1,-0.004,0.005,-0.011,-0.007,-0.001,0.007,-1.596,0.002,0.19,72.7,87.7,40.578186,-3.541142,630.2,3,5,121.3,1.406
74.12,1,0.009,-0.006,-0.0,0.003,-0.001,-0.002,-1.597,0.001,0.191,72.7,87.7,40.578186,-3.541142,630.2,3,5,121.3,1.406
74.22,1,-0.018,0.004,0.001,-0.003,0.002,-0.001,-1.598,-0.001,0.191,73.68,88.1,40.578094,-3.54091,630.6,4,5,120.2,2.109
74.33,1,-0.014,-0.006,0.028,-0.016,-0.001,0.007,-1.598,-0.0,0.191,73.68,88.1,40.578094,-3.54091,630.6,4,5,120.2,2.109
74.43,1,0.027,0.028,0.013,0.003,0.003,0.018,-1.597,-0.002,0.191,73.68,88.1,40.578094,-3.54091,630.6,4,5,120.2,2.109
74.53,1,-0.006,0.01,0.002,0.002,0.02,0.011,-1.599,-0.005,0.191,73.68,88.1,40.578094,-3.54091,630.6,4,5,120.2,2.109
74.63,1,-0.021,-0.007,-0.003,-0.006,0.004,0.001,-1.599,-0.004,0.192,73.68,88.1,40.578094,-3.54091,630.6,4,5,120.2,2.109
74.74,1,-0.014,0.007,0.004,-0.009,-0.003,0.003,-1.599,-0.004,0.192,73.68,88.1,40.578094,-3.54091,630.6,4,5,120.2,2.109
74.83,1,-0.026,0.018,0.004,-0.016,0.018,0.005,-1.598,-0.005,0.192,73.68,88.1,40.578094,-3.54091,630.6,4,5,120.2,2.109
74.93,1,-0.014,-0.018,0.024,-0.021,-0.0,0.014,-1.602,-0.005,0.193,73.68,88.1,40.578094,-3.54091,630.6,4,5,120.2,2.109
75.03,1,-0.001,-0.023,0.028,-0.009,-0.014,0.016,-1.603,-0.004,0.194,73.68,88.1,40.578094,-3.54091,630.6,4,5,120.2,2.109
75.13,1,-0.016,0.018,-0.016,-0.01,-0.004,0.01,-1.602,-0.002,0.194,73.68,88.1,40.578094,-3.54091,630.6,4,5,120.2,2.109
75.23,1,-0.029,0.013,-0.011,-0.026,0.01,-0.006,-1.599,0.001,0.194,74.68,88.7,40.577972,-3.540652,630.6,4,5,119.9,1.406
75.33,1,-0.017,-0.027,-0.014,-0.015,-0.006,-0.011,-1.597,0.003,0.194,74.68,88.7,40.577972,-3.540652,630.6,4,5,119.9,1.406
75.43,1,0.005,0.026,0.036,-0.005,0.002,0.01,-1.599,0.005,0.195,74.68,88.7,40.577972,-3.540652,630.6,4,5,119.9,1.406
75.53,1,0.009,-0.017,0.008,0.005,-0.003,0.014,-1.603,0.006,0.195,74.68,88.7,40.577972,-3.540652,630.6,4,5,119.9,1.406
75.63,1,0.029,-0.014,0.032,0.008,-0.006,0.017,-1.604,0.008,0.196,74.68,88.7,40.577972,-3.540652,630.6,4,5,119.9,1.406
75.73,1,-0.004,0.024,0.021,0.01,0.006,0.024,-1.607,0.009,0.196,74.68,88.7,40.577972,-3.540652,630.6,4,5,119.9,1.406
75.83,1,-0.025,-0.0,-0.029,-0.009,0.01,0.001,-1.608,0.01,0.197,74.68,88.7,40.577972,-3.540652,630.6,4,5,119.9,1.406
75.93,1,-0.014,0.01,0.025,-0.021,0.006,0.002,-1.61,0.011,0.197,74.68,88.7,40.577972,-3.540652,630.6,4,5,119.9,1.406
76.03,1,-0.025,0.017,-0.021,-0.017,0.008,-0.001,-1.612,0.01,0.198,74.68,88.7,40.577972,-3.540652,630.6,4,5,119.9,1.406
76.13,1,0.003,-0.013,0.012,-0.01,0.005,0.003,-1.611,0.01,0.198,74.68,88.7,40.577972,-3.540652,630.6,4,5,119.9,1.406
76.3,1,-0.03,0.018,-0.049,-0.007,0.009,-0.011,-1.608,0.01,0.198,75.68,89.4,40.577854,-3.540395,630.9,4,5,119.2,1.055
76.33,1,-0.058,0.008,-0.049,-0.037,0.001,-0.051,-1.607,0.01,0.199,75.68,89.4,40.577854,-3.540395,630.9,4,5,119.2,1.055
76.43,1,-0.017,-0.004,-0.039,-0.036,0.004,-0.044,-1.609,0.012,0.199,75.68,89.4,40.577854,-3.540395,630.9,4,5,119.2,1.055
76.53,1,0.004,0.004,0.008,-0.013,0.003,-0.011,-1.609,0.013,0.199,75.68,89.4,40.577854,-3.540395,630.9,4,5,119.2,1.055
76.63,1,-0.028,0.007,-0.002,-0.016,0.003,-0.007,-1.609,0.013,0.2,75.68,89.4,40.577854,-3.540395,630.9,4,5,119.2,1.055
76.73,1,0.013,-0.017,0.011,-0.01,-0.003,0.001,-1.609,0.009,0.2,75.68,89.4,40.577854,-3.540395,630.9,4,5,119.2,1.055
76.94,1,-0.018,0.043,0.001,-0.006,0.003,-0.014,-1.612,0.006,0.2,75.68,89.4,40.577854,-3.540395,630.9,4,5,119.2,1.055
77.04,1,-0.043,-0.022,0.006,-0.02,-0.001,-0.0,-1.613,0.006,0.201,75.68,89.4,40.577854,-3.540395,630.9,4,5,119.2,1.055
77.13,1,-0.014,0.025,-0.028,-0.021,0.006,-0.014,-1.613,0.005,0.201,75.68,89.4,40.577854,-3.540395,630.9,4,5,119.2,1.055
77.23,1,0.018,0.006,-0.008,-0.013,0.013,-0.016,-1.612,0.0,0.202,75.68,89.4,40.577854,-3.540395,630.9,4,5,119.2,1.055
77.33,1,0.016,0.004,-0.007,0.01,0.007,-0.007,-1.613,-0.0,0.202,76.68,90.8,40.57774,-3.540136,631.0,3,5,118.5,1.406
77.43,1,-0.029,-0.009,-0.015,0.002,-0.002,-0.015,-1.612,0.001,0.203,76.68,90.8,40.57774,-3.540136,631.0,3,5,118.5,1.406
77.54,1,-0.046,0.014,-0.008,-0.03,0.004,-0.008,-1.614,0.002,0.203,76.68,90.8,40.57774,-3.540136,631.0,3,5,118.5,1.406
77.63,1,-0.003,-0.011,-0.002,-0.025,-0.003,-0.005,-1.613,0.002,0.204,76.68,90.8,40.57774,-3.540136,631.0,3,5,118.5,1.406
77.74,1,-0.011,0.021,-0.019,-0.011,0.006,-0.01,-1.615,0.003,0.204,76.68,90.8,40.57774,-3.540136,631.0,3,5,118.5,1.406
77.84,1,-0.008,0.002,-0.029,-0.014,0.009,-0.023,-1.616,0.008,0.205,76.68,90.8,40.57774,-3.540136,631.0,3,5,118.5,1.406
77.94,1,-0.007,-0.005,-0.038,-0.01,0.001,-0.031,-1.616,0.011,0.206,76.68,90.8,40.57774,-3.540136,631.0,3,5,118.5,1.406
78.05,1,0.008,-0.013,-0.021,0.0,-0.009,-0.023,-1.613,0.013,0.206,76.68,90.8,40.57774,-3.540136,631.0,3,5,118.5,1.406
78.14,1,0.001,0.011,-0.012,-0.001,0.006,-0.022,-1.608,0.012,0.207,76.68,90.8,40.57774,-3.540136,631.0,3,5,118.5,1.406
78.25,1,-0.038,-0.024,-0.009,-0.006,-0.009,-0.013,-1.608,0.012,0.207,76.68,90.8,40.57774,-3.540136,631.0,3,5,118.5,1.406
78.34,1,-0.063,0.008,-0.005,-0.044,-0.009,-0.008,-1.608,0.014,0.208,77.68,91.4,40.577637,-3.539885,630.9,3,5,117.4,1.758
78.44,1,0.012,-0.003,0.01,-0.024,-0.001,-0.0,-1.609,0.014,0.208,77.68,91.4,40.577637,-3.539885,630.9,3,5,117.4,1.758
78.54,1,0.018,0.042,-0.019,0.004,0.015,-0.005,-1.608,0.013,0.208,77.68,91.4,40.577637,-3.539885,630.9,3,5,117.4,1.758
78.64,1,-0.023,0.008,-0.026,-0.009,0.017,-0.016,-1.606,0.008,0.208,77.68,91.4,40.577637,-3.539885,630.9,3,5,117.4,1.758
78.74,1,0.024,-0.027,0.009,-0.002,0.004,-0.009,-1.608,0.009,0.208,77.68,91.4,40.577637,-3.539885,630.9,3,5,117.4,1.758
78.85,1,-0.017,-0.024,-0.011,0.014,-0.018,-0.006,-1.609,0.007,0.209,77.68,91.4,40.577637,-3.539885,630.9,3,5,117.4,1.758
78.95,1,-0.056,0.015,-0.018,-0.037,-0.009,-0.013,-1.61,0.005,0.209,77.68,91.4,40.577637,-3.539885,630.9,3,5,117.4,1.758
79.04,1,0.014,0.022,-0.01,-0.021,0.008,-0.014,-1.612,0.003,0.208,77.68,91.4,40.577637,-3.539885,630.9,3,5,117.4,1.758
79.14,1,-0.052,0.04,-0.011,-0.021,0.027,-0.012,-1.612,0.004,0.209,77.68,91.4,40.577637,-3.539885,630.9,3,5,117.4,1.758
79.24,1,-0.016,0.017,-0.006,-0.036,0.031,-0.008,-1.612,0.005,0.209,77.68,91.4,40.577637,-3.539885,630.9,3,5,117.4,1.758
79.34,1,0.058,0.008,-0.007,0.011,0.018,-0.009,-1.612,0.005,0.209,78.74,92.3,40.57753,-3.539624,631.7,3,5,117.1,1.406
79.44,1,-0.024,0.019,0.005,0.016,0.015,0.003,-1.612,-0.0,0.208,78.74,92.3,40.57753,-3.539624,631.7,3,5,117.1,1.406
79.54,1,-0.033,0.019,-0.006,-0.011,0.016,0.0,-1.613,-0.002,0.208,78.74,92.3,40.57753,-3.539624,631.7,3,5,117.1,1.406
79.64,1,-0.054,0.023,-0.018,-0.038,0.018,-0.011,-1.613,-0.003,0.208,78.74,92.3,40.57753,-3.539624,631.7,3,5,117.1,1.406
79.74,1,-0.007,0.0,0.006,-0.033,0.011,-0.003,-1.614,-0.002,0.208,78.74,92.3,40.57753,-3.539624,631.7,3,5,117.1,1.406
79.84,1,-0.011,0.01,0.003,-0.014,0.012,-0.001,-1.615,-0.002,0.207,78.74,92.3,40.57753,-3.539624,631.7,3,5,117.1,1.406
79.94,1,0.026,0.018,-0.02,-0.003,0.013,-0.007,-1.612,-0.002,0.206,78.74,92.3,40.57753,-3.539624,631.7,3,5,117.1,1.406
80.04,1,-0.019,-0.002,-0.042,0.005,0.009,-0.024,-1.609,-0.003,0.206,78.74,92.3,40.57753,-3.539624,631.7,3,5,117.1,1.406
80.14,1,-0.029,-0.004,0.003,-0.017,-0.0,-0.016,-1.609,-0.003,0.205,78.74,92.3,40.57753,-3.539624,631.7,3,5,117.1,1.406
80.24,1,-0.012,0.008,0.008,-0.02,0.003,-0.005,-1.61,-0.002,0.204,78.74,92.3,40.57753,-3.539624,631.7,3,5,117.1,1.406
80.34,1,-0.05,0.014,-0.002,-0.03,0.008,-0.002,-1.61,-0.002,0.204,79.73,93.5,40.577431,-3.539347,633.4,3,5,116.4,1.055
80.45,1,-0.012,-0.013,0.01,-0.024,-0.002,0.007,-1.611,-0.001,0.203,79.73,93.5,40.577431,-3.539347,633.4,3,5,116.4,1.055
80.54,1,0.008,0.021,-0.004,-0.005,0.004,-0.0,-1.609,-0.002,0.202,79.73,93.5,40.577431,-3.539347,633.4,3,5,116.4,1.055
80.65,1,-0.011,0.023,-0.012,-0.005,0.012,-0.003,-1.605,-0.008,0.202,79.73,93.5,40.577431,-3.539347,633.4,3,5,116.4,1.055
80.74,1,-0.037,0.009,-0.032,-0.025,0.019,-0.021,-1.602,-0.011,0.201,79.73,93.5,40.577431,-3.539347,633.4,3,5,116.4,1.055
80.84,1,0.012,0.005,-0.001,-0.016,0.011,-0.015,-1.604,-0.01,0.201,79.73,93.5,40.577431,-3.539347,633.4,3,5,116.4,1.055
80.94,1,0.008,-0.01,-0.01,0.009,0.0,-0.008,-1.608,-0.005,0.2,79.73,93.5,40.577431,-3.539347,633.4,3,5,116.4,1.055
81.04,1,0.016,-0.04,0.006,0.011,-0.019,0.002,-1.607,-0.001,0.2,79.73,93.5,40.577431,-3.539347,633.4,3,5,116.4,1.055
81.15,1,0.013,-0.015,-0.013,0.004,-0.02,-0.009,-1.606,0.001,0.2,79.73,93.5,40.577431,-3.539347,633.4,3,5,116.4,1.055
81.25,1,0.042,-0.02,0.004,0.028,-0.019,-0.003,-1.605,0.001,0.2,79.73,93.5,40.577431,-3.539347,633.4,3,5,116.4,1.055
81.36,1,0.009,-0.018,0.013,0.029,-0.02,0.006,-1.601,0.002,0.2,80.72,93.8,40.57732,-3.539065,631.9,3,5,115.7,1.406
81.45,1,-0.035,-0.026,-0.022,-0.008,-0.016,-0.009,-1.599,0.002,0.201,80.72,93.8,40.57732,-3.539065,631.9,3,5,115.7,1.406
81.55,1,-0.005,-0.034,-0.011,-0.013,-0.031,-0.014,-1.599,0.002,0.201,80.72,93.8,40.57732,-3.539065,631.9,3,5,115.7,1.406
81.65,1,-0.023,-0.01,0.003,-0.017,-0.022,-0.006,-1.6,0.001,0.202,80.72,93.8,40.57732,-3.539065,631.9,3,5,115.7,1.406
81.75,1,-0.018,-0.005,0.029,-0.024,-0.018,0.011,-1.604,0.002,0.202,80.72,93.8,40.57732,-3.539065,631.9,3,5,115.7,1.406
81.85,1,0.034,-0.043,0.032,0.005,-0.022,0.028,-1.605,0.003,0.202,80.72,93.8,40.57732,-3.539065,631.9,3,5,115.7,1.406
81.95,1,-0.001,-0.017,-0.027,0.011,-0.028,0.004,-1.605,0.005,0.203,80.72,93.8,40.57732,-3.539065,631.9,3,5,115.7,1.406
82.05,1,-0.043,-0.025,-0.066,-0.01,-0.009,-0.024,-1.607,0.004,0.203,80.72,93.8,40.57732,-3.539065,631.9,3,5,115.7,1.406
82.15,1,-0.028,-0.0,0.015,-0.028,-0.014,-0.03,-1.61,0.005,0.203,80.72,93.8,40.57732,-3.539065,631.9,3,5,115.7,1.406
82.25,1,0.104,0.068,-0.006,0.029,0.016,-0.006,-1.609,0.004,0.203,80.72,93.8,40.57732,-3.539065,631.9,3,5,115.7,1.406
82.36,1,0.033,-0.011,-0.028,0.046,0.018,-0.011,-1.607,0.005,0.202,81.7,93.8,40.577221,-3.538789,632.5,3,5,115.7,0.703
82.45,1,-0.039,-0.002,-0.012,0.011,0.005,-0.017,-1.606,0.006,0.202,81.7,93.8,40.577221,-3.538789,632.5,3,5,115.7,0.703
82.55,1,-0.059,-0.033,0.012,-0.032,-0.009,-0.004,-1.608,0.009,0.202,81.7,93.8,40.577221,-3.538789,632.5,3,5,115.7,0.703
82.65,1,-0.005,-0.042,0.015,-0.027,-0.023,0.009,-1.609,0.007,0.201,81.7,93.8,40.577221,-3.538789,632.5,3,5,115.7,0.703
82.75,1,-0.034,-0.06,-0.039,-0.022,-0.048,-0.008,-1.609,0.002,0.201,81.7,93.8,40.577221,-3.538789,632.5,3,5,115.7,0.703
82.85,1,0.0,0.004,0.018,-0.025,-0.044,-0.012,-1.611,-0.001,0.2,81.7,93.8,40.577221,-3.538789,632.5,3,5,115.7,0.703
82.96,1,-0.083,-0.004,-0.057,-0.039,-0.011,-0.023,-1.611,-0.001,0.199,81.7,93.8,40.577221,-3.538789,632.5,3,5,115.7,0.703
83.06,1,-0.012,-0.044,-0.011,-0.037,-0.02,-0.024,-1.612,-0.001,0.199,81.7,93.8,40.577221,-3.538789,632.5,3,5,115.7,0.703
83.15,1,-0.029,0.019,-0.011,-0.031,-0.003,-0.016,-1.613,-0.002,0.199,81.7,93.8,40.577221,-3.538789,632.5,3,5,115.7,0.703
83.25,1,-0.004,0.011,0.02,-0.02,0.005,0.003,-1.613,-0.003,0.198,81.7,93.8,40.577221,-3.538789,632.5,3,5,115.7,0.703
83.35,1,0.045,0.002,-0.013,0.011,0.004,-0.001,-1.612,-0.003,0.198,82.78,95.8,40.57711,-3.538501,633.0,3,5,115.0,0.703
83.46,1,0.017,0.014,-0.015,0.022,0.008,-0.008,-1.611,-0.003,0.198,82.78,95.8,40.57711,-3.538501,633.0,3,5,115.0,0.703
83.56,1,-0.043,-0.011,-0.016,-0.005,-0.003,-0.013,-1.611,0.0,0.197,82.78,95.8,40.57711,-3.538501,633.0,3,5,115.0,0.703
83.65,1,-0.053,-0.032,-0.0,-0.037,-0.013,-0.009,-1.611,0.005,0.197,82.78,95.8,40.57711,-3.538501,633.0,3,5,115.0,0.703
83.76,1,0.03,-0.009,-0.013,-0.015,-0.008,-0.008,-1.608,0.009,0.197,82.78,95.8,40.57711,-3.538501,633.0,3,5,115.0,0.703
83.86,1,0.048,0.06,-0.024,0.025,0.015,-0.022,-1.608,0.011,0.196,82.78,95.8,40.57711,-3.538501,633.0,3,5,115.0,0.703
83.96,1,-0.034,0.003,-0.057,0.014,0.017,-0.033,-1.608,0.013,0.196,82.78,95.8,40.57711,-3.538501,633.0,3,5,115.0,0.703
84.05,1,-0.049,-0.008,-0.008,-0.024,0.006,-0.03,-1.608,0.015,0.196,82.78,95.8,40.57711,-3.538501,633.0,3,5,115.0,0.703
84.16,1,-0.034,0.059,-0.064,-0.04,0.032,-0.036,-1.608,0.016,0.195,82.78,95.8,40.57711,-3.538501,633.0,3,5,115.0,0.703
84.25,1,0.012,0.023,-0.065,-0.018,0.028,-0.059,-1.607,0.016,0.194,82.78,95.8,40.57711,-3.538501,633.0,3,5,115.0,0.703
84.36,1,0.006,0.037,-0.07,0.003,0.029,-0.059,-1.607,0.017,0.193,83.7,96.2,40.577015,-3.53822,632.9,3,5,114.6,1.055
84.46,1,0.018,-0.026,-0.075,0.003,0.007,-0.069,-1.601,0.019,0.193,83.7,96.2,40.577015,-3.53822,632.9,3,5,114.6,1.055
84.56,1,-0.007,0.009,-0.077,0.003,0.004,-0.072,-1.59,0.012,0.192,83.7,96.2,40.577015,-3.53822,632.9,3,5,114.6,1.055
84.65,1,0.012,-0.014,-0.048,0.013,-0.005,-0.064,-1.583,0.012,0.191,83.7,96.2,40.577015,-3.53822,632.9,3,5,114.6,1.055
84.76,1,-0.032,-0.007,-0.082,-0.013,-0.006,-0.071,-1.57,0.007,0.191,83.7,96.2,40.577015,-3.53822,632.9,3,5,114.6,1.055
84.86,1,0.031,0.001,-0.021,0.002,-0.003,-0.054,-1.568,0.003,0.19,83.7,96.2,40.577015,-3.53822,632.9,3,5,114.6,1.055
84.96,1,0.002,0.004,-0.051,0.008,-0.002,-0.041,-1.562,0.006,0.189,83.7,96.2,40.577015,-3.53822,632.9,3,5,114.6,1.055
85.06,1,-0.044,-0.03,-0.047,-0.007,-0.013,-0.047,-1.561,0.008,0.189,83.7,96.2,40.577015,-3.53822,632.9,3,5,114.6,1.055
85.16,1,-0.071,-0.025,-0.048,-0.049,-0.021,-0.048,-1.563,0.009,0.189,83.7,96.2,40.577015,-3.53822,632.9,3,5,114.6,1.055
85.26,1,-0.019,-0.023,-0.027,-0.043,-0.022,-0.034,-1.565,0.008,0.188,83.7,96.2,40.577015,-3.53822,632.9,3,5,114.6,1.055
85.36,1,-0.046,-0.01,-0.011,-0.04,-0.015,-0.026,-1.565,0.007,0.187,84.67,97.0,40.576916,-3.537933,633.1,3,5,114.3,0.703
85.47,1,0.008,-0.026,-0.024,-0.024,-0.021,-0.026,-1.56,0.009,0.187,84.67,97.0,40.576916,-3.537933,633.1,3,5,114.3,0.703
85.56,1,0.021,-0.011,-0.046,0.007,-0.015,-0.03,-1.556,0.006,0.186,84.67,97.0,40.576916,-3.537933,633.1,3,5,114.3,0.703
85.66,1,-0.051,-0.036,-0.023,-0.01,-0.022,-0.034,-1.552,0.004,0.186,84.67,97.0,40.576916,-3.537933,633.1,3,5,114.3,0.703
85.76,1,-0.083,0.016,-0.011,-0.056,-0.011,-0.021,-1.555,0.007,0.185,84.67,97.0,40.576916,-3.537933,633.1,3,5,114.3,0.703
85.86,1,0.033,0.001,0.004,-0.024,-0.002,-0.003,-1.554,0.009,0.184,84.67,97.0,40.576916,-3.537933,633.1,3,5,114.3,0.703
85.96,1,0.085,0.022,0.01,0.029,0.012,0.003,-1.552,0.01,0.183,84.67,97.0,40.576916,-3.537933,633.1,3,5,114.3,0.703
86.06,1,0.02,0.027,-0.06,0.041,0.018,-0.021,-1.549,0.009,0.182,84.67,97.0,40.576916,-3.537933,633.1,3,5,114.3,0.703
86.16,1,-0.012,0.022,0.018,0.008,0.022,-0.024,-1.549,0.013,0.182,84.67,97.0,40.576916,-3.537933,633.1,3,5,114.3,0.703
86.26,1,0.008,-0.025,0.017,0.01,-0.001,0.011,-1.554,0.01,0.18,84.67,97.0,40.576916,-3.537933,633.1,3,5,114.3,0.703
86.36,1,-0.011,0.008,0.007,0.009,-0.001,0.007,-1.551,0.002,0.179,85.69,94.9,40.576809,-3.537644,633.3,3,5,113.9,0.703
86.46,1,-0.024,0.003,-0.016,-0.019,0.01,-0.001,-1.547,0.002,0.177,85.69,94.9,40.576809,-3.537644,633.3,3,5,113.9,0.703
86.56,1,-0.045,0.02,0.033,-0.024,0.007,0.015,-1.54,0.004,0.176,85.69,94.9,40.576809,-3.537644,633.3,3,5,113.9,0.703
86.67,1,-0.018,0.017,0.053,-0.026,0.011,0.023,-1.544,0.001,0.175,85.69,94.9,40.576809,-3.537644,633.3,3,5,113.9,0.703
86.76,1,0.017,0.029,-0.008,-0.016,0.027,0.028,-1.543,0.001,0.174,85.69,94.9,40.576809,-3.537644,633.3,3,5,113.9,0.703
86.86,1,0.07,-0.002,0.027,0.043,0.012,0.015,-1.543,0.002,0.172,85.69,94.9,40.576809,-3.537644,633.3,3,5,113.9,0.703
86.96,1,-0.003,0.015,0.004,0.03,0.007,0.01,-1.542,0.002,0.171,85.69,94.9,40.576809,-3.537644,633.3,3,5,113.9,0.703
87.06,1,-0.049,0.011,0.024,-0.021,0.01,0.018,-1.546,0.001,0.171,85.69,94.9,40.576809,-3.537644,633.3,3,5,113.9,0.703
87.17,1,-0.051,0.021,-0.016,-0.035,0.023,0.006,-1.548,-0.0,0.169,85.69,94.9,40.576809,-3.537644,633.3,3,5,113.9,0.703
87.27,1,-0.066,0.011,0.016,-0.046,0.015,0.001,-1.549,0.003,0.169,85.69,94.9,40.576809,-3.537644,633.3,3,5,113.9,0.703
87.37,1,-0.041,-0.036,0.056,-0.055,-0.013,0.031,-1.555,0.006,0.168,86.69,93.5,40.576714,-3.537361,633.3,3,5,113.9,0.352
87.46,1,0.042,-0.019,0.042,-0.018,-0.016,0.042,-1.556,0.006,0.167,86.69,93.5,40.576714,-3.537361,633.3,3,5,113.9,0.352
87.56,1,0.117,0.004,0.021,0.06,-0.009,0.03,-1.555,0.003,0.166,86.69,93.5,40.576714,-3.537361,633.3,3,5,113.9,0.352
87.67,1,0.032,0.022,-0.0,0.063,0.01,0.018,-1.554,0.001,0.165,86.69,93.5,40.576714,-3.537361,633.3,3,5,113.9,0.352
87.76,1,-0.041,0.026,0.041,0.008,0.02,0.018,-1.558,-0.002,0.164,86.69,93.5,40.576714,-3.537361,633.3,3,5,113.9,0.352
87.88,1,-0.043,0.004,0.035,-0.023,0.011,0.031,-1.56,-0.0,0.164,86.69,93.5,40.576714,-3.537361,633.3,3,5,113.9,0.352
87.96,1,-0.012,-0.039,0.025,-0.03,-0.008,0.033,-1.56,0.0,0.163,86.69,93.5,40.576714,-3.537361,633.3,3,5,113.9,0.352
88.07,1,0.004,-0.009,0.013,-0.006,-0.02,0.022,-1.561,-0.001,0.162,86.69,93.5,40.576714,-3.537361,633.3,3,5,113.9,0.352
88.16,1,0.014,0.041,0.011,0.007,0.006,0.014,-1.562,0.0,0.16,86.69,93.5,40.576714,-3.537361,633.3,3,5,113.9,0.352
88.27,1,-0.0,0.03,0.025,-0.0,0.023,0.019,-1.567,0.003,0.159,86.69,93.5,40.576714,-3.537361,633.3,3,5,113.9,0.352
88.37,1,-0.026,-0.012,0.008,-0.007,0.013,0.018,-1.569,0.006,0.159,87.69,92.8,40.576611,-3.537061,633.5,3,5,113.9,0.0
88.47,1,-0.008,0.007,0.015,-0.008,0.002,0.017,-1.572,0.003,0.157,87.69,92.8,40.576611,-3.537061,633.5,3,5,113.9,0.0
88.57,1,-0.016,-0.001,0.0,-0.016,0.004,0.004,-1.573,0.003,0.156,87.69,92.8,40.576611,-3.537061,633.5,3,5,113.9,0.0
88.69,1,-0.026,0.021,0.011,-0.021,0.013,0.01,-1.574,0.004,0.154,87.69,92.8,40.576611,-3.537061,633.5,3,5,113.9,0.0
88.77,1,0.002,0.022,0.007,-0.011,0.013,0.009,-1.573,0.007,0.153,87.69,92.8,40.576611,-3.537061,633.5,3,5,113.9,0.0
88.87,1,0.061,0.001,0.046,0.014,0.016,0.023,-1.572,0.006,0.151,87.69,92.8,40.576611,-3.537061,633.5,3,5,113.9,0.0
88.97,1,-0.005,0.015,0.004,0.03,0.009,0.02,-1.575,0.001,0.15,87.69,92.8,40.576611,-3.537061,633.5,3,5,113.9,0.0
89.07,1,-0.086,-0.003,0.012,-0.026,0.002,0.011,-1.579,-0.003,0.148,87.69,92.8,40.576611,-3.537061,633.5,3,5,113.9,0.0
89.17,1,-0.088,0.01,0.01,-0.067,0.005,0.012,-1.582,-0.009,0.146,87.69,92.8,40.576611,-3.537061,633.5,3,5,113.9,0.0
89.29,1,-0.03,0.048,0.012,-0.065,0.027,0.013,-1.582,-0.014,0.143,87.69,92.8,40.576611,-3.537061,633.5,3,5,113.9,0.0
89.37,1,-0.018,0.012,-0.02,-0.039,0.024,-0.006,-1.581,-0.018,0.141,88.68,92.9,40.576523,-3.536783,633.7,3,5,113.9,0.0
89.47,1,0.06,0.014,0.038,0.013,0.018,0.02,-1.582,-0.018,0.139,88.68,92.9,40.576523,-3.536783,633.7,3,5,113.9,0.0
89.57,1,0.038,0.018,0.013,0.037,0.017,0.02,-1.582,-0.018,0.137,88.68,92.9,40.576523,-3.536783,633.7,3,5,113.9,0.0
89.67,1,-0.003,0.01,0.011,0.02,0.013,0.009,-1.582,-0.019,0.135,88.68,92.9,40.576523,-3.536783,633.7,3,5,113.9,0.0
89.78,1,-0.006,0.026,0.008,0.006,0.017,0.013,-1.582,-0.021,0.132,88.68,92.9,40.576523,-3.536783,633.7,3,5,113.9,0.0
89.88,1,-0.011,0.004,-0.012,-0.006,0.011,-0.003,-1.583,-0.022,0.13,88.68,92.9,40.576523,-3.536783,633.7,3,5,113.9,0.0
89.99,1,-0.039,0.019,0.003,-0.021,0.018,-0.004,-1.585,-0.023,0.128,88.68,92.9,40.576523,-3.536783,633.7,3,5,113.9,0.0
90.08,1,-0.034,-0.014,0.021,-0.029,-0.0,0.008,-1.586,-0.027,0.126,88.68,92.9,40.576523,-3.536783,633.7,3,5,113.9,0.0
90.17,1,0.01,0.0,0.024,-0.021,-0.003,0.022,-1.586,-0.035,0.123,88.68,92.9,40.576523,-3.536783,633.7,3,5,113.9,0.0
90.27,1,-0.014,0.011,-0.002,-0.0,0.006,0.007,-1.588,-0.038,0.121,88.68,92.9,40.576523,-3.536783,633.7,3,5,113.9,0.0
90.37,1,-0.021,-0.011,-0.001,-0.016,-0.006,0.004,-1.59,-0.036,0.118,89.69,92.3,40.576424,-3.536498,634.2,3,5,113.6,0.352
90.48,1,-0.076,0.02,-0.037,-0.045,0.009,-0.014,-1.59,-0.036,0.115,89.69,92.3,40.576424,-3.536498,634.2,3,5,113.6,0.352
90.57,1,-0.093,0.003,-0.008,-0.065,0.0,-0.013,-1.59,-0.035,0.113,89.69,92.3,40.576424,-3.536498,634.2,3,5,113.6,0.352
90.67,1,0.021,-0.017,0.001,-0.048,0.003,-0.01,-1.591,-0.034,0.111,89.69,92.3,40.576424,-3.536498,634.2,3,5,113.6,0.352
90.77,1,0.029,-0.016,-0.005,0.004,-0.01,-0.002,-1.591,-0.034,0.109,89.69,92.3,40.576424,-3.536498,634.2,3,5,113.6,0.352
90.87,1,-0.043,0.017,0.011,-0.008,0.009,-0.002,-1.584,-0.031,0.107,89.69,92.3,40.576424,-3.536498,634.2,3,5,113.6,0.352
90.98,1,-0.05,0.017,-0.007,-0.035,0.013,0.003,-1.583,-0.03,0.105,89.69,92.3,40.576424,-3.536498,634.2,3,5,113.6,0.352
91.07,1,-0.025,-0.026,-0.009,-0.037,-0.005,-0.008,-1.587,-0.031,0.103,89.69,92.3,40.576424,-3.536498,634.2,3,5,113.6,0.352
91.18,1,-0.008,-0.015,-0.009,-0.019,-0.014,-0.01,-1.586,-0.036,0.1,89.69,92.3,40.576424,-3.536498,634.2,3,5,113.6,0.352
91.28,1,-0.025,0.011,-0.016,-0.018,-0.011,-0.008,-1.583,-0.033,0.098,89.69,92.3,40.576424,-3.536498,634.2,3,5,113.6,0.352
91.37,1,-0.017,0.015,-0.025,-0.015,0.006,-0.011,-1.584,-0.033,0.096,90.67,92.6,40.576332,-3.53623,634.7,3,5,115.0,1.406
91.47,1,-0.06,-0.005,0.025,-0.034,0.005,-0.009,-1.586,-0.032,0.094,90.67,92.6,40.576332,-3.53623,634.7,3,5,115.0,1.406
91.58,1,-0.029,-0.015,0.078,-0.039,-0.004,0.044,-1.588,-0.03,0.092,90.67,92.6,40.576332,-3.53623,634.7,3,5,115.0,1.406
91.68,1,-0.05,-0.012,-0.013,-0.039,-0.006,0.028,-1.588,-0.029,0.09,90.67,92.6,40.576332,-3.53623,634.7,3,5,115.0,1.406
91.78,1,-0.056,0.018,-0.01,-0.054,0.003,-0.002,-1.588,-0.029,0.087,90.67,92.6,40.576332,-3.53623,634.7,3,5,115.0,1.406
91.88,1,0.004,-0.004,0.007,-0.036,0.002,-0.001,-1.588,-0.028,0.085,90.67,92.6,40.576332,-3.53623,634.7,3,5,115.0,1.406
91.98,1,0.03,-0.035,0.002,-0.004,-0.016,-0.003,-1.59,-0.031,0.083,90.67,92.6,40.576332,-3.53623,634.7,3,5,115.0,1.406
92.08,1,0.029,0.012,0.03,0.021,-0.006,0.016,-1.591,-0.029,0.081,90.67,92.6,40.576332,-3.53623,634.7,3,5,115.0,1.406
92.18,1,-0.047,-0.015,-0.032,-0.005,-0.005,0.005,-1.592,-0.027,0.08,90.67,92.6,40.576332,-3.53623,634.7,3,5,115.0,1.406
92.28,1,-0.039,-0.005,0.015,-0.025,-0.009,-0.005,-1.586,-0.025,0.079,90.67,92.6,40.576332,-3.53623,634.7,3,5,115.0,1.406
92.38,1,-0.033,-0.039,-0.006,-0.028,-0.02,-0.001,-1.587,-0.024,0.078,91.68,92.5,40.576233,-3.535953,635.0,3,5,115.7,2.109
92.48,1,-0.031,-0.02,0.008,-0.037,-0.025,0.002,-1.594,-0.023,0.076,91.68,92.5,40.576233,-3.535953,635.0,3,5,115.7,2.109
92.58,1,-0.023,-0.019,-0.0,-0.027,-0.024,0.001,-1.594,-0.022,0.075,91.68,92.5,40.576233,-3.535953,635.0,3,5,115.7,2.109
92.68,1,-0.019,-0.005,-0.005,-0.024,-0.014,-0.003,-1.597,-0.021,0.073,91.68,92.5,40.576233,-3.535953,635.0,3,5,115.7,2.109
92.79,1,-0.018,-0.015,0.013,-0.018,-0.012,0.006,-1.6,-0.022,0.071,91.68,92.5,40.576233,-3.535953,635.0,3,5,115.7,2.109
92.88,1,-0.008,-0.013,-0.013,-0.016,-0.012,-0.001,-1.598,-0.021,0.069,91.68,92.5,40.576233,-3.535953,635.0,3,5,115.7,2.109
92.98,1,0.007,-0.009,0.02,-0.004,-0.015,0.007,-1.6,-0.02,0.068,91.68,92.5,40.576233,-3.535953,635.0,3,5,115.7,2.109
93.08,1,0.003,-0.008,0.017,0.005,-0.008,0.014,-1.604,-0.022,0.066,91.68,92.5,40.576233,-3.535953,635.0,3,5,115.7,2.109
93.18,1,-0.023,-0.015,-0.027,-0.013,-0.008,-0.005,-1.611,-0.025,0.064,91.68,92.5,40.576233,-3.535953,635.0,3,5,115.7,2.109
93.29,1,-0.039,-0.008,0.013,-0.025,-0.012,0.001,-1.612,-0.025,0.062,91.68,92.5,40.576233,-3.535953,635.0,3,5,115.7,2.109
93.38,1,-0.001,-0.004,0.005,-0.025,-0.004,-0.001,-1.612,-0.026,0.06,92.67,92.9,40.576134,-3.535682,635.5,3,5,116.4,1.406
93.48,1,0.005,-0.002,0.007,0.002,-0.007,0.01,-1.615,-0.026,0.058,92.67,92.9,40.576134,-3.535682,635.5,3,5,116.4,1.406
93.6,1,-0.025,0.003,-0.037,-0.011,-0.0,-0.01,-1.615,-0.026,0.056,92.67,92.9,40.576134,-3.535682,635.5,3,5,116.4,1.406
93.68,1,-0.037,-0.001,-0.006,-0.021,-0.005,-0.015,-1.616,-0.026,0.054,92.67,92.9,40.576134,-3.535682,635.5,3,5,116.4,1.406
93.78,1,-0.012,0.006,-0.024,-0.025,0.005,-0.021,-1.617,-0.027,0.052,92.67,92.9,40.576134,-3.535682,635.5,3,5,116.4,1.406
93.88,1,0.022,-0.002,0.005,0.002,-0.001,-0.009,-1.618,-0.031,0.049,92.67,92.9,40.576134,-3.535682,635.5,3,5,116.4,1.406
93.98,1,0.035,0.01,-0.002,0.018,-0.0,-0.006,-1.617,-0.033,0.047,92.67,92.9,40.576134,-3.535682,635.5,3,5,116.4,1.406
94.09,1,0.037,0.028,-0.008,0.031,0.021,0.001,-1.617,-0.032,0.045,92.67,92.9,40.576134,-3.535682,635.5,3,5,116.4,1.406
94.19,1,-0.023,-0.0,0.0,0.015,0.012,0.001,-1.617,-0.033,0.043,92.67,92.9,40.576134,-3.535682,635.5,3,5,116.4,1.406
94.29,1,-0.048,-0.014,-0.05,-0.028,0.006,-0.029,-1.618,-0.034,0.041,92.67,92.9,40.576134,-3.535682,635.5,3,5,116.4,1.406
94.39,1,-0.012,0.012,0.02,-0.025,-0.003,-0.004,-1.62,-0.034,0.039,93.66,93.3,40.576027,-3.535408,636.0,3,5,117.1,1.406
94.48,1,-0.073,0.026,-0.004,-0.035,0.01,-0.003,-1.62,-0.033,0.037,93.66,93.3,40.576027,-3.535408,636.0,3,5,117.1,1.406
94.58,1,-0.007,0.006,-0.043,-0.039,0.019,-0.018,-1.62,-0.032,0.035,93.66,93.3,40.576027,-3.535408,636.0,3,5,117.1,1.406
94.68,1,0.016,-0.001,-0.025,0.0,0.007,-0.023,-1.62,-0.029,0.033,93.66,93.3,40.576027,-3.535408,636.0,3,5,117.1,1.406
94.79,1,-0.046,0.005,-0.027,-0.018,0.006,-0.029,-1.62,-0.031,0.031,93.66,93.3,40.576027,-3.535408,636.0,3,5,117.1,1.406
94.88,1,-0.006,0.003,-0.02,-0.025,-0.002,-0.023,-1.614,-0.036,0.029,93.66,93.3,40.576027,-3.535408,636.0,3,5,117.1,1.406
94.98,1,0.028,-0.005,-0.039,-0.001,0.002,-0.031,-1.61,-0.038,0.027,93.66,93.3,40.576027,-3.535408,636.0,3,5,117.1,1.406
95.09,1,-0.006,0.001,-0.043,0.005,-0.002,-0.037,-1.61,-0.042,0.025,93.66,93.3,40.576027,-3.535408,636.0,3,5,117.1,1.406
95.19,1,-0.053,-0.002,-0.038,-0.017,-0.001,-0.041,-1.609,-0.039,0.023,93.66,93.3,40.576027,-3.535408,636.0,3,5,117.1,1.406
95.3,1,0.002,0.001,-0.015,-0.018,-0.007,-0.024,-1.61,-0.035,0.021,93.66,93.3,40.576027,-3.535408,636.0,3,5,117.1,1.406
95.39,1,0.023,-0.007,-0.045,-0.004,-0.006,-0.039,-1.608,-0.036,0.019,94.7,92.8,40.575924,-3.535138,636.4,3,5,118.1,1.758
95.49,1,-0.011,0.013,-0.055,0.003,0.01,-0.046,-1.608,-0.036,0.017,94.7,92.8,40.575924,-3.535138,636.4,3,5,118.1,1.758
95.59,1,0.006,0.002,-0.051,0.005,0.008,-0.049,-1.608,-0.037,0.015,94.7,92.8,40.575924,-3.535138,636.4,3,5,118.1,1.758
95.69,1,-0.024,-0.014,-0.052,-0.005,-0.002,-0.052,-1.606,-0.038,0.013,94.7,92.8,40.575924,-3.535138,636.4,3,5,118.1,1.758
95.79,1,-0.018,-0.001,-0.029,-0.015,-0.007,-0.042,-1.602,-0.033,0.011,94.7,92.8,40.575924,-3.535138,636.4,3,5,118.1,1.758
95.89,1,0.005,-0.021,-0.038,-0.009,-0.008,-0.03,-1.604,-0.033,0.009,94.7,92.8,40.575924,-3.535138,636.4,3,5,118.1,1.758
95.99,1,0.051,-0.004,-0.029,0.014,-0.01,-0.035,-1.603,-0.033,0.008,94.7,92.8,40.575924,-3.535138,636.4,3,5,118.1,1.758
96.09,1,-0.005,-0.0,-0.063,0.02,-0.004,-0.05,-1.602,-0.033,0.006,94.7,92.8,40.575924,-3.535138,636.4,3,5,118.1,1.758
96.19,1,-0.023,-0.011,-0.038,-0.005,-0.007,-0.045,-1.597,-0.035,0.004,94.7,92.8,40.575924,-3.535138,636.4,3,5,118.1,1.758
96.29,1,-0.037,-0.008,-0.035,-0.019,-0.007,-0.038,-1.589,-0.035,0.003,94.7,92.8,40.575924,-3.535138,636.4,3,5,118.1,1.758
96.39,1,0.012,0.006,-0.033,-0.01,-0.005,-0.04,-1.589,-0.035,0.001,95.67,92.1,40.575813,-3.534865,637.3,3,5,118.8,1.758
96.49,1,0.023,-0.004,0.007,0.007,-0.0,-0.021,-1.586,-0.037,-0.001,95.67,92.1,40.575813,-3.534865,637.3,3,5,118.8,1.758
96.59,1,-0.017,-0.026,-0.045,0.002,-0.014,-0.018,-1.583,-0.035,-0.002,95.67,92.1,40.575813,-3.534865,637.3,3,5,118.8,1.758
96.7,1,-0.034,-0.037,-0.029,-0.023,-0.027,-0.034,-1.585,-0.036,-0.003,95.67,92.1,40.575813,-3.534865,637.3,3,5,118.8,1.758
96.89,1,0.003,0.003,-0.007,-0.002,0.014,-0.022,-1.585,-0.038,-0.006,95.67,92.1,40.575813,-3.534865,637.3,3,5,118.8,1.758
96.99,1,-0.073,-0.012,-0.012,-0.034,-0.002,-0.011,-1.583,-0.037,-0.007,95.67,92.1,40.575813,-3.534865,637.3,3,5,118.8,1.758
97.09,1,-0.008,-0.015,-0.003,-0.033,-0.006,-0.005,-1.584,-0.037,-0.008,95.67,92.1,40.575813,-3.534865,637.3,3,5,118.8,1.758
97.19,1,0.048,-0.001,-0.008,0.008,-0.012,-0.006,-1.582,-0.035,-0.01,95.67,92.1,40.575813,-3.534865,637.3,3,5,118.8,1.758
97.29,1,0.005,-0.009,-0.013,0.014,-0.005,-0.011,-1.582,-0.03,-0.011,95.67,92.1,40.575813,-3.534865,637.3,3,5,118.8,1.758
97.39,1,-0.001,-0.012,0.011,0.011,-0.01,-0.005,-1.583,-0.032,-0.013,95.67,92.1,40.575813,-3.534865,637.3,3,5,118.8,1.758
97.49,1,-0.06,0.005,-0.045,-0.02,-0.0,-0.012,-1.58,-0.036,-0.014,96.7,92.6,40.575695,-3.534598,637.9,3,5,119.9,1.758
97.59,1,-0.027,-0.015,-0.011,-0.034,-0.01,-0.025,-1.577,-0.035,-0.015,96.7,92.6,40.575695,-3.534598,637.9,3,5,119.9,1.758
97.7,1,-0.039,-0.021,-0.008,-0.035,-0.017,-0.014,-1.578,-0.039,-0.016,96.7,92.6,40.575695,-3.534598,637.9,3,5,119.9,1.758
97.79,1,-0.006,0.013,-0.0,-0.022,-0.004,-0.0,-1.58,-0.042,-0.018,96.7,92.6,40.575695,-3.534598,637.9,3,5,119.9,1.758
97.9,1,-0.017,0.007,-0.018,-0.02,0.004,-0.011,-1.579,-0.041,-0.019,96.7,92.6,40.575695,-3.534598,637.9,3,5,119.9,1.758
97.99,1,-0.027,-0.039,0.024,-0.022,-0.006,-0.001,-1.576,-0.044,-0.019,96.7,92.6,40.575695,-3.534598,637.9,3,5,119.9,1.758
98.1,1,-0.008,-0.052,-0.005,-0.015,-0.034,0.002,-1.575,-0.043,-0.019,96.7,92.6,40.575695,-3.534598,637.9,3,5,119.9,1.758
98.19,1,-0.051,-0.085,-0.011,-0.025,-0.062,-0.005,-1.577,-0.043,-0.019,96.7,92.6,40.575695,-3.534598,637.9,3,5,119.9,1.758
98.29,1,-0.068,-0.042,0.0,-0.061,-0.059,-0.0,-1.578,-0.044,-0.019,96.7,92.6,40.575695,-3.534598,637.9,3,5,119.9,1.758
98.39,1,0.065,-0.04,0.008,-0.015,-0.043,0.006,-1.577,-0.045,-0.02,96.7,92.6,40.575695,-3.534598,637.9,3,5,119.9,1.758
98.51,1,0.085,-0.023,-0.018,0.053,-0.039,-0.007,-1.576,-0.046,-0.02,97.77,91.5,40.575577,-3.534341,638.9,3,5,121.3,2.461
98.61,1,-0.003,-0.044,-0.041,0.056,-0.034,-0.016,-1.572,-0.047,-0.02,97.77,91.5,40.575577,-3.534341,638.9,3,5,121.3,2.461
98.71,1,-0.24,-0.042,-0.094,-0.084,-0.044,-0.061,-1.575,-0.048,-0.02,97.77,91.5,40.575577,-3.534341,638.9,3,5,121.3,2.461
98.8,1,-0.217,-0.035,0.039,-0.193,-0.044,-0.014,-1.581,-0.051,-0.021,97.77,91.5,40.575577,-3.534341,638.9,3,5,121.3,2.461
98.9,1,0.135,-0.012,0.027,-0.074,-0.027,0.006,-1.576,-0.052,-0.021,97.77,91.5,40.575577,-3.534341,638.9,3,5,121.3,2.461
99.0,1,0.174,-0.044,-0.028,0.095,-0.03,-0.001,-1.571,-0.051,-0.022,97.77,91.5,40.575577,-3.534341,638.9,3,5,121.3,2.461
99.11,1,-0.009,-0.041,-0.036,0.075,-0.038,-0.03,-1.57,-0.05,-0.022,97.77,91.5,40.575577,-3.534341,638.9,3,5,121.3,2.461
99.2,1,-0.058,-0.029,0.003,-0.004,-0.036,-0.02,-1.573,-0.043,-0.022,97.77,91.5,40.575577,-3.534341,638.9,3,5,121.3,2.461
99.3,1,-0.121,-0.015,0.016,-0.068,-0.025,0.005,-1.577,-0.036,-0.022,97.77,91.5,40.575577,-3.534341,638.9,3,5,121.3,2.461
99.4,1,-0.013,-0.038,-0.01,-0.062,-0.024,-0.002,-1.579,-0.028,-0.021,97.77,91.5,40.575577,-3.534341,638.9,3,5,121.3,2.461
99.5,1,0.053,-0.03,0.008,0.004,-0.031,0.003,-1.58,-0.023,-0.021,98.69,91.2,40.575455,-3.534086,639.2,3,5,122.0,2.109
99.6,1,0.025,-0.021,-0.022,0.029,-0.027,-0.002,-1.577,-0.02,-0.021,98.69,91.2,40.575455,-3.534086,639.2,3,5,122.0,2.109
99.7,1,-0.027,-0.016,0.011,0.001,-0.022,-0.008,-1.578,-0.019,-0.021,98.69,91.2,40.575455,-3.534086,639.2,3,5,122.0,2.109
99.8,1,-0.023,-0.008,0.012,-0.02,-0.012,0.006,-1.58,-0.018,-0.02,98.69,91.2,40.575455,-3.534086,639.2,3,5,122.0,2.109
99.9,1,-0.002,-0.021,0.007,-0.013,-0.017,0.007,-1.58,-0.017,-0.02,98.69,91.2,40.575455,-3.534086,639.2,3,5,122.0,2.109
100.0,1,0.003,-0.022,-0.003,0.0,-0.021,0.005,-1.579,-0.017,-0.02,98.69,91.2,40.575455,-3.534086,639.2,3,5,122.0,2.109
100.1,1,-0.03,-0.008,-0.003,-0.014,-0.015,0.002,-1.577,-0.014,-0.019,98.69,91.2,40.575455,-3.534086,639.2,3,5,122.0,2.109
100.21,1,-0.032,-0.011,0.013,-0.028,-0.013,-0.0,-1.576,-0.019,-0.019,98.69,91.2,40.575455,-3.534086,639.2,3,5,122.0,2.109
100.3,1,-0.044,-0.024,0.014,-0.036,-0.018,0.016,-1.579,-0.022,-0.019,98.69,91.2,40.575455,-3.534086,639.2,3,5,122.0,2.109
100.4,1,-0.023,-0.017,0.039,-0.03,-0.021,0.022,-1.581,-0.025,-0.019,98.69,91.2,40.575455,-3.534086,639.2,3,5,122.0,2.109
100.5,1,0.023,0.012,-0.01,-0.008,-0.002,0.011,-1.58,-0.028,-0.02,99.7,89.7,40.575336,-3.533844,639.6,3,5,122.3,1.055
100.6,1,0.06,0.014,0.007,0.032,0.005,0.005,-1.579,-0.027,-0.02,99.7,89.7,40.575336,-3.533844,639.6,3,5,122.3,1.055
100.7,1,0.03,0.004,-0.018,0.037,0.007,0.002,-1.578,-0.027,-0.02,99.7,89.7,40.575336,-3.533844,639.6,3,5,122.3,1.055
100.81,1,-0.012,0.005,0.004,0.016,0.003,-0.005,-1.58,-0.027,-0.02,99.7,89.7,40.575336,-3.533844,639.6,3,5,122.3,1.055
100.9,1,-0.036,-0.01,-0.003,-0.014,-0.0,-0.005,-1.58,-0.028,-0.021,99.7,89.7,40.575336,-3.533844,639.6,3,5,122.3,1.055
101.0,1,-0.023,-0.001,0.028,-0.024,-0.004,0.008,-1.582,-0.028,-0.021,99.7,89.7,40.575336,-3.533844,639.6,3,5,122.3,1.055
101.1,1,-0.003,0.004,-0.001,-0.013,0.0,0.011,-1.583,-0.026,-0.021,99.7,89.7,40.575336,-3.533844,639.6,3,5,122.3,1.055
101.2,1,0.028,0.013,0.046,0.007,0.01,0.02,-1.584,-0.026,-0.021,99.7,89.7,40.575336,-3.533844,639.6,3,5,122.3,1.055
101.31,1,-0.03,0.022,-0.01,-0.01,0.018,0.015,-1.584,-0.025,-0.021,99.7,89.7,40.575336,-3.533844,639.6,3,5,122.3,1.055
101.4,1,-0.083,-0.011,-0.033,-0.038,0.005,-0.007,-1.584,-0.025,-0.021,99.7,89.7,40.575336,-3.533844,639.6,3,5,122.3,1.055
101.5,1,-0.038,-0.018,-0.047,-0.053,-0.015,-0.035,-1.584,-0.027,-0.021,100.68,88.8,40.575222,-3.533608,640.2,3,5,122.3,0.352
101.6,1,-0.002,-0.021,-0.002,-0.025,-0.017,-0.02,-1.586,-0.028,-0.021,100.68,88.8,40.575222,-3.533608,640.2,3,5,122.3,0.352
101.7,1,-0.042,0.01,-0.019,-0.028,-0.0,-0.016,-1.586,-0.028,-0.021,100.68,88.8,40.575222,-3.533608,640.2,3,5,122.3,0.352
101.8,1,-0.012,-0.008,-0.022,-0.026,-0.004,-0.016,-1.585,-0.026,-0.021,100.68,88.8,40.575222,-3.533608,640.2,3,5,122.3,0.352
101.9,1,0.058,-0.023,-0.027,0.004,-0.017,-0.024,-1.584,-0.022,-0.02,100.68,88.8,40.575222,-3.533608,640.2,3,5,122.3,0.352
102.01,1,0.015,-0.009,0.009,0.029,-0.011,-0.006,-1.587,-0.022,-0.02,100.68,88.8,40.575222,-3.533608,640.2,3,5,122.3,0.352
102.11,1,0.034,-0.02,-0.024,0.028,-0.013,-0.016,-1.588,-0.016,-0.02,100.68,88.8,40.575222,-3.533608,640.2,3,5,122.3,0.352
102.22,1,0.003,-0.014,-0.003,0.021,-0.017,-0.012,-1.588,-0.017,-0.019,100.68,88.8,40.575222,-3.533608,640.2,3,5,122.3,0.352
102.31,1,-0.041,-0.009,0.006,-0.012,-0.011,-0.001,-1.584,-0.018,-0.019,100.68,88.8,40.575222,-3.533608,640.2,3,5,122.3,0.352
102.41,1,0.006,-0.009,-0.006,-0.011,-0.008,-0.005,-1.58,-0.018,-0.018,100.68,88.8,40.575222,-3.533608,640.2,3,5,122.3,0.352
102.51,1,-0.044,0.018,-0.02,-0.019,0.004,-0.011,-1.58,-0.019,-0.017,101.72,88.7,40.575104,-3.533365,640.6,3,5,123.0,0.703
102.61,1,-0.071,-0.002,-0.004,-0.05,0.005,-0.011,-1.582,-0.018,-0.017,101.72,88.7,40.575104,-3.533365,640.6,3,5,123.0,0.703
102.71,1,-0.047,0.008,-0.018,-0.052,-0.001,-0.006,-1.584,-0.014,-0.016,101.72,88.7,40.575104,-3.533365,640.6,3,5,123.0,0.703
102.81,1,0.011,0.037,-0.015,-0.026,0.018,-0.016,-1.582,-0.018,-0.016,101.72,88.7,40.575104,-3.533365,640.6,3,5,123.0,0.703
102.91,1,0.028,0.023,-0.015,0.01,0.022,-0.018,-1.583,-0.022,-0.015,101.72,88.7,40.575104,-3.533365,640.6,3,5,123.0,0.703
103.01,1,-0.026,0.026,-0.006,-0.005,0.026,-0.009,-1.582,-0.021,-0.015,101.72,88.7,40.575104,-3.533365,640.6,3,5,123.0,0.703
103.11,1,-0.026,0.001,-0.017,-0.016,0.016,-0.013,-1.581,-0.021,-0.014,101.72,88.7,40.575104,-3.533365,640.6,3,5,123.0,0.703
103.22,1,-0.046,-0.013,-0.006,-0.034,-0.001,-0.009,-1.581,-0.021,-0.014,101.72,88.7,40.575104,-3.533365,640.6,3,5,123.0,0.703
103.31,1,-0.018,-0.008,0.028,-0.028,-0.002,0.0,-1.584,-0.023,-0.014,101.72,88.7,40.575104,-3.533365,640.6,3,5,123.0,0.703
103.42,1,-0.016,0.011,0.004,-0.021,-0.003,0.017,-1.588,-0.023,-0.014,101.72,88.7,40.575104,-3.533365,640.6,3,5,123.0,0.703
103.51,1,-0.028,-0.014,0.013,-0.023,-0.002,0.009,-1.588,-0.024,-0.014,102.67,87.8,40.574993,-3.533132,641.5,3,5,123.4,1.055
103.61,1,-0.002,-0.006,0.001,-0.021,-0.003,0.008,-1.588,-0.025,-0.014,102.67,87.8,40.574993,-3.533132,641.5,3,5,123.4,1.055
103.72,1,0.001,0.024,-0.015,0.0,0.005,-0.002,-1.592,-0.028,-0.014,102.67,87.8,40.574993,-3.533132,641.5,3,5,123.4,1.055
103.81,1,-0.039,0.002,-0.021,-0.013,0.005,-0.023,-1.593,-0.029,-0.014,102.67,87.8,40.574993,-3.533132,641.5,3,5,123.4,1.055
103.91,1,0.009,-0.009,-0.01,-0.012,0.0,-0.005,-1.593,-0.03,-0.013,102.67,87.8,40.574993,-3.533132,641.5,3,5,123.4,1.055
104.02,1,-0.024,0.003,-0.007,-0.019,-0.0,-0.015,-1.593,-0.029,-0.013,102.67,87.8,40.574993,-3.533132,641.5,3,5,123.4,1.055
104.12,1,0.009,-0.005,0.006,-0.004,-0.003,-0.006,-1.593,-0.028,-0.013,102.67,87.8,40.574993,-3.533132,641.5,3,5,123.4,1.055
104.21,1,0.011,-0.014,-0.019,0.008,-0.013,-0.005,-1.593,-0.027,-0.013,102.67,87.8,40.574993,-3.533132,641.5,3,5,123.4,1.055
104.31,1,0.007,-0.029,0.018,0.006,-0.012,0.005,-1.593,-0.027,-0.013,102.67,87.8,40.574993,-3.533132,641.5,3,5,123.4,1.055
104.42,1,-0.053,0.004,-0.021,-0.017,-0.007,0.001,-1.594,-0.027,-0.013,102.67,87.8,40.574993,-3.533132,641.5,3,5,123.4,1.055
104.51,1,-0.031,-0.013,0.017,-0.035,-0.008,-0.009,-1.596,-0.028,-0.012,103.67,87.1,40.574871,-3.532892,643.2,3,5,123.0,0.352
104.62,1,0.008,-0.011,0.033,-0.017,-0.013,0.02,-1.594,-0.025,-0.012,103.67,87.1,40.574871,-3.532892,643.2,3,5,123.0,0.352
104.71,1,0.043,-0.007,0.025,0.018,-0.011,0.025,-1.595,-0.025,-0.012,103.67,87.1,40.574871,-3.532892,643.2,3,5,123.0,0.352
104.81,1,0.023,-0.008,-0.0,0.024,-0.006,0.014,-1.598,-0.027,-0.012,103.67,87.1,40.574871,-3.532892,643.2,3,5,123.0,0.352
104.91,1,-0.02,-0.02,-0.014,0.002,-0.008,-0.004,-1.601,-0.024,-0.011,103.67,87.1,40.574871,-3.532892,643.2,3,5,123.0,0.352
105.02,1,-0.016,0.017,0.026,-0.009,-0.004,0.012,-1.603,-0.019,-0.01,103.67,87.1,40.574871,-3.532892,643.2,3,5,123.0,0.352
105.12,1,-0.049,-0.006,0.007,-0.029,-0.002,0.013,-1.602,-0.019,-0.01,103.67,87.1,40.574871,-3.532892,643.2,3,5,123.0,0.352
105.22,1,-0.005,0.013,0.014,-0.022,0.001,0.006,-1.603,-0.025,-0.009,103.67,87.1,40.574871,-3.532892,643.2,3,5,123.0,0.352
105.32,1,0.023,0.023,-0.001,0.005,0.012,0.013,-1.606,-0.027,-0.008,103.67,87.1,40.574871,-3.532892,643.2,3,5,123.0,0.352
105.42,1,-0.026,-0.021,-0.011,-0.004,0.002,-0.006,-1.606,-0.026,-0.007,103.67,87.1,40.574871,-3.532892,643.2,3,5,123.0,0.352
105.52,1,-0.054,-0.015,-0.0,-0.026,-0.012,-0.002,-1.608,-0.023,-0.006,104.66,87.4,40.574757,-3.532644,642.6,3,5,123.4,0.352
105.62,1,-0.038,-0.016,0.002,-0.048,-0.006,-0.002,-1.612,-0.021,-0.005,104.66,87.4,40.574757,-3.532644,642.6,3,5,123.4,0.352
105.72,1,-0.016,-0.054,0.016,-0.022,-0.035,0.012,-1.617,-0.019,-0.003,104.66,87.4,40.574757,-3.532644,642.6,3,5,123.4,0.352
105.82,1,0.004,-0.022,-0.009,-0.016,-0.028,0.003,-1.619,-0.017,-0.002,104.66,87.4,40.574757,-3.532644,642.6,3,5,123.4,0.352
105.92,1,0.01,0.005,-0.02,-0.001,-0.014,-0.011,-1.619,-0.018,-0.001,104.66,87.4,40.574757,-3.532644,642.6,3,5,123.4,0.352
106.02,1,-0.022,-0.05,-0.015,-0.004,-0.025,-0.018,-1.62,-0.018,0.001,104.66,87.4,40.574757,-3.532644,642.6,3,5,123.4,0.352
106.12,1,-0.042,-0.024,0.007,-0.027,-0.029,-0.004,-1.621,-0.019,0.003,104.66,87.4,40.574757,-3.532644,642.6,3,5,123.4,0.352
106.22,1,-0.017,-0.021,-0.009,-0.025,-0.026,-0.001,-1.621,-0.019,0.004,104.66,87.4,40.574757,-3.532644,642.6,3,5,123.4,0.352
106.33,1,0.01,-0.027,-0.012,-0.011,-0.025,-0.009,-1.619,-0.016,0.007,104.66,87.4,40.574757,-3.532644,642.6,3,5,123.4,0.352
106.42,1,-0.012,-0.028,-0.016,-0.004,-0.031,-0.013,-1.621,-0.011,0.009,104.66,87.4,40.574757,-3.532644,642.6,3,5,123.4,0.352
106.52,1,0.019,-0.044,0.013,0.003,-0.033,-0.003,-1.621,-0.009,0.011,105.68,88.4,40.574635,-3.532396,643.4,3,5,123.8,0.703
106.62,1,0.03,-0.026,0.002,0.017,-0.03,0.003,-1.62,-0.009,0.013,105.68,88.4,40.574635,-3.532396,643.4,3,5,123.8,0.703
106.82,1,-0.018,-0.053,0.011,0.001,-0.044,-0.003,-1.619,0.001,0.019,105.68,88.4,40.574635,-3.532396,643.4,3,5,123.8,0.703
106.92,1,-0.029,-0.046,-0.012,-0.014,-0.046,-0.004,-1.622,0.004,0.022,105.68,88.4,40.574635,-3.532396,643.4,3,5,123.8,0.703
107.02,1,-0.037,-0.043,-0.018,-0.028,-0.042,-0.011,-1.622,0.012,0.026,105.68,88.4,40.574635,-3.532396,643.4,3,5,123.8,0.703
107.12,1,-0.036,-0.051,0.01,-0.033,-0.05,-0.006,-1.62,0.012,0.029,105.68,88.4,40.574635,-3.532396,643.4,3,5,123.8,0.703
107.22,1,-0.029,-0.038,-0.0,-0.033,-0.044,0.006,-1.615,0.01,0.032,105.68,88.4,40.574635,-3.532396,643.4,3,5,123.8,0.703
107.32,1,-0.023,-0.059,0.015,-0.028,-0.053,0.013,-1.615,0.009,0.035,105.68,88.4,40.574635,-3.532396,643.4,3,5,123.8,0.703
107.42,1,0.028,-0.028,-0.008,-0.009,-0.039,-0.001,-1.615,0.007,0.038,105.68,88.4,40.574635,-3.532396,643.4,3,5,123.8,0.703
107.53,1,0.072,-0.026,0.026,0.042,-0.033,0.01,-1.615,0.008,0.041,105.68,88.4,40.574635,-3.532396,643.4,3,5,123.8,0.703
107.62,1,-0.045,-0.029,-0.04,0.02,-0.027,-0.002,-1.613,0.011,0.044,106.67,88.6,40.574512,-3.53215,644.0,3,5,123.4,0.352
107.72,1,-0.018,-0.042,-0.001,-0.021,-0.036,-0.017,-1.616,0.013,0.048,106.67,88.6,40.574512,-3.53215,644.0,3,5,123.4,0.352
107.82,1,-0.023,-0.004,-0.001,-0.026,-0.023,-0.007,-1.618,0.011,0.05,106.67,88.6,40.574512,-3.53215,644.0,3,5,123.4,0.352
107.92,1,0.004,-0.003,-0.002,-0.009,-0.012,-0.002,-1.619,0.01,0.053,106.67,88.6,40.574512,-3.53215,644.0,3,5,123.4,0.352
108.02,1,-0.024,-0.008,-0.008,-0.007,-0.009,-0.003,-1.619,0.009,0.055,106.67,88.6,40.574512,-3.53215,644.0,3,5,123.4,0.352
108.13,1,0.034,-0.029,0.001,0.005,-0.018,-0.004,-1.617,0.009,0.058,106.67,88.6,40.574512,-3.53215,644.0,3,5,123.4,0.352
108.23,1,0.033,-0.013,0.006,0.022,-0.017,-0.0,-1.613,0.009,0.061,106.67,88.6,40.574512,-3.53215,644.0,3,5,123.4,0.352
108.32,1,-0.007,-0.028,0.001,0.017,-0.019,0.0,-1.611,0.009,0.063,106.67,88.6,40.574512,-3.53215,644.0,3,5,123.4,0.352
108.42,1,-0.036,0.005,-0.002,-0.015,-0.014,-0.001,-1.613,0.006,0.066,106.67,88.6,40.574512,-3.53215,644.0,3,5,123.4,0.352
108.52,1,-0.022,0.007,0.001,-0.024,0.002,0.001,-1.61,0.003,0.068,106.67,88.6,40.574512,-3.53215,644.0,3,5,123.4,0.352
108.63,1,0.002,-0.013,0.002,-0.01,-0.001,0.002,-1.608,0.002,0.07,107.78,89.5,40.574394,-3.531908,644.5,3,5,122.7,1.055
108.74,1,0.022,-0.02,-0.015,0.002,-0.012,-0.004,-1.608,0.001,0.072,107.78,89.5,40.574394,-3.531908,644.5,3,5,122.7,1.055
108.83,1,0.012,-0.004,0.015,0.016,-0.015,-0.0,-1.61,0.001,0.074,107.78,89.5,40.574394,-3.531908,644.5,3,5,122.7,1.055
108.94,1,-0.042,0.001,-0.009,-0.012,-0.005,-0.002,-1.612,-0.0,0.076,107.78,89.5,40.574394,-3.531908,644.5,3,5,122.7,1.055
109.03,1,-0.002,-0.001,0.017,-0.013,-0.002,0.003,-1.615,-0.002,0.078,107.78,89.5,40.574394,-3.531908,644.5,3,5,122.7,1.055
109.13,1,-0.03,0.018,-0.033,-0.017,0.004,-0.007,-1.62,-0.002,0.08,107.78,89.5,40.574394,-3.531908,644.5,3,5,122.7,1.055
109.23,1,0.013,-0.04,-0.03,-0.014,-0.005,-0.019,-1.619,-0.002,0.082,107.78,89.5,40.574394,-3.531908,644.5,3,5,122.7,1.055
109.33,1,0.01,-0.032,0.007,0.011,-0.022,-0.008,-1.619,-0.003,0.083,107.78,89.5,40.574394,-3.531908,644.5,3,5,122.7,1.055
109.44,1,-0.01,0.004,-0.038,-0.003,-0.017,-0.025,-1.619,-0.003,0.085,107.78,89.5,40.574394,-3.531908,644.5,3,5,122.7,1.055
109.54,1,-0.007,0.009,-0.034,-0.005,-0.003,-0.028,-1.62,-0.004,0.086,107.78,89.5,40.574394,-3.531908,644.5,3,5,122.7,1.055
109.64,1,0.011,0.007,0.008,-0.002,0.003,-0.015,-1.621,-0.004,0.088,108.67,89.0,40.574276,-3.531653,645.4,3,5,121.3,2.109
109.73,1,-0.038,-0.001,-0.031,-0.009,0.005,-0.015,-1.621,-0.004,0.09,108.67,89.0,40.574276,-3.531653,645.4,3,5,121.3,2.109
109.83,1,0.003,-0.018,-0.061,-0.015,-0.005,-0.04,-1.618,-0.003,0.091,108.67,89.0,40.574276,-3.531653,645.4,3,5,121.3,2.109
109.93,1,0.02,0.023,-0.035,0.001,0.002,-0.038,-1.615,0.002,0.093,108.67,89.0,40.574276,-3.531653,645.4,3,5,121.3,2.109
110.03,1,0.014,0.017,-0.022,0.016,0.01,-0.031,-1.609,0.001,0.094,108.67,89.0,40.574276,-3.531653,645.4,3,5,121.3,2.109
110.14,1,0.0,0.002,-0.016,0.01,0.012,-0.025,-1.609,-0.004,0.096,108.67,89.0,40.574276,-3.531653,645.4,3,5,121.3,2.109
110.23,1,0.005,-0.01,-0.031,0.007,-0.004,-0.025,-1.607,-0.001,0.097,108.67,89.0,40.574276,-3.531653,645.4,3,5,121.3,2.109
110.33,1,-0.018,0.005,-0.016,-0.007,-0.001,-0.025,-1.605,0.002,0.099,108.67,89.0,40.574276,-3.531653,645.4,3,5,121.3,2.109
110.43,1,-0.059,0.008,-0.025,-0.031,0.011,-0.018,-1.602,0.0,0.1,108.67,89.0,40.574276,-3.531653,645.4,3,5,121.3,2.109
110.53,1,-0.013,-0.016,-0.01,-0.025,-0.004,-0.013,-1.6,0.003,0.102,108.67,89.0,40.574276,-3.531653,645.4,3,5,121.3,2.109
110.64,1,-0.02,-0.005,-0.001,-0.023,-0.01,-0.012,-1.599,0.004,0.103,109.67,90.5,40.574165,-3.531406,646.1,3,5,120.6,2.109
110.73,1,-0.031,-0.004,0.002,-0.026,-0.009,-0.002,-1.599,0.004,0.105,109.67,90.5,40.574165,-3.531406,646.1,3,5,120.6,2.109
110.83,1,0.003,-0.03,0.013,-0.016,-0.01,0.003,-1.599,0.003,0.107,109.67,90.5,40.574165,-3.531406,646.1,3,5,120.6,2.109
110.93,1,0.007,-0.003,0.003,-0.002,-0.013,0.004,-1.597,0.001,0.108,109.67,90.5,40.574165,-3.531406,646.1,3,5,120.6,2.109
111.03,1,-0.022,-0.002,-0.006,-0.008,-0.012,-0.003,-1.599,0.002,0.109,109.67,90.5,40.574165,-3.531406,646.1,3,5,120.6,2.109
111.14,1,-0.012,-0.023,0.002,-0.013,-0.01,-0.001,-1.6,0.003,0.111,109.67,90.5,40.574165,-3.531406,646.1,3,5,120.6,2.109
111.24,1,0.02,0.003,0.004,0.003,-0.008,0.006,-1.599,0.003,0.112,109.67,90.5,40.574165,-3.531406,646.1,3,5,120.6,2.109
111.33,1,0.013,-0.009,-0.006,0.007,-0.003,-0.005,-1.597,0.0,0.114,109.67,90.5,40.574165,-3.531406,646.1,3,5,120.6,2.109
111.43,1,0.005,-0.017,-0.004,0.008,-0.014,-0.001,-1.602,-0.003,0.115,109.67,90.5,40.574165,-3.531406,646.1,3,5,120.6,2.109
111.53,1,-0.013,0.001,0.002,0.003,-0.007,0.0,-1.603,-0.004,0.116,109.67,90.5,40.574165,-3.531406,646.1,3,5,120.6,2.109
111.63,1,-0.039,0.004,-0.017,-0.018,-0.001,-0.005,-1.603,-0.001,0.118,110.67,90.3,40.574062,-3.531153,646.7,3,5,119.5,1.758
111.73,1,-0.043,0.01,0.016,-0.037,0.005,-0.001,-1.602,-0.003,0.119,110.67,90.3,40.574062,-3.531153,646.7,3,5,119.5,1.758
111.84,1,-0.034,0.0,0.004,-0.036,0.007,0.005,-1.6,-0.002,0.12,110.67,90.3,40.574062,-3.531153,646.7,3,5,119.5,1.758
111.93,1,0.007,0.002,-0.015,-0.018,0.002,-0.006,-1.599,-0.002,0.121,110.67,90.3,40.574062,-3.531153,646.7,3,5,119.5,1.758
112.04,1,0.0,0.01,-0.003,-0.006,0.006,-0.005,-1.601,-0.007,0.122,110.67,90.3,40.574062,-3.531153,646.7,3,5,119.5,1.758
112.13,1,-0.006,-0.009,-0.013,-0.004,-0.001,-0.009,-1.599,-0.01,0.124,110.67,90.3,40.574062,-3.531153,646.7,3,5,119.5,1.758
112.24,1,-0.013,0.003,-0.009,-0.008,0.002,-0.008,-1.599,-0.011,0.125,110.67,90.3,40.574062,-3.531153,646.7,3,5,119.5,1.758
112.34,1,-0.012,-0.009,-0.001,-0.01,-0.006,-0.002,-1.598,-0.011,0.126,110.67,90.3,40.574062,-3.531153,646.7,3,5,119.5,1.758
112.44,1,-0.004,0.019,-0.015,-0.005,0.0,-0.012,-1.596,-0.008,0.127,110.67,90.3,40.574062,-3.531153,646.7,3,5,119.5,1.758
112.54,1,0.008,-0.027,-0.006,-0.0,-0.003,-0.012,-1.598,-0.01,0.128,110.67,90.3,40.574062,-3.531153,646.7,3,5,119.5,1.758
112.64,1,-0.028,-0.012,-0.02,-0.008,-0.016,-0.012,-1.601,-0.011,0.129,111.7,89.4,40.573956,-3.530895,647.4,3,5,118.8,1.758
112.74,1,-0.049,0.02,-0.018,-0.033,0.005,-0.013,-1.601,-0.015,0.13,111.7,89.4,40.573956,-3.530895,647.4,3,5,118.8,1.758
112.84,1,-0.012,-0.019,0.002,-0.031,-0.002,-0.013,-1.6,-0.019,0.131,111.7,89.4,40.573956,-3.530895,647.4,3,5,118.8,1.758
112.94,1,0.033,-0.036,0.004,0.005,-0.022,-0.001,-1.598,-0.019,0.131,111.7,89.4,40.573956,-3.530895,647.4,3,5,118.8,1.758
113.05,1,-0.012,0.009,-0.023,0.003,-0.011,-0.009,-1.596,-0.017,0.132,111.7,89.4,40.573956,-3.530895,647.4,3,5,118.8,1.758
113.14,1,-0.004,-0.011,-0.022,-0.006,-0.004,-0.015,-1.597,-0.015,0.132,111.7,89.4,40.573956,-3.530895,647.4,3,5,118.8,1.758
113.24,1,-0.027,-0.008,-0.008,-0.01,-0.01,-0.014,-1.597,-0.015,0.134,111.7,89.4,40.573956,-3.530895,647.4,3,5,118.8,1.758
113.34,1,-0.032,0.025,-0.006,-0.022,0.008,-0.009,-1.598,-0.015,0.134,111.7,89.4,40.573956,-3.530895,647.4,3,5,118.8,1.758
113.44,1,-0.012,-0.013,-0.016,-0.027,0.003,-0.011,-1.596,-0.013,0.135,111.7,89.4,40.573956,-3.530895,647.4,3,5,118.8,1.758
113.54,1,-0.019,-0.027,-0.005,-0.016,-0.012,-0.015,-1.594,-0.01,0.136,111.7,89.4,40.573956,-3.530895,647.4,3,5,118.8,1.758
113.64,1,-0.018,-0.001,0.01,-0.02,-0.015,-0.0,-1.593,-0.009,0.137,112.67,89.4,40.573849,-3.530631,647.5,3,5,118.1,1.406
113.75,1,-0.026,0.001,-0.014,-0.023,-0.005,-0.001,-1.594,-0.008,0.139,112.67,89.4,40.573849,-3.530631,647.5,3,5,118.1,1.406
113.85,1,0.01,-0.024,-0.006,-0.008,-0.01,-0.005,-1.592,-0.008,0.141,112.67,89.4,40.573849,-3.530631,647.5,3,5,118.1,1.406
113.95,1,0.011,-0.032,-0.015,0.004,-0.022,-0.013,-1.591,-0.008,0.142,112.67,89.4,40.573849,-3.530631,647.5,3,5,118.1,1.406
114.04,1,0.014,-0.001,0.013,0.012,-0.02,-0.003,-1.592,-0.003,0.143,112.67,89.4,40.573849,-3.530631,647.5,3,5,118.1,1.406
114.14,1,-0.029,-0.007,-0.03,-0.007,-0.007,-0.009,-1.594,-0.005,0.144,112.67,89.4,40.573849,-3.530631,647.5,3,5,118.1,1.406
114.24,1,-0.032,-0.017,0.002,-0.02,-0.007,-0.01,-1.594,-0.001,0.146,112.67,89.4,40.573849,-3.530631,647.5,3,5,118.1,1.406
114.34,1,-0.058,-0.013,0.001,-0.043,-0.015,-0.006,-1.594,0.004,0.148,112.67,89.4,40.573849,-3.530631,647.5,3,5,118.1,1.406
114.45,1,-0.047,-0.005,-0.004,-0.048,-0.011,0.003,-1.596,0.007,0.149,112.67,89.4,40.573849,-3.530631,647.5,3,5,118.1,1.406
114.54,1,0.004,-0.016,-0.016,-0.024,-0.013,-0.011,-1.594,0.007,0.151,112.67,89.4,40.573849,-3.530631,647.5,3,5,118.1,1.406
114.64,1,0.008,-0.028,-0.012,0.0,-0.024,-0.013,-1.593,0.007,0.152,113.68,90.2,40.573746,-3.530376,648.4,3,5,118.1,0.703
114.74,1,0.017,-0.021,-0.025,0.005,-0.017,-0.014,-1.591,0.006,0.154,113.68,90.2,40.573746,-3.530376,648.4,3,5,118.1,0.703
114.85,1,-0.036,0.022,0.003,-0.007,-0.005,-0.008,-1.592,0.007,0.155,113.68,90.2,40.573746,-3.530376,648.4,3,5,118.1,0.703
114.95,1,-0.026,0.009,0.024,-0.022,0.004,0.002,-1.592,0.009,0.157,113.68,90.2,40.573746,-3.530376,648.4,3,5,118.1,0.703
115.05,1,-0.05,0.009,0.001,-0.038,0.01,0.011,-1.592,0.009,0.158,113.68,90.2,40.573746,-3.530376,648.4,3,5,118.1,0.703
115.15,1,-0.046,-0.023,-0.01,-0.046,-0.001,-0.0,-1.593,0.01,0.16,113.68,90.2,40.573746,-3.530376,648.4,3,5,118.1,0.703
115.24,1,-0.015,-0.035,0.011,-0.03,-0.021,0.001,-1.595,0.01,0.162,113.68,90.2,40.573746,-3.530376,648.4,3,5,118.1,0.703
115.34,1,0.053,-0.004,0.057,0.009,-0.018,0.034,-1.596,0.012,0.163,113.68,90.2,40.573746,-3.530376,648.4,3,5,118.1,0.703
115.44,1,0.053,0.017,0.0,0.037,-0.003,0.015,-1.596,0.012,0.165,113.68,90.2,40.573746,-3.530376,648.4,3,5,118.1,0.703
115.54,1,-0.02,0.001,-0.036,0.021,0.004,-0.004,-1.596,0.012,0.167,113.68,90.2,40.573746,-3.530376,648.4,3,5,118.1,0.703
115.66,1,-0.066,-0.0,-0.006,-0.024,0.005,-0.014,-1.597,0.013,0.169,114.7,89.6,40.573639,-3.53011,649.0,3,5,117.4,0.703
115.75,1,-0.03,-0.01,-0.021,-0.038,-0.002,-0.015,-1.598,0.013,0.17,114.7,89.6,40.573639,-3.53011,649.0,3,5,117.4,0.703
115.85,1,0.017,-0.009,0.01,-0.02,-0.01,-0.007,-1.598,0.011,0.172,114.7,89.6,40.573639,-3.53011,649.0,3,5,117.4,0.703
115.95,1,0.082,-0.009,-0.003,0.033,-0.005,-0.004,-1.599,0.01,0.174,114.7,89.6,40.573639,-3.53011,649.0,3,5,117.4,0.703
116.05,1,-0.006,-0.01,-0.012,0.03,-0.013,-0.005,-1.597,0.013,0.176,114.7,89.6,40.573639,-3.53011,649.0,3,5,117.4,0.703
116.15,1,-0.006,-0.012,0.008,0.01,-0.01,0.003,-1.593,0.016,0.178,114.7,89.6,40.573639,-3.53011,649.0,3,5,117.4,0.703
116.25,1,0.019,0.005,-0.003,0.005,-0.0,0.0,-1.594,0.017,0.18,114.7,89.6,40.573639,-3.53011,649.0,3,5,117.4,0.703
116.36,1,-0.01,0.001,0.004,0.01,-0.003,0.005,-1.595,0.017,0.181,114.7,89.6,40.573639,-3.53011,649.0,3,5,117.4,0.703
116.45,1,-0.009,-0.019,-0.004,-0.008,-0.007,-0.004,-1.595,0.019,0.183,114.7,89.6,40.573639,-3.53011,649.0,3,5,117.4,0.703
116.55,1,-0.016,0.027,0.028,-0.006,-0.002,0.006,-1.596,0.013,0.184,114.7,89.6,40.573639,-3.53011,649.0,3,5,117.4,0.703
116.65,1,0.027,-0.013,-0.028,-0.007,0.003,-0.0,-1.595,0.012,0.186,115.68,89.1,40.573536,-3.529845,649.9,3,5,116.4,1.758
116.85,1,-0.021,0.012,0.001,-0.005,-0.006,-0.004,-1.595,0.012,0.188,115.68,89.1,40.573536,-3.529845,649.9,3,5,116.4,1.758
116.95,1,-0.021,0.012,0.007,-0.023,0.007,-0.001,-1.593,0.012,0.19,115.68,89.1,40.573536,-3.529845,649.9,3,5,116.4,1.758
117.05,1,0.036,0.002,0.009,0.001,0.006,0.004,-1.593,0.012,0.191,115.68,89.1,40.573536,-3.529845,649.9,3,5,116.4,1.758
117.15,1,0.033,-0.015,0.003,0.025,0.001,0.003,-1.595,0.011,0.192,115.68,89.1,40.573536,-3.529845,649.9,3,5,116.4,1.758
117.25,1,-0.022,0.009,0.007,0.004,-0.002,0.007,-1.596,0.008,0.193,115.68,89.1,40.573536,-3.529845,649.9,3,5,116.4,1.758
117.35,1,-0.031,0.009,-0.003,-0.012,0.001,0.001,-1.596,0.009,0.194,115.68,89.1,40.573536,-3.529845,649.9,3,5,116.4,1.758
117.45,1,-0.025,0.015,-0.012,-0.025,0.014,-0.004,-1.596,0.01,0.194,115.68,89.1,40.573536,-3.529845,649.9,3,5,116.4,1.758
117.56,1,-0.029,-0.004,0.013,-0.023,0.001,0.0,-1.596,0.009,0.195,115.68,89.1,40.573536,-3.529845,649.9,3,5,116.4,1.758
117.65,1,-0.03,-0.013,-0.003,-0.026,-0.004,0.001,-1.597,0.006,0.196,115.68,89.1,40.573536,-3.529845,649.9,3,5,116.4,1.758
117.75,1,-0.005,0.018,0.017,-0.019,0.006,0.007,-1.595,0.005,0.197,116.67,89.7,40.573444,-3.529574,650.9,3,5,115.3,2.109
117.85,1,-0.016,0.001,0.013,-0.01,0.002,0.009,-1.592,0.005,0.197,116.67,89.7,40.573444,-3.529574,650.9,3,5,115.3,2.109
117.96,1,0.01,-0.004,0.008,-0.004,-0.001,0.011,-1.592,0.004,0.198,116.67,89.7,40.573444,-3.529574,650.9,3,5,115.3,2.109
118.06,1,0.02,0.014,-0.009,-0.001,0.011,0.002,-1.593,0.005,0.199,116.67,89.7,40.573444,-3.529574,650.9,3,5,115.3,2.109
118.16,1,-0.028,-0.007,-0.006,0.004,0.001,-0.002,-1.597,0.007,0.199,116.67,89.7,40.573444,-3.529574,650.9,3,5,115.3,2.109
118.25,1,-0.02,0.017,-0.015,-0.02,0.003,-0.016,-1.597,0.008,0.2,116.67,89.7,40.573444,-3.529574,650.9,3,5,115.3,2.109
118.35,1,-0.016,-0.015,0.007,-0.019,0.003,0.004,-1.597,0.007,0.2,116.67,89.7,40.573444,-3.529574,650.9,3,5,115.3,2.109
118.45,1,0.007,0.009,-0.027,-0.005,0.001,-0.013,-1.597,0.007,0.201,116.67,89.7,40.573444,-3.529574,650.9,3,5,115.3,2.109
118.56,1,0.015,0.01,0.004,0.008,0.005,-0.005,-1.598,0.008,0.202,116.67,89.7,40.573444,-3.529574,650.9,3,5,115.3,2.109
118.65,1,-0.015,0.025,-0.016,-0.007,0.016,-0.012,-1.601,0.008,0.202,116.67,89.7,40.573444,-3.529574,650.9,3,5,115.3,2.109
