Timestamp_Accel,SystemActivated,AccelX,AccelY,AccelZ,AccelX_KF,AccelY_KF,AccelZ_KF,Roll,Pitch,Yaw,Timestamp_GPS,Speed,Latitude,Longitude,Altitude,VerticalAccuracy,HorizontalAccuracy,Course,Difcourse
6.94,1.0,0.017,-0.011,0.018,-0.005,0.008,0.018,-1.523,0.015,0.012,6.94,65.2,40.512787,-3.404477,612.7,4,5,331.9,0.0
7.03,1.0,0.046,0.007,0.019,0.016,-0.002,0.018,-1.522,0.012,0.012,6.94,65.2,40.512787,-3.404477,612.7,4,5,331.9,0.0
7.14,1.0,0.052,-0.016,0.027,0.037,-0.005,0.018,-1.52,0.014,0.011,6.94,65.2,40.512787,-3.404477,612.7,4,5,331.9,0.0
7.24,1.0,0.015,-0.016,0.026,0.038,-0.009,0.024,-1.523,0.014,0.011,6.94,65.2,40.512787,-3.404477,612.7,4,5,331.9,0.0
7.34,1.0,-0.014,-0.017,0.04,0.012,-0.016,0.032,-1.525,0.012,0.011,6.94,65.2,40.512787,-3.404477,612.7,4,5,331.9,0.0
7.44,1.0,-0.007,-0.01,0.015,-0.002,-0.006,0.028,-1.525,0.012,0.012,6.94,65.2,40.512787,-3.404477,612.7,4,5,331.9,0.0
7.54,1.0,0.007,-0.026,0.027,0.0,-0.024,0.022,-1.527,0.019,0.013,6.94,65.2,40.512787,-3.404477,612.7,4,5,331.9,0.0
7.64,1.0,-0.006,-0.021,0.016,-0.002,-0.023,0.022,-1.528,0.018,0.013,6.94,65.2,40.512787,-3.404477,612.7,4,5,331.9,0.0
7.74,1.0,-0.009,-0.063,0.032,-0.006,-0.037,0.021,-1.528,0.016,0.014,6.94,65.2,40.512787,-3.404477,612.7,4,5,331.9,0.0
7.85,1.0,-0.01,-0.047,0.023,-0.008,-0.044,0.027,-1.527,0.016,0.016,6.94,65.2,40.512787,-3.404477,612.7,4,5,331.9,0.0
7.95,1.0,0.015,-0.043,0.02,0.001,-0.047,0.024,-1.526,0.017,0.017,7.920000000000001,64.5,40.512924,-3.404577,612.5,4,5,331.9,0.0
8.04,1.0,-0.028,-0.025,0.012,-0.006,-0.042,0.018,-1.528,0.018,0.018,7.920000000000001,64.5,40.512924,-3.404577,612.5,4,5,331.9,0.0
8.14,1.0,-0.016,-0.029,0.008,-0.015,-0.031,0.011,-1.529,0.023,0.019,7.920000000000001,64.5,40.512924,-3.404577,612.5,4,5,331.9,0.0
8.24,1.0,0.014,-0.006,0.016,-0.009,-0.012,0.016,-1.531,0.022,0.02,7.920000000000001,64.5,40.512924,-3.404577,612.5,4,5,331.9,0.0
8.34,1.0,0.026,0.009,0.015,0.013,-0.013,0.013,-1.531,0.019,0.021,7.920000000000001,64.5,40.512924,-3.404577,612.5,4,5,331.9,0.0
8.44,1.0,0.036,0.003,0.011,0.029,0.004,0.014,-1.531,0.018,0.022,7.920000000000001,64.5,40.512924,-3.404577,612.5,4,5,331.9,0.0
8.54,1.0,-0.061,-0.005,-0.03,-0.002,0.003,-0.004,-1.531,0.024,0.022,7.920000000000001,64.5,40.512924,-3.404577,612.5,4,5,331.9,0.0
8.64,1.0,0.015,0.02,0.014,-0.007,0.008,-0.004,-1.532,0.025,0.022,7.920000000000001,64.5,40.512924,-3.404577,612.5,4,5,331.9,0.0
8.74,1.0,-0.029,-0.032,0.014,-0.016,-0.001,0.015,-1.535,0.026,0.022,7.920000000000001,64.5,40.512924,-3.404577,612.5,4,5,331.9,0.0
8.85,1.0,-0.032,-0.0,0.022,-0.03,-0.015,0.008,-1.535,0.029,0.023,7.920000000000001,64.5,40.512924,-3.404577,612.5,4,5,331.9,0.0
8.94,1.0,0.037,-0.043,0.025,-0.004,-0.025,0.021,-1.538,0.032,0.024,8.91,63.6,40.513065,-3.40468,612.9,4,5,330.8,1.055
9.05,1.0,0.05,0.0,-0.028,0.032,-0.02,0.0,-1.535,0.032,0.025,8.91,63.6,40.513065,-3.40468,612.9,4,5,330.8,1.055
9.14,1.0,-0.025,0.019,-0.014,0.012,0.005,-0.013,-1.533,0.03,0.024,8.91,63.6,40.513065,-3.40468,612.9,4,5,330.8,1.055
9.24,1.0,-0.063,0.041,0.003,-0.029,0.021,-0.008,-1.534,0.028,0.024,8.91,63.6,40.513065,-3.40468,612.9,4,5,330.8,1.055
9.34,1.0,-0.009,0.016,0.008,-0.032,0.021,0.004,-1.535,0.026,0.024,8.91,63.6,40.513065,-3.40468,612.9,4,5,330.8,1.055
9.44,1.0,0.019,0.04,-0.015,-0.002,0.029,-0.002,-1.533,0.024,0.024,8.91,63.6,40.513065,-3.40468,612.9,4,5,330.8,1.055
9.55,1.0,0.018,0.01,-0.021,0.012,0.025,-0.018,-1.529,0.022,0.024,8.91,63.6,40.513065,-3.40468,612.9,4,5,330.8,1.055
9.65,1.0,0.033,-0.003,0.009,0.018,0.013,-0.005,-1.529,0.023,0.024,8.91,63.6,40.513065,-3.40468,612.9,4,5,330.8,1.055
9.75,1.0,0.028,-0.02,-0.009,0.028,-0.005,-0.001,-1.527,0.023,0.024,8.91,63.6,40.513065,-3.40468,612.9,4,5,330.8,1.055
9.85,1.0,0.029,-0.005,0.0,0.026,-0.012,-0.006,-1.523,0.022,0.025,8.91,63.6,40.513065,-3.40468,612.9,4,5,330.8,1.055
9.95,1.0,0.003,-0.029,-0.014,0.021,-0.016,-0.006,-1.52,0.023,0.025,9.89,62.2,40.51321,-3.404772,613.3,4,5,330.8,1.055
10.06,1.0,-0.017,-0.016,-0.021,-0.002,-0.017,-0.017,-1.518,0.025,0.027,9.89,62.2,40.51321,-3.404772,613.3,4,5,330.8,1.055
10.15,1.0,-0.003,-0.005,0.021,-0.005,-0.016,-0.0,-1.518,0.026,0.03,9.89,62.2,40.51321,-3.404772,613.3,4,5,330.8,1.055
10.25,1.0,0.047,0.015,0.005,0.013,0.0,0.008,-1.516,0.026,0.031,9.89,62.2,40.51321,-3.404772,613.3,4,5,330.8,1.055
10.35,1.0,0.062,0.025,0.008,0.043,0.009,0.002,-1.513,0.024,0.033,9.89,62.2,40.51321,-3.404772,613.3,4,5,330.8,1.055
10.45,1.0,0.038,-0.01,-0.004,0.05,0.009,0.006,-1.511,0.025,0.034,9.89,62.2,40.51321,-3.404772,613.3,4,5,330.8,1.055
10.55,1.0,-0.023,-0.034,0.018,0.013,-0.009,0.005,-1.512,0.029,0.035,9.89,62.2,40.51321,-3.404772,613.3,4,5,330.8,1.055
10.65,1.0,-0.027,-0.028,0.037,-0.014,-0.024,0.022,-1.514,0.032,0.036,9.89,62.2,40.51321,-3.404772,613.3,4,5,330.8,1.055
10.76,1.0,-0.033,-0.013,0.05,-0.021,-0.018,0.036,-1.518,0.035,0.037,9.89,62.2,40.51321,-3.404772,613.3,4,5,330.8,1.055
10.86,1.0,0.045,0.026,0.045,0.004,0.001,0.044,-1.519,0.032,0.038,9.89,62.2,40.51321,-3.404772,613.3,4,5,330.8,1.055
10.95,1.0,0.066,-0.018,0.038,0.039,-0.009,0.044,-1.517,0.03,0.039,10.89,60.9,40.513348,-3.404868,613.5,3,5,330.1,0.703
11.05,1.0,0.043,0.005,0.007,0.049,0.005,0.025,-1.515,0.032,0.04,10.89,60.9,40.513348,-3.404868,613.5,3,5,330.1,0.703
11.15,1.0,0.014,0.023,0.062,0.034,-0.004,0.036,-1.515,0.032,0.041,10.89,60.9,40.513348,-3.404868,613.5,3,5,330.1,0.703
11.25,1.0,0.044,-0.093,0.058,0.029,-0.027,0.051,-1.513,0.03,0.042,10.89,60.9,40.513348,-3.404868,613.5,3,5,330.1,0.703
11.35,1.0,-0.04,0.008,0.018,0.007,-0.028,0.042,-1.511,0.025,0.043,10.89,60.9,40.513348,-3.404868,613.5,3,5,330.1,0.703
11.45,1.0,-0.076,0.005,0.019,-0.035,-0.003,0.019,-1.514,0.022,0.044,10.89,60.9,40.513348,-3.404868,613.5,3,5,330.1,0.703
11.56,1.0,-0.078,0.018,0.079,-0.067,0.007,0.049,-1.518,0.02,0.044,10.89,60.9,40.513348,-3.404868,613.5,3,5,330.1,0.703
11.65,1.0,-0.023,-0.001,0.063,-0.053,0.002,0.064,-1.523,0.022,0.046,10.89,60.9,40.513348,-3.404868,613.5,3,5,330.1,0.703
11.75,1.0,0.014,0.001,0.066,-0.016,0.01,0.062,-1.529,0.022,0.047,10.89,60.9,40.513348,-3.404868,613.5,3,5,330.1,0.703
11.85,1.0,0.056,0.017,0.071,0.025,0.006,0.065,-1.533,0.018,0.048,10.89,60.9,40.513348,-3.404868,613.5,3,5,330.1,0.703
11.96,1.0,0.067,-0.009,0.045,0.037,0.004,0.059,-1.533,0.014,0.048,11.91,61.2,40.513477,-3.404971,613.8,3,5,329.4,1.406
12.06,1.0,0.032,-0.051,0.071,0.053,-0.023,0.062,-1.534,0.017,0.049,11.91,61.2,40.513477,-3.404971,613.8,3,5,329.4,1.406
12.15,1.0,0.02,-0.074,0.035,0.032,-0.051,0.058,-1.535,0.023,0.05,11.91,61.2,40.513477,-3.404971,613.8,3,5,329.4,1.406
12.26,1.0,-0.009,-0.032,0.032,0.016,-0.052,0.036,-1.536,0.022,0.051,11.91,61.2,40.513477,-3.404971,613.8,3,5,329.4,1.406
12.36,1.0,-0.043,-0.022,0.046,-0.015,-0.028,0.041,-1.542,0.018,0.052,11.91,61.2,40.513477,-3.404971,613.8,3,5,329.4,1.406
12.46,1.0,-0.063,-0.008,0.034,-0.04,-0.022,0.04,-1.544,0.013,0.053,11.91,61.2,40.513477,-3.404971,613.8,3,5,329.4,1.406
12.56,1.0,0.015,0.003,0.052,-0.018,-0.006,0.042,-1.548,0.013,0.055,11.91,61.2,40.513477,-3.404971,613.8,3,5,329.4,1.406
12.66,1.0,-0.015,-0.02,0.047,-0.023,-0.01,0.05,-1.554,0.015,0.057,11.91,61.2,40.513477,-3.404971,613.8,3,5,329.4,1.406
12.76,1.0,0.022,-0.02,0.031,0.01,-0.018,0.037,-1.555,0.019,0.058,11.91,61.2,40.513477,-3.404971,613.8,3,5,329.4,1.406
12.86,1.0,0.026,-0.058,0.041,0.014,-0.031,0.042,-1.56,0.022,0.06,11.91,61.2,40.513477,-3.404971,613.8,3,5,329.4,1.406
12.96,1.0,-0.002,-0.011,0.035,0.012,-0.025,0.037,-1.567,0.022,0.062,12.900000000000002,61.7,40.513615,-3.40508,614.0,3,5,328.7,1.406
13.06,1.0,-0.005,-0.025,0.014,0.002,-0.032,0.025,-1.568,0.024,0.064,12.900000000000002,61.7,40.513615,-3.40508,614.0,3,5,328.7,1.406
13.16,1.0,-0.002,-0.034,0.018,-0.004,-0.026,0.022,-1.569,0.025,0.067,12.900000000000002,61.7,40.513615,-3.40508,614.0,3,5,328.7,1.406
13.26,1.0,-0.014,-0.032,0.026,-0.007,-0.036,0.023,-1.573,0.028,0.069,12.900000000000002,61.7,40.513615,-3.40508,614.0,3,5,328.7,1.406
13.36,1.0,-0.0,-0.006,0.022,-0.008,-0.016,0.021,-1.575,0.031,0.072,12.900000000000002,61.7,40.513615,-3.40508,614.0,3,5,328.7,1.406
13.46,1.0,0.036,-0.011,0.031,0.009,-0.017,0.027,-1.576,0.034,0.075,12.900000000000002,61.7,40.513615,-3.40508,614.0,3,5,328.7,1.406
13.56,1.0,0.02,-0.058,0.019,0.025,-0.026,0.025,-1.574,0.034,0.079,12.900000000000002,61.7,40.513615,-3.40508,614.0,3,5,328.7,1.406
13.66,1.0,0.017,-0.074,0.029,0.02,-0.057,0.023,-1.574,0.033,0.082,12.900000000000002,61.7,40.513615,-3.40508,614.0,3,5,328.7,1.406
13.76,1.0,0.004,-0.036,0.017,0.01,-0.052,0.024,-1.575,0.033,0.085,12.900000000000002,61.7,40.513615,-3.40508,614.0,3,5,328.7,1.406
13.86,1.0,0.002,-0.012,0.014,0.012,-0.031,0.018,-1.576,0.039,0.087,12.900000000000002,61.7,40.513615,-3.40508,614.0,3,5,328.7,1.406
13.96,1.0,0.022,0.066,0.037,0.01,0.009,0.024,-1.576,0.045,0.09,13.93,64.3,40.513741,-3.405192,614.3,3,5,327.0,2.461
14.06,1.0,-0.011,0.017,0.019,0.007,0.036,0.028,-1.575,0.049,0.093,13.93,64.3,40.513741,-3.405192,614.3,3,5,327.0,2.461
14.16,1.0,-0.033,-0.028,0.01,-0.013,-0.004,0.018,-1.575,0.054,0.096,13.93,64.3,40.513741,-3.405192,614.3,3,5,327.0,2.461
14.26,1.0,-0.004,-0.052,0.032,-0.022,-0.035,0.023,-1.574,0.056,0.098,13.93,64.3,40.513741,-3.405192,614.3,3,5,327.0,2.461
14.36,1.0,0.031,0.072,0.021,0.009,0.011,0.022,-1.573,0.055,0.098,13.93,64.3,40.513741,-3.405192,614.3,3,5,327.0,2.461
14.47,1.0,0.043,0.052,0.013,0.024,0.052,0.018,-1.572,0.056,0.099,13.93,64.3,40.513741,-3.405192,614.3,3,5,327.0,2.461
14.56,1.0,0.028,0.04,0.043,0.036,0.039,0.024,-1.572,0.056,0.1,13.93,64.3,40.513741,-3.405192,614.3,3,5,327.0,2.461
14.67,1.0,0.033,0.011,0.024,0.033,0.031,0.033,-1.569,0.056,0.1,13.93,64.3,40.513741,-3.405192,614.3,3,5,327.0,2.461
14.77,1.0,0.036,0.052,0.029,0.027,0.026,0.029,-1.567,0.056,0.101,13.93,64.3,40.513741,-3.405192,614.3,3,5,327.0,2.461
14.87,1.0,-0.01,-0.009,0.02,0.019,0.02,0.025,-1.567,0.059,0.101,13.93,64.3,40.513741,-3.405192,614.3,3,5,327.0,2.461
14.97,1.0,-0.057,0.023,0.033,-0.021,0.021,0.026,-1.574,0.054,0.101,14.91,66.8,40.513882,-3.405315,614.6,3,5,325.5,3.164
15.07,1.0,-0.034,0.042,0.037,-0.037,0.026,0.032,-1.58,0.05,0.1,14.91,66.8,40.513882,-3.405315,614.6,3,5,325.5,3.164
15.17,1.0,0.01,0.075,0.027,-0.015,0.051,0.032,-1.583,0.04,0.1,14.91,66.8,40.513882,-3.405315,614.6,3,5,325.5,3.164
15.27,1.0,0.018,0.03,0.008,0.008,0.043,0.017,-1.583,0.034,0.1,14.91,66.8,40.513882,-3.405315,614.6,3,5,325.5,3.164
15.37,1.0,-0.008,-0.022,0.016,0.004,0.021,0.017,-1.584,0.031,0.1,14.91,66.8,40.513882,-3.405315,614.6,3,5,325.5,3.164
15.47,1.0,-0.017,-0.031,0.023,-0.009,-0.019,0.022,-1.586,0.03,0.101,14.91,66.8,40.513882,-3.405315,614.6,3,5,325.5,3.164
15.57,1.0,-0.019,-0.011,0.014,-0.017,-0.017,0.018,-1.586,0.03,0.101,14.91,66.8,40.513882,-3.405315,614.6,3,5,325.5,3.164
15.67,1.0,-0.03,-0.011,0.001,-0.021,-0.007,0.011,-1.586,0.03,0.101,14.91,66.8,40.513882,-3.405315,614.6,3,5,325.5,3.164
15.77,1.0,-0.014,-0.013,0.024,-0.018,-0.01,0.011,-1.587,0.03,0.102,14.91,66.8,40.513882,-3.405315,614.6,3,5,325.5,3.164
15.87,1.0,-0.01,-0.023,0.013,-0.014,-0.015,0.017,-1.589,0.029,0.103,14.91,66.8,40.513882,-3.405315,614.6,3,5,325.5,3.164
15.97,1.0,0.022,0.031,0.014,0.0,0.005,0.015,-1.59,0.027,0.103,15.919999999999998,68.9,40.514019,-3.405443,614.6,3,5,325.9,1.055
16.07,1.0,-0.012,0.026,-0.001,0.002,0.014,0.009,-1.589,0.027,0.103,15.919999999999998,68.9,40.514019,-3.405443,614.6,3,5,325.9,1.055
16.17,1.0,-0.021,0.008,0.003,-0.012,0.012,0.002,-1.588,0.023,0.103,15.919999999999998,68.9,40.514019,-3.405443,614.6,3,5,325.9,1.055
16.27,1.0,-0.044,-0.007,0.013,-0.03,0.006,0.008,-1.589,0.025,0.103,15.919999999999998,68.9,40.514019,-3.405443,614.6,3,5,325.9,1.055
16.37,1.0,-0.004,0.021,0.01,-0.02,0.009,0.008,-1.59,0.028,0.103,15.919999999999998,68.9,40.514019,-3.405443,614.6,3,5,325.9,1.055
16.47,1.0,0.018,0.023,0.013,-0.001,0.017,0.012,-1.589,0.026,0.102,15.919999999999998,68.9,40.514019,-3.405443,614.6,3,5,325.9,1.055
16.57,1.0,-0.005,0.033,0.002,0.0,0.022,0.01,-1.59,0.023,0.101,15.919999999999998,68.9,40.514019,-3.405443,614.6,3,5,325.9,1.055
16.67,1.0,-0.007,0.034,0.011,-0.001,0.03,0.006,-1.59,0.022,0.1,15.919999999999998,68.9,40.514019,-3.405443,614.6,3,5,325.9,1.055
16.77,1.0,-0.0,0.014,0.004,-0.002,0.03,0.007,-1.592,0.02,0.099,15.919999999999998,68.9,40.514019,-3.405443,614.6,3,5,325.9,1.055
16.97,1.0,0.008,-0.038,-0.009,0.002,-0.015,-0.004,-1.592,0.011,0.097,15.919999999999998,68.9,40.514019,-3.405443,614.6,3,5,325.9,1.055
17.07,1.0,-0.024,-0.011,0.01,-0.004,-0.012,0.003,-1.593,0.01,0.096,16.9,71.4,40.514164,-3.405575,614.6,3,5,325.5,0.352
17.17,1.0,-0.006,0.011,-0.01,-0.013,-0.005,-0.004,-1.592,0.01,0.095,16.9,71.4,40.514164,-3.405575,614.6,3,5,325.5,0.352
17.28,1.0,-0.02,0.008,-0.004,-0.018,0.002,-0.005,-1.593,0.009,0.094,16.9,71.4,40.514164,-3.405575,614.6,3,5,325.5,0.352
17.38,1.0,-0.018,-0.006,0.001,-0.015,0.003,-0.005,-1.594,0.005,0.093,16.9,71.4,40.514164,-3.405575,614.6,3,5,325.5,0.352
17.48,1.0,-0.03,0.015,-0.005,-0.025,0.005,-0.005,-1.594,0.002,0.091,16.9,71.4,40.514164,-3.405575,614.6,3,5,325.5,0.352
17.58,1.0,-0.006,0.02,0.003,-0.018,0.014,0.001,-1.594,0.003,0.09,16.9,71.4,40.514164,-3.405575,614.6,3,5,325.5,0.352
17.68,1.0,0.038,0.067,-0.0,0.012,0.038,0.001,-1.596,0.004,0.089,16.9,71.4,40.514164,-3.405575,614.6,3,5,325.5,0.352
17.78,1.0,0.029,0.033,-0.002,0.028,0.046,0.002,-1.595,0.005,0.088,16.9,71.4,40.514164,-3.405575,614.6,3,5,325.5,0.352
17.88,1.0,0.022,0.049,-0.012,0.024,0.035,-0.003,-1.594,0.006,0.087,16.9,71.4,40.514164,-3.405575,614.6,3,5,325.5,0.352
17.98,1.0,-0.04,-0.026,-0.007,-0.004,0.015,-0.009,-1.595,0.006,0.085,16.9,71.4,40.514164,-3.405575,614.6,3,5,325.5,0.352
18.08,1.0,-0.035,0.014,-0.008,-0.024,0.012,-0.01,-1.595,0.006,0.084,17.89,73.5,40.514317,-3.405716,614.6,4,5,325.9,0.352
18.18,1.0,-0.026,0.012,-0.03,-0.031,0.005,-0.014,-1.595,0.006,0.083,17.89,73.5,40.514317,-3.405716,614.6,4,5,325.9,0.352
18.28,1.0,-0.037,0.007,-0.026,-0.027,0.014,-0.028,-1.591,0.004,0.082,17.89,73.5,40.514317,-3.405716,614.6,4,5,325.9,0.352
18.38,1.0,-0.033,0.014,-0.044,-0.035,0.011,-0.029,-1.59,0.002,0.08,17.89,73.5,40.514317,-3.405716,614.6,4,5,325.9,0.352
18.48,1.0,-0.027,0.001,-0.038,-0.031,0.008,-0.038,-1.586,-0.001,0.079,17.89,73.5,40.514317,-3.405716,614.6,4,5,325.9,0.352
18.58,1.0,-0.002,0.022,-0.054,-0.02,0.012,-0.044,-1.582,-0.001,0.078,17.89,73.5,40.514317,-3.405716,614.6,4,5,325.9,0.352
18.68,1.0,-0.02,0.014,-0.035,-0.013,0.017,-0.043,-1.579,-0.002,0.076,17.89,73.5,40.514317,-3.405716,614.6,4,5,325.9,0.352
18.78,1.0,-0.012,0.018,-0.054,-0.019,0.015,-0.047,-1.574,-0.004,0.075,17.89,73.5,40.514317,-3.405716,614.6,4,5,325.9,0.352
18.88,1.0,-0.016,0.01,-0.042,-0.013,0.014,-0.048,-1.569,-0.006,0.074,17.89,73.5,40.514317,-3.405716,614.6,4,5,325.9,0.352
18.98,1.0,0.001,0.018,-0.033,-0.009,0.008,-0.036,-1.567,-0.005,0.072,17.89,73.5,40.514317,-3.405716,614.6,4,5,325.9,0.352
19.08,1.0,-0.012,-0.015,-0.056,-0.007,0.008,-0.046,-1.563,-0.001,0.071,18.91,73.5,40.514465,-3.405856,614.3,4,5,325.9,0.352
19.18,1.0,-0.007,0.017,-0.038,-0.005,0.007,-0.045,-1.564,-0.001,0.07,18.91,73.5,40.514465,-3.405856,614.3,4,5,325.9,0.352
19.28,1.0,-0.012,0.002,-0.043,-0.016,-0.004,-0.042,-1.565,-0.001,0.068,18.91,73.5,40.514465,-3.405856,614.3,4,5,325.9,0.352
19.38,1.0,-0.04,-0.013,-0.02,-0.021,-0.0,-0.033,-1.565,-0.0,0.067,18.91,73.5,40.514465,-3.405856,614.3,4,5,325.9,0.352
19.49,1.0,-0.011,0.01,-0.03,-0.02,0.007,-0.031,-1.565,0.0,0.066,18.91,73.5,40.514465,-3.405856,614.3,4,5,325.9,0.352
19.59,1.0,0.01,0.023,-0.015,-0.007,0.011,-0.021,-1.564,0.002,0.065,18.91,73.5,40.514465,-3.405856,614.3,4,5,325.9,0.352
19.69,1.0,0.011,0.02,-0.015,0.005,0.015,-0.019,-1.563,0.003,0.063,18.91,73.5,40.514465,-3.405856,614.3,4,5,325.9,0.352
19.79,1.0,-0.053,0.014,-0.008,-0.014,0.021,-0.017,-1.564,0.001,0.062,18.91,73.5,40.514465,-3.405856,614.3,4,5,325.9,0.352
19.89,1.0,-0.062,0.004,0.006,-0.044,0.009,-0.003,-1.565,-0.001,0.061,18.91,73.5,40.514465,-3.405856,614.3,4,5,325.9,0.352
19.99,1.0,-0.05,0.003,0.032,-0.052,0.005,0.013,-1.571,-0.004,0.06,18.91,73.5,40.514465,-3.405856,614.3,4,5,325.9,0.352
20.09,1.0,0.003,0.016,0.04,-0.029,0.012,0.027,-1.575,-0.007,0.059,19.89,73.8,40.514614,-3.405996,614.3,4,5,326.2,0.352
20.19,1.0,0.026,-0.009,0.023,0.001,0.001,0.032,-1.578,-0.008,0.058,19.89,73.8,40.514614,-3.405996,614.3,4,5,326.2,0.352
20.29,1.0,0.026,-0.015,0.042,0.019,-0.003,0.03,-1.581,-0.011,0.057,19.89,73.8,40.514614,-3.405996,614.3,4,5,326.2,0.352
20.39,1.0,0.022,0.001,-0.001,0.02,-0.015,0.025,-1.583,-0.015,0.056,19.89,73.8,40.514614,-3.405996,614.3,4,5,326.2,0.352
20.49,1.0,0.01,-0.022,0.009,0.018,-0.005,0.011,-1.582,-0.017,0.055,19.89,73.8,40.514614,-3.405996,614.3,4,5,326.2,0.352
20.6,1.0,-0.039,-0.031,-0.001,-0.004,-0.027,0.008,-1.583,-0.02,0.055,19.89,73.8,40.514614,-3.405996,614.3,4,5,326.2,0.352
20.69,1.0,-0.104,-0.013,0.004,-0.054,-0.014,0.001,-1.585,-0.024,0.054,19.89,73.8,40.514614,-3.405996,614.3,4,5,326.2,0.352
20.79,1.0,-0.065,0.002,-0.003,-0.075,-0.012,0.0,-1.587,-0.028,0.054,19.89,73.8,40.514614,-3.405996,614.3,4,5,326.2,0.352
20.89,1.0,-0.012,-0.042,0.016,-0.051,-0.022,0.006,-1.59,-0.032,0.053,19.89,73.8,40.514614,-3.405996,614.3,4,5,326.2,0.352
20.99,1.0,0.052,-0.004,0.017,0.007,-0.015,0.01,-1.592,-0.031,0.053,19.89,73.8,40.514614,-3.405996,614.3,4,5,326.2,0.352
21.09,1.0,0.052,-0.01,-0.002,0.037,-0.011,0.011,-1.591,-0.033,0.052,20.919999999999998,75.7,40.514771,-3.406132,613.9,4,5,327.0,1.055
21.19,1.0,-0.01,-0.013,-0.001,0.019,-0.011,-0.001,-1.591,-0.034,0.053,20.919999999999998,75.7,40.514771,-3.406132,613.9,4,5,327.0,1.055
21.29,1.0,-0.009,0.004,-0.009,0.0,-0.005,-0.003,-1.592,-0.031,0.052,20.919999999999998,75.7,40.514771,-3.406132,613.9,4,5,327.0,1.055
21.39,1.0,-0.026,-0.006,-0.003,-0.011,-0.005,-0.003,-1.592,-0.031,0.053,20.919999999999998,75.7,40.514771,-3.406132,613.9,4,5,327.0,1.055
21.49,1.0,-0.031,-0.008,-0.008,-0.026,-0.007,-0.005,-1.591,-0.033,0.054,20.919999999999998,75.7,40.514771,-3.406132,613.9,4,5,327.0,1.055
21.59,1.0,-0.027,-0.032,-0.005,-0.025,-0.017,-0.006,-1.592,-0.032,0.055,20.919999999999998,75.7,40.514771,-3.406132,613.9,4,5,327.0,1.055
21.7,1.0,0.011,-0.017,0.001,-0.013,-0.019,-0.004,-1.592,-0.031,0.056,20.919999999999998,75.7,40.514771,-3.406132,613.9,4,5,327.0,1.055
21.8,1.0,0.002,-0.043,0.001,-0.0,-0.032,0.001,-1.593,-0.031,0.058,20.919999999999998,75.7,40.514771,-3.406132,613.9,4,5,327.0,1.055
21.9,1.0,0.006,-0.055,-0.014,0.005,-0.041,-0.007,-1.592,-0.031,0.06,20.919999999999998,75.7,40.514771,-3.406132,613.9,4,5,327.0,1.055
22.0,1.0,-0.025,-0.037,-0.017,-0.01,-0.043,-0.011,-1.591,-0.028,0.062,20.919999999999998,75.7,40.514771,-3.406132,613.9,4,5,327.0,1.055
22.09,1.0,-0.048,-0.057,-0.003,-0.028,-0.047,-0.01,-1.591,-0.025,0.065,21.97,78.0,40.515102,-3.406422,614.5,4,5,324.5,0.352
22.19,1.0,-0.04,-0.034,-0.012,-0.04,-0.041,-0.01,-1.591,-0.023,0.067,21.97,78.0,40.515102,-3.406422,614.5,4,5,324.5,0.352
22.3,1.0,-0.018,-0.039,-0.013,-0.032,-0.046,-0.011,-1.591,-0.021,0.071,21.97,78.0,40.515102,-3.406422,614.5,4,5,324.5,0.352
22.4,1.0,0.001,-0.061,-0.009,-0.011,-0.042,-0.011,-1.591,-0.019,0.074,21.97,78.0,40.515102,-3.406422,614.5,4,5,324.5,0.352
22.5,1.0,-0.001,-0.05,-0.002,-0.007,-0.054,-0.009,-1.591,-0.019,0.078,21.97,78.0,40.515102,-3.406422,614.5,4,5,324.5,0.352
22.6,1.0,-0.019,-0.064,0.0,-0.009,-0.056,-0.0,-1.59,-0.016,0.083,21.97,78.0,40.515102,-3.406422,614.5,4,5,324.5,0.352
22.7,1.0,-0.012,-0.056,-0.001,-0.011,-0.057,-0.004,-1.59,-0.01,0.088,21.97,78.0,40.515102,-3.406422,614.5,4,5,324.5,0.352
22.8,1.0,-0.014,-0.06,-0.021,-0.016,-0.065,-0.007,-1.589,-0.006,0.092,21.97,78.0,40.515102,-3.406422,614.5,4,5,324.5,0.352
22.9,1.0,-0.005,-0.081,0.006,-0.012,-0.063,-0.006,-1.588,-0.003,0.098,21.97,78.0,40.515102,-3.406422,614.5,4,5,324.5,0.352
23.0,1.0,-0.043,-0.046,-0.011,-0.016,-0.057,-0.005,-1.587,-0.0,0.103,21.97,78.0,40.515102,-3.406422,614.5,4,5,324.5,0.352
23.1,1.0,-0.02,-0.049,-0.007,-0.024,-0.056,-0.009,-1.587,0.006,0.108,22.98,78.3,40.515263,-3.406583,615.2,4,5,322.0,2.461
23.2,1.0,-0.04,-0.056,-0.015,-0.035,-0.059,-0.006,-1.588,0.011,0.113,22.98,78.3,40.515263,-3.406583,615.2,4,5,322.0,2.461
23.3,1.0,-0.035,-0.048,-0.021,-0.033,-0.052,-0.018,-1.587,0.01,0.117,22.98,78.3,40.515263,-3.406583,615.2,4,5,322.0,2.461
23.4,1.0,-0.02,-0.013,-0.003,-0.029,-0.035,-0.011,-1.589,0.01,0.121,22.98,78.3,40.515263,-3.406583,615.2,4,5,322.0,2.461
23.5,1.0,-0.03,-0.051,-0.01,-0.028,-0.034,-0.009,-1.59,0.01,0.126,22.98,78.3,40.515263,-3.406583,615.2,4,5,322.0,2.461
23.6,1.0,-0.025,-0.015,-0.01,-0.028,-0.028,-0.009,-1.59,0.01,0.131,22.98,78.3,40.515263,-3.406583,615.2,4,5,322.0,2.461
23.7,1.0,0.027,-0.002,0.004,-0.006,-0.02,-0.005,-1.588,0.007,0.135,22.98,78.3,40.515263,-3.406583,615.2,4,5,322.0,2.461
23.8,1.0,0.03,-0.015,-0.013,0.019,-0.016,-0.007,-1.588,0.01,0.139,22.98,78.3,40.515263,-3.406583,615.2,4,5,322.0,2.461
23.9,1.0,0.032,-0.025,0.002,0.029,-0.008,-0.004,-1.588,0.017,0.144,22.98,78.3,40.515263,-3.406583,615.2,4,5,322.0,2.461
24.0,1.0,-0.1,0.018,-0.059,-0.026,-0.013,-0.025,-1.588,0.02,0.148,22.98,78.3,40.515263,-3.406583,615.2,4,5,322.0,2.461
24.11,1.0,-0.15,-0.005,-0.016,-0.096,-0.0,-0.035,-1.591,0.024,0.152,23.98,79.2,40.515411,-3.406743,615.5,4,5,320.6,4.57
24.2,1.0,-0.091,0.006,0.001,-0.105,0.002,-0.007,-1.596,0.025,0.155,23.98,79.2,40.515411,-3.406743,615.5,4,5,320.6,4.57
24.3,1.0,-0.064,0.025,-0.042,-0.081,0.01,-0.023,-1.595,0.019,0.156,23.98,79.2,40.515411,-3.406743,615.5,4,5,320.6,4.57
24.4,1.0,-0.054,0.053,-0.001,-0.07,0.036,-0.021,-1.596,0.015,0.157,23.98,79.2,40.515411,-3.406743,615.5,4,5,320.6,4.57
24.5,1.0,0.065,0.093,0.018,-0.009,0.059,0.006,-1.597,0.008,0.157,23.98,79.2,40.515411,-3.406743,615.5,4,5,320.6,4.57
24.6,1.0,0.053,0.139,-0.016,0.032,0.099,-0.004,-1.595,0.002,0.157,23.98,79.2,40.515411,-3.406743,615.5,4,5,320.6,4.57
24.71,1.0,0.01,0.096,0.007,0.031,0.105,-0.001,-1.593,0.002,0.155,23.98,79.2,40.515411,-3.406743,615.5,4,5,320.6,4.57
24.81,1.0,-0.008,0.122,0.001,0.006,0.117,0.001,-1.592,0.006,0.154,23.98,79.2,40.515411,-3.406743,615.5,4,5,320.6,4.57
24.91,1.0,0.003,0.083,-0.001,-0.0,0.102,0.002,-1.592,0.005,0.153,23.98,79.2,40.515411,-3.406743,615.5,4,5,320.6,4.57
25.01,1.0,0.001,0.061,-0.006,0.006,0.083,-0.006,-1.591,0.001,0.151,23.98,79.2,40.515411,-3.406743,615.5,4,5,320.6,4.57
25.11,1.0,-0.032,0.084,-0.019,-0.009,0.074,-0.01,-1.59,-0.003,0.148,24.91,79.2,40.515411,-3.406743,615.5,4,5,320.6,3.867
25.21,1.0,-0.031,0.077,0.004,-0.028,0.081,-0.005,-1.592,-0.007,0.146,24.91,79.2,40.515411,-3.406743,615.5,4,5,320.6,3.867
25.31,1.0,-0.007,0.079,0.012,-0.019,0.08,0.005,-1.593,-0.009,0.144,24.91,79.2,40.515411,-3.406743,615.5,4,5,320.6,3.867
25.41,1.0,0.007,0.064,-0.017,-0.006,0.068,-0.003,-1.591,-0.017,0.141,24.91,79.2,40.515411,-3.406743,615.5,4,5,320.6,3.867
25.51,1.0,-0.022,0.069,-0.004,-0.009,0.068,-0.007,-1.591,-0.022,0.138,24.91,79.2,40.515411,-3.406743,615.5,4,5,320.6,3.867
25.61,1.0,-0.07,0.089,0.004,-0.035,0.075,-0.001,-1.593,-0.027,0.134,24.91,79.2,40.515411,-3.406743,615.5,4,5,320.6,3.867
25.71,1.0,-0.055,0.079,0.016,-0.054,0.081,0.006,-1.594,-0.033,0.131,24.91,79.2,40.515411,-3.406743,615.5,4,5,320.6,3.867
25.81,1.0,-0.044,0.09,0.001,-0.045,0.087,0.006,-1.596,-0.04,0.127,24.91,79.2,40.515411,-3.406743,615.5,4,5,320.6,3.867
25.91,1.0,0.06,0.063,0.033,-0.007,0.077,0.015,-1.597,-0.045,0.124,24.91,79.2,40.515411,-3.406743,615.5,4,5,320.6,3.867
26.02,1.0,0.001,0.12,-0.029,0.007,0.097,0.008,-1.597,-0.051,0.119,24.91,79.2,40.515411,-3.406743,615.5,4,5,320.6,3.867
26.11,1.0,0.032,0.15,-0.011,0.023,0.122,-0.019,-1.598,-0.051,0.113,25.91,80.1,40.515564,-3.406911,615.8,4,5,322.0,1.406
26.21,1.0,-0.016,0.078,0.039,0.003,0.102,0.014,-1.598,-0.05,0.106,25.91,80.1,40.515564,-3.406911,615.8,4,5,322.0,1.406
26.31,1.0,0.002,0.108,-0.004,-0.001,0.1,0.007,-1.594,-0.055,0.099,25.91,80.1,40.515564,-3.406911,615.8,4,5,322.0,1.406
26.41,1.0,-0.016,0.173,-0.018,-0.002,0.136,-0.004,-1.592,-0.056,0.092,25.91,80.1,40.515564,-3.406911,615.8,4,5,322.0,1.406
26.51,1.0,-0.062,0.149,0.002,-0.027,0.149,-0.006,-1.592,-0.063,0.086,25.91,80.1,40.515564,-3.406911,615.8,4,5,322.0,1.406
26.61,1.0,-0.068,0.096,0.025,-0.055,0.129,0.008,-1.596,-0.069,0.079,25.91,80.1,40.515564,-3.406911,615.8,4,5,322.0,1.406
26.71,1.0,-0.006,0.053,0.014,-0.043,0.092,0.018,-1.599,-0.075,0.073,25.91,80.1,40.515564,-3.406911,615.8,4,5,322.0,1.406
26.81,1.0,0.078,0.031,0.013,0.017,0.053,0.009,-1.598,-0.077,0.067,25.91,80.1,40.515564,-3.406911,615.8,4,5,322.0,1.406
27.01,1.0,0.017,0.039,0.037,0.01,0.022,0.024,-1.598,-0.077,0.058,25.91,80.1,40.515564,-3.406911,615.8,4,5,322.0,1.406
27.12,1.0,-0.014,0.044,0.014,0.009,0.029,0.027,-1.598,-0.077,0.056,25.91,80.1,40.515564,-3.406911,615.8,4,5,322.0,1.406
27.22,1.0,-0.02,0.016,0.014,-0.015,0.032,0.018,-1.598,-0.076,0.053,26.91,80.5,40.515736,-3.407051,616.4,4,5,325.2,4.57
27.32,1.0,-0.011,-0.053,0.041,-0.009,0.001,0.024,-1.597,-0.076,0.051,26.91,80.5,40.515736,-3.407051,616.4,4,5,325.2,4.57
27.42,1.0,-0.015,-0.06,0.019,-0.014,-0.043,0.028,-1.597,-0.078,0.048,26.91,80.5,40.515736,-3.407051,616.4,4,5,325.2,4.57
27.52,1.0,0.042,-0.007,0.044,0.008,-0.037,0.031,-1.597,-0.081,0.045,26.91,80.5,40.515736,-3.407051,616.4,4,5,325.2,4.57
27.62,1.0,0.001,0.001,0.044,0.019,-0.014,0.041,-1.596,-0.081,0.042,26.91,80.5,40.515736,-3.407051,616.4,4,5,325.2,4.57
27.72,1.0,-0.031,-0.027,0.012,-0.007,-0.01,0.029,-1.597,-0.076,0.041,26.91,80.5,40.515736,-3.407051,616.4,4,5,325.2,4.57
27.83,1.0,-0.018,-0.01,0.047,-0.016,-0.016,0.034,-1.603,-0.067,0.039,26.91,80.5,40.515736,-3.407051,616.4,4,5,325.2,4.57
27.92,1.0,-0.03,-0.012,-0.002,-0.027,-0.01,0.021,-1.605,-0.067,0.038,26.91,80.5,40.515736,-3.407051,616.4,4,5,325.2,4.57
28.02,1.0,-0.022,-0.007,0.036,-0.027,-0.011,0.022,-1.608,-0.066,0.037,26.91,80.5,40.515736,-3.407051,616.4,4,5,325.2,4.57
28.12,1.0,-0.006,-0.024,0.025,-0.016,-0.015,0.028,-1.611,-0.062,0.036,26.91,80.5,40.515736,-3.407051,616.4,4,5,325.2,4.57
28.22,1.0,-0.012,-0.036,0.028,-0.009,-0.021,0.025,-1.613,-0.058,0.035,27.9,82.0,40.515903,-3.4072,617.1,4,5,326.2,4.219
28.32,1.0,0.012,-0.011,0.03,-0.006,-0.029,0.028,-1.615,-0.057,0.034,27.9,82.0,40.515903,-3.4072,617.1,4,5,326.2,4.219
28.42,1.0,0.05,-0.027,0.046,0.024,-0.018,0.037,-1.616,-0.058,0.034,27.9,82.0,40.515903,-3.4072,617.1,4,5,326.2,4.219
28.52,1.0,0.034,-0.032,0.015,0.036,-0.026,0.028,-1.618,-0.058,0.033,27.9,82.0,40.515903,-3.4072,617.1,4,5,326.2,4.219
28.62,1.0,-0.007,-0.017,0.039,0.017,-0.03,0.031,-1.622,-0.056,0.032,27.9,82.0,40.515903,-3.4072,617.1,4,5,326.2,4.219
28.72,1.0,-0.009,-0.018,0.031,0.001,-0.019,0.033,-1.626,-0.058,0.031,27.9,82.0,40.515903,-3.4072,617.1,4,5,326.2,4.219
28.82,1.0,-0.048,-0.036,0.039,-0.023,-0.024,0.034,-1.629,-0.059,0.03,27.9,82.0,40.515903,-3.4072,617.1,4,5,326.2,4.219
28.92,1.0,-0.024,-0.007,0.052,-0.027,-0.021,0.043,-1.631,-0.06,0.03,27.9,82.0,40.515903,-3.4072,617.1,4,5,326.2,4.219
29.03,1.0,-0.019,0.011,0.019,-0.023,-0.007,0.036,-1.634,-0.056,0.029,27.9,82.0,40.515903,-3.4072,617.1,4,5,326.2,4.219
29.13,1.0,-0.013,-0.016,0.037,-0.019,-0.004,0.032,-1.639,-0.052,0.029,27.9,82.0,40.515903,-3.4072,617.1,4,5,326.2,4.219
29.22,1.0,0.007,-0.028,0.042,-0.004,-0.019,0.038,-1.644,-0.048,0.028,28.93,84.4,40.51609,-3.40734,617.5,6,5,327.0,1.758
29.32,1.0,-0.006,-0.029,0.012,-0.008,-0.022,0.028,-1.647,-0.048,0.028,28.93,84.4,40.51609,-3.40734,617.5,6,5,327.0,1.758
29.44,1.0,0.015,-0.04,0.046,-0.001,-0.031,0.032,-1.65,-0.045,0.029,28.93,84.4,40.51609,-3.40734,617.5,6,5,327.0,1.758
29.53,1.0,0.06,-0.058,0.035,0.034,-0.048,0.038,-1.653,-0.039,0.03,28.93,84.4,40.51609,-3.40734,617.5,6,5,327.0,1.758
29.63,1.0,0.019,-0.06,0.009,0.04,-0.051,0.025,-1.652,-0.035,0.032,28.93,84.4,40.51609,-3.40734,617.5,6,5,327.0,1.758
29.73,1.0,-0.073,-0.065,0.001,-0.013,-0.059,0.008,-1.652,-0.028,0.035,28.93,84.4,40.51609,-3.40734,617.5,6,5,327.0,1.758
29.83,1.0,-0.076,-0.059,0.033,-0.058,-0.062,0.02,-1.656,-0.022,0.038,28.93,84.4,40.51609,-3.40734,617.5,6,5,327.0,1.758
29.93,1.0,0.007,-0.029,0.026,-0.037,-0.048,0.027,-1.658,-0.015,0.041,28.93,84.4,40.51609,-3.40734,617.5,6,5,327.0,1.758
30.03,1.0,0.032,-0.062,0.013,0.003,-0.051,0.019,-1.658,-0.01,0.045,28.93,84.4,40.51609,-3.40734,617.5,6,5,327.0,1.758
30.13,1.0,0.014,-0.047,0.004,0.015,-0.048,0.015,-1.658,-0.006,0.048,28.93,84.4,40.51609,-3.40734,617.5,6,5,327.0,1.758
30.23,1.0,-0.023,-0.053,0.006,-0.0,-0.047,0.004,-1.659,-0.001,0.052,29.919999999999998,86.1,40.516262,-3.407491,618.5,6,5,326.2,0.703
30.33,1.0,-0.009,-0.058,0.026,-0.012,-0.054,0.014,-1.661,0.003,0.055,29.919999999999998,86.1,40.516262,-3.407491,618.5,6,5,326.2,0.703
30.44,1.0,0.004,-0.02,0.007,-0.005,-0.042,0.016,-1.662,0.005,0.058,29.919999999999998,86.1,40.516262,-3.407491,618.5,6,5,326.2,0.703
30.53,1.0,0.006,-0.025,-0.007,0.007,-0.03,0.004,-1.661,0.009,0.06,29.919999999999998,86.1,40.516262,-3.407491,618.5,6,5,326.2,0.703
30.63,1.0,0.001,-0.029,-0.01,0.002,-0.031,-0.005,-1.66,0.012,0.063,29.919999999999998,86.1,40.516262,-3.407491,618.5,6,5,326.2,0.703
30.73,1.0,0.003,0.013,-0.025,0.002,-0.013,-0.014,-1.658,0.013,0.066,29.919999999999998,86.1,40.516262,-3.407491,618.5,6,5,326.2,0.703
30.83,1.0,0.004,0.025,-0.004,0.005,0.013,-0.014,-1.656,0.008,0.067,29.919999999999998,86.1,40.516262,-3.407491,618.5,6,5,326.2,0.703
30.93,1.0,-0.025,0.004,-0.021,-0.007,0.015,-0.014,-1.657,0.005,0.069,29.919999999999998,86.1,40.516262,-3.407491,618.5,6,5,326.2,0.703
31.03,1.0,-0.008,0.008,-0.0,-0.019,0.001,-0.009,-1.657,0.004,0.069,29.919999999999998,86.1,40.516262,-3.407491,618.5,6,5,326.2,0.703
31.13,1.0,0.015,0.004,-0.014,0.0,0.004,-0.007,-1.656,0.003,0.07,29.919999999999998,86.1,40.516262,-3.407491,618.5,6,5,326.2,0.703
31.23,1.0,0.014,-0.011,-0.006,0.01,0.003,-0.01,-1.655,0.003,0.071,30.91,92.7,40.516453,-3.407653,619.0,6,5,327.7,1.406
31.33,1.0,-0.008,-0.006,-0.01,0.004,-0.008,-0.007,-1.655,0.003,0.073,30.91,92.7,40.516453,-3.407653,619.0,6,5,327.7,1.406
31.43,1.0,-0.011,0.01,-0.005,-0.006,0.001,-0.01,-1.655,0.003,0.074,30.91,92.7,40.516453,-3.407653,619.0,6,5,327.7,1.406
31.53,1.0,-0.022,0.006,-0.004,-0.01,0.004,-0.005,-1.652,-0.0,0.075,30.91,92.7,40.516453,-3.407653,619.0,6,5,327.7,1.406
31.63,1.0,-0.028,0.029,-0.017,-0.022,0.014,-0.01,-1.649,-0.004,0.076,30.91,92.7,40.516453,-3.407653,619.0,6,5,327.7,1.406
31.73,1.0,-0.029,0.013,-0.015,-0.027,0.017,-0.014,-1.648,-0.007,0.076,30.91,92.7,40.516453,-3.407653,619.0,6,5,327.7,1.406
31.84,1.0,-0.041,0.007,-0.005,-0.033,0.013,-0.01,-1.648,-0.009,0.077,30.91,92.7,40.516453,-3.407653,619.0,6,5,327.7,1.406
31.93,1.0,-0.012,0.008,0.013,-0.027,0.011,0.002,-1.649,-0.01,0.078,30.91,92.7,40.516453,-3.407653,619.0,6,5,327.7,1.406
32.03,1.0,0.016,0.025,-0.016,-0.003,0.017,-0.003,-1.648,-0.015,0.078,30.91,92.7,40.516453,-3.407653,619.0,6,5,327.7,1.406
32.13,1.0,0.017,0.054,-0.024,0.009,0.032,-0.017,-1.645,-0.023,0.078,30.91,92.7,40.516453,-3.407653,619.0,6,5,327.7,1.406
32.24,1.0,-0.056,0.032,-0.005,-0.015,0.037,-0.013,-1.645,-0.024,0.078,31.900000000000002,94.6,40.516651,-3.407831,620.0,6,5,324.8,2.812
32.34,1.0,-0.082,0.029,0.001,-0.052,0.029,-0.004,-1.647,-0.026,0.078,31.900000000000002,94.6,40.516651,-3.407831,620.0,6,5,324.8,2.812
32.44,1.0,-0.046,0.023,-0.001,-0.057,0.03,-0.002,-1.647,-0.029,0.077,31.900000000000002,94.6,40.516651,-3.407831,620.0,6,5,324.8,2.812
32.54,1.0,0.003,0.025,0.001,-0.032,0.03,-0.001,-1.646,-0.034,0.077,31.900000000000002,94.6,40.516651,-3.407831,620.0,6,5,324.8,2.812
32.64,1.0,0.022,0.016,-0.0,-0.001,0.021,-0.001,-1.646,-0.034,0.077,31.900000000000002,94.6,40.516651,-3.407831,620.0,6,5,324.8,2.812
32.74,1.0,0.0,0.016,-0.01,0.01,0.017,-0.004,-1.646,-0.033,0.077,31.900000000000002,94.6,40.516651,-3.407831,620.0,6,5,324.8,2.812
32.84,1.0,0.008,0.029,-0.025,0.006,0.022,-0.012,-1.642,-0.032,0.077,31.900000000000002,94.6,40.516651,-3.407831,620.0,6,5,324.8,2.812
32.94,1.0,-0.024,0.015,-0.031,-0.008,0.022,-0.023,-1.64,-0.036,0.077,31.900000000000002,94.6,40.516651,-3.407831,620.0,6,5,324.8,2.812
33.04,1.0,-0.012,0.013,-0.025,-0.016,0.016,-0.027,-1.638,-0.039,0.076,31.900000000000002,94.6,40.516651,-3.407831,620.0,6,5,324.8,2.812
33.14,1.0,0.005,-0.0,-0.017,-0.008,0.009,-0.021,-1.637,-0.036,0.076,31.900000000000002,94.6,40.516651,-3.407831,620.0,6,5,324.8,2.812
33.24,1.0,0.023,0.015,-0.016,0.011,0.008,-0.017,-1.636,-0.038,0.076,32.99,99.2,40.51704,-3.408188,620.8,6,5,325.2,3.164
33.34,1.0,0.0,0.041,-0.024,0.012,0.025,-0.023,-1.634,-0.038,0.076,32.99,99.2,40.51704,-3.408188,620.8,6,5,325.2,3.164
33.44,1.0,-0.037,0.036,-0.019,-0.014,0.03,-0.018,-1.634,-0.04,0.076,32.99,99.2,40.51704,-3.408188,620.8,6,5,325.2,3.164
33.54,1.0,-0.0,0.017,-0.071,-0.013,0.027,-0.039,-1.629,-0.041,0.076,32.99,99.2,40.51704,-3.408188,620.8,6,5,325.2,3.164
33.64,1.0,0.024,-0.003,-0.1,0.005,0.013,-0.071,-1.619,-0.039,0.076,32.99,99.2,40.51704,-3.408188,620.8,6,5,325.2,3.164
33.74,1.0,-0.003,-0.008,-0.096,0.006,0.003,-0.091,-1.608,-0.039,0.076,32.99,99.2,40.51704,-3.408188,620.8,6,5,325.2,3.164
33.84,1.0,-0.003,0.006,-0.076,-0.002,0.002,-0.087,-1.601,-0.041,0.076,32.99,99.2,40.51704,-3.408188,620.8,6,5,325.2,3.164
33.95,1.0,0.019,0.012,-0.072,0.009,0.006,-0.079,-1.593,-0.043,0.076,32.99,99.2,40.51704,-3.408188,620.8,6,5,325.2,3.164
34.05,1.0,0.008,0.017,-0.062,0.01,0.01,-0.07,-1.589,-0.043,0.076,32.99,99.2,40.51704,-3.408188,620.8,6,5,325.2,3.164
34.15,1.0,-0.023,0.028,-0.053,-0.002,0.021,-0.06,-1.585,-0.044,0.076,32.99,99.2,40.51704,-3.408188,620.8,6,5,325.2,3.164
34.24,1.0,-0.036,0.002,-0.053,-0.018,0.013,-0.059,-1.58,-0.046,0.076,33.940000000000005,99.2,40.51704,-3.408188,620.8,6,5,325.2,0.703
34.34,1.0,-0.031,0.01,0.004,-0.028,0.008,-0.031,-1.579,-0.047,0.076,33.940000000000005,99.2,40.51704,-3.408188,620.8,6,5,325.2,0.703
34.44,1.0,-0.021,0.02,-0.006,-0.03,0.016,-0.012,-1.579,-0.049,0.075,33.940000000000005,99.2,40.51704,-3.408188,620.8,6,5,325.2,0.703
34.55,1.0,0.009,-0.013,0.019,-0.01,0.002,0.002,-1.579,-0.048,0.075,33.940000000000005,99.2,40.51704,-3.408188,620.8,6,5,325.2,0.703
34.65,1.0,-0.008,-0.019,0.016,-0.005,-0.008,0.01,-1.58,-0.046,0.076,33.940000000000005,99.2,40.51704,-3.408188,620.8,6,5,325.2,0.703
34.75,1.0,-0.017,-0.017,0.015,-0.013,-0.014,0.016,-1.582,-0.043,0.076,33.940000000000005,99.2,40.51704,-3.408188,620.8,6,5,325.2,0.703
34.85,1.0,0.012,-0.009,0.01,-0.001,-0.014,0.013,-1.582,-0.04,0.076,33.940000000000005,99.2,40.51704,-3.408188,620.8,6,5,325.2,0.703
34.95,1.0,0.004,-0.004,-0.005,0.008,-0.007,0.006,-1.581,-0.039,0.077,33.940000000000005,99.2,40.51704,-3.408188,620.8,6,5,325.2,0.703
35.05,1.0,-0.004,-0.016,0.02,-0.002,-0.011,0.008,-1.583,-0.036,0.077,33.940000000000005,99.2,40.51704,-3.408188,620.8,6,5,325.2,0.703
35.15,1.0,-0.016,-0.047,0.017,-0.006,-0.026,0.015,-1.584,-0.031,0.079,33.940000000000005,99.2,40.51704,-3.408188,620.8,6,5,325.2,0.703
35.25,1.0,-0.026,-0.051,-0.005,-0.02,-0.04,0.005,-1.584,-0.026,0.082,34.92,98.7,40.517246,-3.408372,621.5,6,5,325.5,1.055
35.35,1.0,-0.028,-0.051,0.006,-0.026,-0.048,0.002,-1.584,-0.018,0.084,34.92,98.7,40.517246,-3.408372,621.5,6,5,325.5,1.055
35.45,1.0,-0.008,-0.055,0.019,-0.02,-0.053,0.011,-1.585,-0.016,0.086,34.92,98.7,40.517246,-3.408372,621.5,6,5,325.5,1.055
35.55,1.0,0.001,-0.025,0.003,-0.009,-0.047,0.012,-1.587,-0.013,0.088,34.92,98.7,40.517246,-3.408372,621.5,6,5,325.5,1.055
35.65,1.0,0.018,-0.004,0.013,0.01,-0.02,0.01,-1.588,-0.007,0.09,34.92,98.7,40.517246,-3.408372,621.5,6,5,325.5,1.055
35.76,1.0,0.028,-0.013,0.022,0.02,-0.014,0.014,-1.589,-0.003,0.093,34.92,98.7,40.517246,-3.408372,621.5,6,5,325.5,1.055
35.85,1.0,-0.011,-0.043,0.008,0.012,-0.023,0.013,-1.59,0.001,0.096,34.92,98.7,40.517246,-3.408372,621.5,6,5,325.5,1.055
35.96,1.0,-0.025,-0.068,0.005,-0.011,-0.046,0.01,-1.591,0.004,0.099,34.92,98.7,40.517246,-3.408372,621.5,6,5,325.5,1.055
36.05,1.0,-0.052,-0.013,0.006,-0.028,-0.038,0.005,-1.59,0.006,0.101,34.92,98.7,40.517246,-3.408372,621.5,6,5,325.5,1.055
36.15,1.0,-0.063,-0.016,0.03,-0.049,-0.025,0.017,-1.592,0.007,0.104,34.92,98.7,40.517246,-3.408372,621.5,6,5,325.5,1.055
36.25,1.0,-0.027,-0.032,0.002,-0.049,-0.024,0.012,-1.593,0.005,0.107,35.910000000000004,99.8,40.517445,-3.408561,621.7,6,5,324.5,1.055
36.35,1.0,0.089,-0.039,0.035,0.006,-0.032,0.02,-1.594,0.006,0.109,35.910000000000004,99.8,40.517445,-3.408561,621.7,6,5,324.5,1.055
36.45,1.0,0.117,-0.016,0.016,0.074,-0.03,0.023,-1.593,0.008,0.112,35.910000000000004,99.8,40.517445,-3.408561,621.7,6,5,324.5,1.055
36.55,1.0,0.059,-0.039,0.021,0.084,-0.03,0.018,-1.593,0.01,0.115,35.910000000000004,99.8,40.517445,-3.408561,621.7,6,5,324.5,1.055
36.65,1.0,-0.013,-0.015,0.009,0.039,-0.027,0.018,-1.595,0.015,0.117,35.910000000000004,99.8,40.517445,-3.408561,621.7,6,5,324.5,1.055
36.75,1.0,-0.063,0.007,0.001,-0.017,-0.006,0.004,-1.594,0.015,0.119,35.910000000000004,99.8,40.517445,-3.408561,621.7,6,5,324.5,1.055
36.96,1.0,-0.047,-0.007,0.026,-0.062,-0.006,0.02,-1.597,0.012,0.122,35.910000000000004,99.8,40.517445,-3.408561,621.7,6,5,324.5,1.055
37.06,1.0,0.029,0.014,-0.003,-0.021,0.002,0.015,-1.6,0.011,0.123,35.910000000000004,99.8,40.517445,-3.408561,621.7,6,5,324.5,1.055
37.17,1.0,0.021,0.02,0.004,0.014,0.018,0.006,-1.601,0.007,0.123,35.910000000000004,99.8,40.517445,-3.408561,621.7,6,5,324.5,1.055
37.26,1.0,-0.016,0.039,-0.007,0.004,0.027,-0.002,-1.601,-0.0,0.124,35.910000000000004,99.8,40.517445,-3.408561,621.7,6,5,324.5,1.055
37.36,1.0,-0.056,0.052,-0.0,-0.028,0.041,-0.0,-1.602,-0.002,0.123,36.940000000000005,101.1,40.517643,-3.408758,622.4,6,5,323.4,2.109
37.46,1.0,-0.036,0.033,-0.016,-0.042,0.043,-0.008,-1.602,-0.007,0.123,36.940000000000005,101.1,40.517643,-3.408758,622.4,6,5,323.4,2.109
37.56,1.0,0.021,0.043,0.008,-0.01,0.039,-0.004,-1.601,-0.011,0.122,36.940000000000005,101.1,40.517643,-3.408758,622.4,6,5,323.4,2.109
37.66,1.0,0.026,0.026,0.004,0.012,0.034,0.002,-1.601,-0.014,0.121,36.940000000000005,101.1,40.517643,-3.408758,622.4,6,5,323.4,2.109
37.76,1.0,0.05,0.049,0.01,0.03,0.039,0.006,-1.602,-0.018,0.12,36.940000000000005,101.1,40.517643,-3.408758,622.4,6,5,323.4,2.109
37.86,1.0,0.024,0.029,-0.001,0.035,0.037,0.001,-1.601,-0.025,0.119,36.940000000000005,101.1,40.517643,-3.408758,622.4,6,5,323.4,2.109
37.96,1.0,-0.032,0.058,0.009,0.003,0.041,0.006,-1.602,-0.025,0.119,36.940000000000005,101.1,40.517643,-3.408758,622.4,6,5,323.4,2.109
38.06,1.0,-0.06,0.047,-0.0,-0.029,0.049,0.003,-1.601,-0.027,0.118,36.940000000000005,101.1,40.517643,-3.408758,622.4,6,5,323.4,2.109
38.17,1.0,-0.046,0.004,0.003,-0.046,0.028,0.005,-1.601,-0.026,0.118,36.940000000000005,101.1,40.517643,-3.408758,622.4,6,5,323.4,2.109
38.27,1.0,-0.019,0.005,-0.015,-0.035,0.012,-0.004,-1.6,-0.027,0.117,36.940000000000005,101.1,40.517643,-3.408758,622.4,6,5,323.4,2.109
38.36,1.0,-0.003,0.03,0.009,-0.015,0.019,0.001,-1.601,-0.027,0.117,37.99,104.7,40.518063,-3.409169,623.1,6,5,323.8,2.109
38.46,1.0,-0.012,0.023,-0.016,-0.012,0.028,-0.007,-1.601,-0.027,0.116,37.99,104.7,40.518063,-3.409169,623.1,6,5,323.8,2.109
38.56,1.0,-0.036,0.021,0.003,-0.021,0.019,-0.003,-1.602,-0.027,0.116,37.99,104.7,40.518063,-3.409169,623.1,6,5,323.8,2.109
38.66,1.0,-0.031,0.02,-0.002,-0.026,0.019,-0.002,-1.601,-0.03,0.115,37.99,104.7,40.518063,-3.409169,623.1,6,5,323.8,2.109
38.76,1.0,-0.03,0.026,-0.0,-0.033,0.023,0.001,-1.602,-0.028,0.114,37.99,104.7,40.518063,-3.409169,623.1,6,5,323.8,2.109
38.86,1.0,-0.028,0.046,-0.008,-0.025,0.038,-0.006,-1.601,-0.029,0.113,37.99,104.7,40.518063,-3.409169,623.1,6,5,323.8,2.109
38.96,1.0,-0.013,0.013,0.011,-0.024,0.025,0.001,-1.601,-0.029,0.113,37.99,104.7,40.518063,-3.409169,623.1,6,5,323.8,2.109
39.06,1.0,-0.002,-0.001,-0.014,-0.01,0.011,-0.004,-1.6,-0.031,0.112,37.99,104.7,40.518063,-3.409169,623.1,6,5,323.8,2.109
39.16,1.0,-0.016,-0.013,0.0,-0.012,-0.004,-0.005,-1.6,-0.027,0.111,37.99,104.7,40.518063,-3.409169,623.1,6,5,323.8,2.109
39.27,1.0,-0.029,0.042,-0.002,-0.023,0.017,0.003,-1.601,-0.027,0.11,37.99,104.7,40.518063,-3.409169,623.1,6,5,323.8,2.109
39.36,1.0,-0.019,0.017,-0.003,-0.022,0.023,-0.003,-1.601,-0.028,0.109,38.900000000000006,104.7,40.518063,-3.409169,623.1,6,5,323.8,1.406
39.46,1.0,-0.013,0.007,0.003,-0.019,0.015,0.0,-1.601,-0.029,0.109,38.900000000000006,104.7,40.518063,-3.409169,623.1,6,5,323.8,1.406
39.56,1.0,-0.015,0.01,-0.006,-0.014,0.012,-0.002,-1.601,-0.027,0.108,38.900000000000006,104.7,40.518063,-3.409169,623.1,6,5,323.8,1.406
39.66,1.0,0.0,0.004,0.009,-0.01,0.01,-0.001,-1.602,-0.023,0.107,38.900000000000006,104.7,40.518063,-3.409169,623.1,6,5,323.8,1.406
39.77,1.0,0.033,0.032,0.021,0.01,0.015,0.014,-1.603,-0.025,0.106,38.900000000000006,104.7,40.518063,-3.409169,623.1,6,5,323.8,1.406
39.87,1.0,0.051,-0.004,-0.01,0.037,0.013,0.004,-1.601,-0.026,0.105,38.900000000000006,104.7,40.518063,-3.409169,623.1,6,5,323.8,1.406
39.97,1.0,0.016,0.024,-0.018,0.031,0.014,-0.007,-1.6,-0.027,0.104,38.900000000000006,104.7,40.518063,-3.409169,623.1,6,5,323.8,1.406
40.08,1.0,-0.046,0.005,0.003,-0.004,0.009,-0.01,-1.6,-0.026,0.103,38.900000000000006,104.7,40.518063,-3.409169,623.1,6,5,323.8,1.406
40.17,1.0,-0.054,0.001,0.001,-0.034,0.006,-0.001,-1.6,-0.026,0.102,38.900000000000006,104.7,40.518063,-3.409169,623.1,6,5,323.8,1.406
40.27,1.0,-0.042,-0.013,0.009,-0.044,-0.002,0.003,-1.6,-0.028,0.101,38.900000000000006,104.7,40.518063,-3.409169,623.1,6,5,323.8,1.406
40.37,1.0,0.018,0.012,-0.019,-0.019,-0.002,-0.001,-1.6,-0.028,0.099,39.89,106.3,40.518272,-3.409384,623.6,6,5,324.1,1.758
40.47,1.0,0.012,-0.007,0.001,0.005,0.002,-0.008,-1.6,-0.023,0.099,39.89,106.3,40.518272,-3.409384,623.6,6,5,324.1,1.758
40.57,1.0,-0.021,-0.042,0.001,-0.004,-0.015,-0.001,-1.601,-0.018,0.099,39.89,106.3,40.518272,-3.409384,623.6,6,5,324.1,1.758
40.67,1.0,-0.061,-0.08,-0.004,-0.032,-0.05,-0.004,-1.599,-0.013,0.1,39.89,106.3,40.518272,-3.409384,623.6,6,5,324.1,1.758
40.77,1.0,-0.024,-0.076,-0.003,-0.039,-0.071,-0.001,-1.599,-0.009,0.102,39.89,106.3,40.518272,-3.409384,623.6,6,5,324.1,1.758
40.87,1.0,0.027,-0.085,-0.007,-0.006,-0.078,-0.003,-1.6,0.001,0.104,39.89,106.3,40.518272,-3.409384,623.6,6,5,324.1,1.758
40.97,1.0,0.001,-0.068,-0.009,0.008,-0.074,-0.004,-1.599,0.007,0.105,39.89,106.3,40.518272,-3.409384,623.6,6,5,324.1,1.758
41.07,1.0,-0.008,-0.043,-0.007,-0.004,-0.06,-0.011,-1.598,0.01,0.107,39.89,106.3,40.518272,-3.409384,623.6,6,5,324.1,1.758
41.18,1.0,-0.014,-0.031,-0.006,-0.01,-0.047,-0.005,-1.598,0.013,0.108,39.89,106.3,40.518272,-3.409384,623.6,6,5,324.1,1.758
41.28,1.0,-0.018,0.003,-0.019,-0.015,-0.023,-0.012,-1.598,0.016,0.108,39.89,106.3,40.518272,-3.409384,623.6,6,5,324.1,1.758
41.37,1.0,0.018,0.007,-0.0,-0.001,-0.0,-0.01,-1.598,0.017,0.108,40.900000000000006,107.1,40.51849,-3.409592,623.9,6,5,324.5,0.703
41.47,1.0,-0.007,0.016,0.006,-0.0,0.006,-0.001,-1.599,0.017,0.108,40.900000000000006,107.1,40.51849,-3.409592,623.9,6,5,324.5,0.703
41.57,1.0,-0.002,0.013,-0.022,-0.011,0.011,-0.009,-1.598,0.016,0.108,40.900000000000006,107.1,40.51849,-3.409592,623.9,6,5,324.5,0.703
41.67,1.0,0.005,-0.004,-0.003,0.001,0.006,-0.008,-1.598,0.016,0.107,40.900000000000006,107.1,40.51849,-3.409592,623.9,6,5,324.5,0.703
41.78,1.0,0.028,0.018,-0.004,0.018,0.008,-0.005,-1.597,0.015,0.106,40.900000000000006,107.1,40.51849,-3.409592,623.9,6,5,324.5,0.703
41.87,1.0,-0.008,0.043,-0.014,0.018,0.025,-0.007,-1.596,0.013,0.105,40.900000000000006,107.1,40.51849,-3.409592,623.9,6,5,324.5,0.703
41.97,1.0,-0.03,0.026,-0.022,-0.008,0.029,-0.015,-1.593,0.011,0.105,40.900000000000006,107.1,40.51849,-3.409592,623.9,6,5,324.5,0.703
42.07,1.0,-0.037,0.009,-0.004,-0.03,0.024,-0.013,-1.593,0.009,0.104,40.900000000000006,107.1,40.51849,-3.409592,623.9,6,5,324.5,0.703
42.18,1.0,-0.007,0.03,0.0,-0.019,0.023,-0.003,-1.595,0.007,0.103,40.900000000000006,107.1,40.51849,-3.409592,623.9,6,5,324.5,0.703
42.28,1.0,-0.064,0.018,-0.023,-0.039,0.021,-0.014,-1.595,0.007,0.102,40.900000000000006,107.1,40.51849,-3.409592,623.9,6,5,324.5,0.703
42.38,1.0,-0.076,0.003,-0.018,-0.06,0.012,-0.014,-1.594,0.004,0.102,41.900000000000006,108.7,40.518681,-3.409816,624.6,6,5,324.1,0.352
42.48,1.0,-0.071,0.011,-0.002,-0.069,0.011,-0.013,-1.594,0.001,0.101,41.900000000000006,108.7,40.518681,-3.409816,624.6,6,5,324.1,0.352
42.58,1.0,0.009,0.016,0.016,-0.04,0.01,0.005,-1.595,-0.003,0.1,41.900000000000006,108.7,40.518681,-3.409816,624.6,6,5,324.1,0.352
42.68,1.0,0.027,0.022,-0.013,-0.001,0.015,-0.002,-1.594,-0.001,0.099,41.900000000000006,108.7,40.518681,-3.409816,624.6,6,5,324.1,0.352
42.78,1.0,0.057,0.023,0.009,0.032,0.019,0.003,-1.594,0.001,0.099,41.900000000000006,108.7,40.518681,-3.409816,624.6,6,5,324.1,0.352
42.88,1.0,0.11,0.016,-0.011,0.069,0.022,-0.004,-1.589,0.001,0.098,41.900000000000006,108.7,40.518681,-3.409816,624.6,6,5,324.1,0.352
42.99,1.0,0.035,-0.021,-0.026,0.072,0.004,-0.013,-1.587,-0.001,0.097,41.900000000000006,108.7,40.518681,-3.409816,624.6,6,5,324.1,0.352
43.08,1.0,-0.077,0.002,0.005,-0.003,-0.005,-0.01,-1.587,-0.002,0.096,41.900000000000006,108.7,40.518681,-3.409816,624.6,6,5,324.1,0.352
43.18,1.0,-0.064,0.021,0.002,-0.046,0.007,0.001,-1.587,-0.005,0.095,41.900000000000006,108.7,40.518681,-3.409816,624.6,6,5,324.1,0.352
43.28,1.0,-0.025,0.012,-0.025,-0.042,0.014,-0.01,-1.584,-0.007,0.095,41.900000000000006,108.7,40.518681,-3.409816,624.6,6,5,324.1,0.352
43.38,1.0,0.004,-0.014,-0.015,-0.018,0.003,-0.018,-1.583,-0.008,0.095,42.89,109.3,40.518906,-3.410023,625.0,6,5,324.1,0.352
43.48,1.0,0.009,-0.004,0.002,-0.001,-0.007,-0.008,-1.583,-0.007,0.094,42.89,109.3,40.518906,-3.410023,625.0,6,5,324.1,0.352
43.58,1.0,0.023,0.008,-0.003,0.008,0.0,-0.002,-1.584,-0.008,0.093,42.89,109.3,40.518906,-3.410023,625.0,6,5,324.1,0.352
43.69,1.0,-0.01,0.01,-0.005,0.008,0.009,-0.005,-1.583,-0.012,0.092,42.89,109.3,40.518906,-3.410023,625.0,6,5,324.1,0.352
43.79,1.0,-0.059,-0.002,0.011,-0.023,0.006,0.003,-1.584,-0.012,0.091,42.89,109.3,40.518906,-3.410023,625.0,6,5,324.1,0.352
43.88,1.0,-0.003,0.011,-0.003,-0.028,0.007,0.0,-1.583,-0.014,0.091,42.89,109.3,40.518906,-3.410023,625.0,6,5,324.1,0.352
43.98,1.0,0.039,-0.032,-0.009,0.007,-0.008,-0.004,-1.582,-0.013,0.09,42.89,109.3,40.518906,-3.410023,625.0,6,5,324.1,0.352
44.09,1.0,0.013,-0.017,-0.016,0.018,-0.021,-0.008,-1.581,-0.011,0.089,42.89,109.3,40.518906,-3.410023,625.0,6,5,324.1,0.352
44.19,1.0,-0.036,0.02,-0.01,-0.007,-0.005,-0.012,-1.582,-0.012,0.088,42.89,109.3,40.518906,-3.410023,625.0,6,5,324.1,0.352
44.28,1.0,0.013,0.018,-0.008,-0.005,0.014,-0.01,-1.581,-0.011,0.088,42.89,109.3,40.518906,-3.410023,625.0,6,5,324.1,0.352
44.38,1.0,-0.017,-0.003,0.004,-0.003,0.006,-0.003,-1.581,-0.01,0.087,43.89,109.9,40.519127,-3.410235,625.3,6,5,324.5,0.352
44.48,1.0,-0.041,0.0,-0.017,-0.024,0.003,-0.01,-1.579,-0.009,0.087,43.89,109.9,40.519127,-3.410235,625.3,6,5,324.5,0.352
44.58,1.0,-0.054,-0.016,-0.015,-0.042,-0.007,-0.01,-1.578,-0.008,0.087,43.89,109.9,40.519127,-3.410235,625.3,6,5,324.5,0.352
44.69,1.0,-0.009,-0.027,-0.013,-0.028,-0.016,-0.015,-1.577,-0.008,0.086,43.89,109.9,40.519127,-3.410235,625.3,6,5,324.5,0.352
44.79,1.0,0.043,-0.002,-0.001,0.0,-0.015,-0.009,-1.577,-0.007,0.086,43.89,109.9,40.519127,-3.410235,625.3,6,5,324.5,0.352
44.89,1.0,0.047,0.0,-0.007,0.032,-0.001,-0.004,-1.577,-0.008,0.085,43.89,109.9,40.519127,-3.410235,625.3,6,5,324.5,0.352
44.99,1.0,-0.03,-0.018,-0.012,0.01,-0.012,-0.007,-1.577,-0.005,0.085,43.89,109.9,40.519127,-3.410235,625.3,6,5,324.5,0.352
45.09,1.0,-0.036,-0.028,-0.01,-0.02,-0.017,-0.01,-1.576,-0.005,0.086,43.89,109.9,40.519127,-3.410235,625.3,6,5,324.5,0.352
45.19,1.0,-0.044,-0.035,-0.013,-0.029,-0.025,-0.012,-1.576,-0.004,0.086,43.89,109.9,40.519127,-3.410235,625.3,6,5,324.5,0.352
45.29,1.0,-0.034,-0.04,-0.01,-0.036,-0.039,-0.012,-1.575,-0.003,0.086,43.89,109.9,40.519127,-3.410235,625.3,6,5,324.5,0.352
45.39,1.0,0.002,-0.007,-0.003,-0.022,-0.023,-0.006,-1.574,-0.006,0.086,44.89,110.5,40.519344,-3.410446,626.1,6,5,324.8,0.703
45.49,1.0,0.032,-0.018,-0.0,0.004,-0.017,-0.006,-1.574,-0.005,0.086,44.89,110.5,40.519344,-3.410446,626.1,6,5,324.8,0.703
45.59,1.0,-0.013,-0.039,-0.008,0.009,-0.027,-0.0,-1.574,-0.006,0.086,44.89,110.5,40.519344,-3.410446,626.1,6,5,324.8,0.703
45.69,1.0,-0.031,-0.011,-0.005,-0.012,-0.023,-0.01,-1.574,-0.006,0.086,44.89,110.5,40.519344,-3.410446,626.1,6,5,324.8,0.703
45.79,1.0,0.005,0.004,-0.015,-0.011,-0.01,-0.008,-1.573,-0.008,0.086,44.89,110.5,40.519344,-3.410446,626.1,6,5,324.8,0.703
45.9,1.0,-0.01,-0.029,-0.003,-0.006,-0.013,-0.008,-1.572,-0.009,0.086,44.89,110.5,40.519344,-3.410446,626.1,6,5,324.8,0.703
45.99,1.0,-0.006,-0.013,-0.017,-0.005,-0.015,-0.01,-1.57,-0.009,0.087,44.89,110.5,40.519344,-3.410446,626.1,6,5,324.8,0.703
46.09,1.0,0.007,-0.015,0.018,-0.004,-0.016,-0.001,-1.571,-0.008,0.087,44.89,110.5,40.519344,-3.410446,626.1,6,5,324.8,0.703
46.19,1.0,-0.027,-0.004,-0.014,-0.007,-0.016,0.0,-1.571,-0.01,0.087,44.89,110.5,40.519344,-3.410446,626.1,6,5,324.8,0.703
46.3,1.0,-0.027,-0.045,-0.005,-0.027,-0.027,-0.007,-1.569,-0.011,0.087,44.89,110.5,40.519344,-3.410446,626.1,6,5,324.8,0.703
46.4,1.0,0.021,-0.008,-0.002,-0.007,-0.02,-0.002,-1.57,-0.009,0.087,45.900000000000006,114.8,40.519577,-3.41066,626.0,6,5,325.2,0.703
46.49,1.0,0.034,0.004,-0.024,0.02,-0.006,-0.013,-1.567,-0.009,0.088,45.900000000000006,114.8,40.519577,-3.41066,626.0,6,5,325.2,0.703
46.59,1.0,0.002,-0.038,-0.013,0.017,-0.016,-0.015,-1.566,-0.006,0.088,45.900000000000006,114.8,40.519577,-3.41066,626.0,6,5,325.2,0.703
46.69,1.0,-0.048,-0.044,0.004,-0.011,-0.032,-0.008,-1.567,-0.003,0.089,45.900000000000006,114.8,40.519577,-3.41066,626.0,6,5,325.2,0.703
46.79,1.0,0.025,0.026,-0.007,-0.007,-0.013,-0.001,-1.566,-0.003,0.089,45.900000000000006,114.8,40.519577,-3.41066,626.0,6,5,325.2,0.703
46.9,1.0,-0.023,0.012,-0.044,-0.004,0.007,-0.021,-1.563,-0.003,0.089,45.900000000000006,114.8,40.519577,-3.41066,626.0,6,5,325.2,0.703
46.99,1.0,-0.01,-0.002,0.006,-0.019,0.003,-0.017,-1.562,-0.004,0.09,45.900000000000006,114.8,40.519577,-3.41066,626.0,6,5,325.2,0.703
47.1,1.0,0.032,-0.0,-0.006,0.005,0.002,-0.008,-1.561,-0.002,0.09,45.900000000000006,114.8,40.519577,-3.41066,626.0,6,5,325.2,0.703
47.2,1.0,0.028,-0.017,-0.007,0.025,-0.004,-0.004,-1.559,-0.004,0.09,45.900000000000006,114.8,40.519577,-3.41066,626.0,6,5,325.2,0.703
47.3,1.0,-0.003,-0.025,-0.009,0.016,-0.019,-0.011,-1.558,-0.002,0.09,45.900000000000006,114.8,40.519577,-3.41066,626.0,6,5,325.2,0.703
47.4,1.0,-0.001,0.01,0.005,0.002,-0.009,-0.001,-1.559,-0.0,0.091,46.89,111.2,40.519798,-3.410874,626.5,6,5,324.5,0.703
47.5,1.0,-0.002,0.013,-0.005,0.003,0.005,-0.001,-1.559,0.0,0.091,46.89,111.2,40.519798,-3.410874,626.5,6,5,324.5,0.703
47.6,1.0,-0.027,0.021,-0.008,-0.016,0.015,-0.004,-1.559,-0.002,0.091,46.89,111.2,40.519798,-3.410874,626.5,6,5,324.5,0.703
47.7,1.0,-0.058,0.004,-0.013,-0.038,0.013,-0.011,-1.558,-0.003,0.09,46.89,111.2,40.519798,-3.410874,626.5,6,5,324.5,0.703
47.8,1.0,-0.016,0.025,-0.001,-0.038,0.01,-0.004,-1.559,-0.005,0.09,46.89,111.2,40.519798,-3.410874,626.5,6,5,324.5,0.703
47.9,1.0,0.007,0.012,-0.016,-0.004,0.024,-0.012,-1.559,-0.009,0.09,46.89,111.2,40.519798,-3.410874,626.5,6,5,324.5,0.703
48.0,1.0,0.028,0.015,0.012,0.007,0.012,-0.003,-1.559,-0.01,0.089,46.89,111.2,40.519798,-3.410874,626.5,6,5,324.5,0.703
48.1,1.0,-0.012,-0.02,0.011,0.009,0.0,0.007,-1.56,-0.011,0.089,46.89,111.2,40.519798,-3.410874,626.5,6,5,324.5,0.703
48.21,1.0,-0.006,0.028,0.006,-0.006,0.002,0.009,-1.559,-0.015,0.087,46.89,111.2,40.519798,-3.410874,626.5,6,5,324.5,0.703
48.31,1.0,0.001,0.043,-0.018,0.002,0.03,-0.005,-1.558,-0.022,0.085,46.89,111.2,40.519798,-3.410874,626.5,6,5,324.5,0.703
48.4,1.0,-0.016,0.052,0.016,-0.008,0.04,0.001,-1.559,-0.026,0.083,47.92,110.9,40.52002,-3.411085,627.1,6,5,324.5,0.703
48.5,1.0,-0.027,0.072,-0.004,-0.016,0.055,0.003,-1.559,-0.034,0.08,47.92,110.9,40.52002,-3.411085,627.1,6,5,324.5,0.703
48.6,1.0,0.004,0.048,0.003,-0.009,0.059,0.002,-1.559,-0.04,0.078,47.92,110.9,40.52002,-3.411085,627.1,6,5,324.5,0.703
48.7,1.0,-0.007,0.026,-0.002,-0.009,0.044,-0.002,-1.559,-0.041,0.076,47.92,110.9,40.52002,-3.411085,627.1,6,5,324.5,0.703
48.81,1.0,-0.044,0.006,0.004,-0.02,0.023,0.002,-1.56,-0.04,0.074,47.92,110.9,40.52002,-3.411085,627.1,6,5,324.5,0.703
48.9,1.0,-0.066,0.026,0.0,-0.046,0.02,0.001,-1.561,-0.043,0.072,47.92,110.9,40.52002,-3.411085,627.1,6,5,324.5,0.703
49.0,1.0,-0.081,0.031,0.003,-0.066,0.025,0.002,-1.563,-0.046,0.07,47.92,110.9,40.52002,-3.411085,627.1,6,5,324.5,0.703
49.1,1.0,-0.033,0.039,-0.001,-0.064,0.031,-0.001,-1.566,-0.048,0.069,47.92,110.9,40.52002,-3.411085,627.1,6,5,324.5,0.703
49.21,1.0,-0.038,0.001,-0.002,-0.042,0.019,-0.001,-1.568,-0.049,0.067,47.92,110.9,40.52002,-3.411085,627.1,6,5,324.5,0.703
49.31,1.0,-0.098,0.004,0.004,-0.066,0.009,0.002,-1.571,-0.049,0.065,47.92,110.9,40.52002,-3.411085,627.1,6,5,324.5,0.703
49.41,1.0,0.055,0.025,0.03,-0.03,0.017,0.013,-1.571,-0.05,0.064,48.89,112.3,40.520237,-3.411296,627.3,6,5,325.2,0.703
49.51,1.0,0.17,-0.024,-0.011,0.075,0.002,0.005,-1.566,-0.047,0.063,48.89,112.3,40.520237,-3.411296,627.3,6,5,325.2,0.703
49.61,1.0,0.067,-0.024,-0.001,0.101,-0.015,0.002,-1.566,-0.047,0.061,48.89,112.3,40.520237,-3.411296,627.3,6,5,325.2,0.703
49.71,1.0,0.002,-0.023,0.017,0.051,-0.019,0.007,-1.566,-0.047,0.06,48.89,112.3,40.520237,-3.411296,627.3,6,5,325.2,0.703
49.81,1.0,0.01,-0.011,0.004,0.034,-0.015,0.011,-1.564,-0.044,0.06,48.89,112.3,40.520237,-3.411296,627.3,6,5,325.2,0.703
49.91,1.0,-0.082,-0.019,-0.018,-0.022,-0.02,-0.008,-1.563,-0.042,0.059,48.89,112.3,40.520237,-3.411296,627.3,6,5,325.2,0.703
50.01,1.0,-0.064,-0.01,0.015,-0.067,-0.013,0.003,-1.563,-0.042,0.058,48.89,112.3,40.520237,-3.411296,627.3,6,5,325.2,0.703
50.11,1.0,0.093,-0.008,0.027,-0.002,-0.01,0.017,-1.563,-0.041,0.058,48.89,112.3,40.520237,-3.411296,627.3,6,5,325.2,0.703
50.21,1.0,0.013,-0.023,-0.033,0.044,-0.013,-0.004,-1.56,-0.039,0.057,48.89,112.3,40.520237,-3.411296,627.3,6,5,325.2,0.703
50.31,1.0,-0.151,-0.043,0.007,-0.045,-0.026,-0.008,-1.564,-0.036,0.058,48.89,112.3,40.520237,-3.411296,627.3,6,5,325.2,0.703
50.41,1.0,-0.14,-0.015,0.028,-0.119,-0.028,0.013,-1.566,-0.037,0.058,49.940000000000005,110.9,40.520458,-3.411503,627.5,6,5,325.9,1.406
50.51,1.0,-0.015,-0.013,0.011,-0.092,-0.014,0.015,-1.568,-0.032,0.058,49.940000000000005,110.9,40.520458,-3.411503,627.5,6,5,325.9,1.406
50.61,1.0,0.154,-0.02,0.012,0.033,-0.024,0.015,-1.57,-0.028,0.058,49.940000000000005,110.9,40.520458,-3.411503,627.5,6,5,325.9,1.406
50.71,1.0,0.111,-0.029,-0.037,0.106,-0.02,-0.014,-1.568,-0.025,0.058,49.940000000000005,110.9,40.520458,-3.411503,627.5,6,5,325.9,1.406
50.81,1.0,0.011,-0.029,0.005,0.068,-0.03,-0.004,-1.57,-0.018,0.058,49.940000000000005,110.9,40.520458,-3.411503,627.5,6,5,325.9,1.406
50.91,1.0,-0.052,-0.041,-0.0,0.005,-0.032,-0.002,-1.571,-0.014,0.058,49.940000000000005,110.9,40.520458,-3.411503,627.5,6,5,325.9,1.406
51.01,1.0,-0.09,-0.065,-0.014,-0.048,-0.052,-0.005,-1.571,-0.011,0.058,49.940000000000005,110.9,40.520458,-3.411503,627.5,6,5,325.9,1.406
51.12,1.0,-0.091,-0.019,-0.013,-0.082,-0.039,-0.014,-1.571,-0.012,0.059,49.940000000000005,110.9,40.520458,-3.411503,627.5,6,5,325.9,1.406
51.22,1.0,-0.025,-0.025,-0.035,-0.062,-0.026,-0.017,-1.571,-0.011,0.059,49.940000000000005,110.9,40.520458,-3.411503,627.5,6,5,325.9,1.406
51.31,1.0,0.003,-0.018,-0.008,-0.022,-0.027,-0.019,-1.572,-0.006,0.06,49.940000000000005,110.9,40.520458,-3.411503,627.5,6,5,325.9,1.406
51.41,1.0,-0.003,-0.01,-0.053,-0.01,-0.021,-0.033,-1.569,-0.004,0.06,50.900000000000006,111.1,40.520683,-3.411703,627.7,6,5,326.2,1.055
51.51,1.0,-0.008,-0.031,-0.036,-0.012,-0.016,-0.037,-1.565,-0.001,0.061,50.900000000000006,111.1,40.520683,-3.411703,627.7,6,5,326.2,1.055
51.61,1.0,0.028,-0.047,-0.05,0.005,-0.031,-0.045,-1.558,0.003,0.063,50.900000000000006,111.1,40.520683,-3.411703,627.7,6,5,326.2,1.055
51.71,1.0,0.012,-0.065,-0.047,0.017,-0.051,-0.043,-1.554,0.007,0.065,50.900000000000006,111.1,40.520683,-3.411703,627.7,6,5,326.2,1.055
51.82,1.0,-0.057,-0.065,-0.045,-0.011,-0.063,-0.047,-1.553,0.006,0.067,50.900000000000006,111.1,40.520683,-3.411703,627.7,6,5,326.2,1.055
51.91,1.0,-0.039,-0.057,-0.057,-0.034,-0.058,-0.049,-1.552,0.007,0.069,50.900000000000006,111.1,40.520683,-3.411703,627.7,6,5,326.2,1.055
52.01,1.0,-0.007,-0.038,-0.015,-0.021,-0.049,-0.037,-1.551,0.01,0.071,50.900000000000006,111.1,40.520683,-3.411703,627.7,6,5,326.2,1.055
52.12,1.0,-0.034,-0.017,-0.025,-0.025,-0.034,-0.028,-1.551,0.014,0.073,50.900000000000006,111.1,40.520683,-3.411703,627.7,6,5,326.2,1.055
52.22,1.0,0.004,-0.041,-0.035,-0.022,-0.031,-0.028,-1.55,0.02,0.074,50.900000000000006,111.1,40.520683,-3.411703,627.7,6,5,326.2,1.055
52.33,1.0,-0.002,-0.027,-0.03,-0.004,-0.036,-0.034,-1.548,0.022,0.076,50.900000000000006,111.1,40.520683,-3.411703,627.7,6,5,326.2,1.055
52.42,1.0,-0.033,-0.0,-0.021,-0.013,-0.022,-0.025,-1.547,0.023,0.077,51.89,110.4,40.520901,-3.411905,628.2,6,5,326.2,0.352
52.52,1.0,0.016,0.009,0.008,-0.006,-0.004,-0.011,-1.544,0.023,0.079,51.89,110.4,40.520901,-3.411905,628.2,6,5,326.2,0.352
52.62,1.0,-0.009,-0.037,-0.043,0.006,-0.008,-0.022,-1.541,0.027,0.08,51.89,110.4,40.520901,-3.411905,628.2,6,5,326.2,0.352
52.72,1.0,-0.027,-0.014,-0.005,-0.008,-0.018,-0.014,-1.542,0.029,0.081,51.89,110.4,40.520901,-3.411905,628.2,6,5,326.2,0.352
52.82,1.0,0.039,-0.018,0.001,-0.013,-0.021,-0.008,-1.541,0.032,0.082,51.89,110.4,40.520901,-3.411905,628.2,6,5,326.2,0.352
52.92,1.0,-0.008,-0.026,-0.049,0.019,-0.021,-0.027,-1.536,0.029,0.083,51.89,110.4,40.520901,-3.411905,628.2,6,5,326.2,0.352
53.02,1.0,-0.105,0.005,-0.023,-0.046,-0.015,-0.027,-1.537,0.028,0.084,51.89,110.4,40.520901,-3.411905,628.2,6,5,326.2,0.352
53.12,1.0,-0.099,0.016,-0.027,-0.078,0.01,-0.029,-1.537,0.027,0.084,51.89,110.4,40.520901,-3.411905,628.2,6,5,326.2,0.352
53.22,1.0,-0.048,-0.011,-0.027,-0.082,0.002,-0.027,-1.535,0.025,0.085,51.89,110.4,40.520901,-3.411905,628.2,6,5,326.2,0.352
53.33,1.0,0.082,0.001,-0.004,-0.006,-0.01,-0.015,-1.534,0.026,0.086,51.89,110.4,40.520901,-3.411905,628.2,6,5,326.2,0.352
53.42,1.0,0.035,0.031,-0.012,0.039,0.011,-0.015,-1.533,0.023,0.087,52.89,109.1,40.52113,-3.412107,628.3,6,5,325.2,1.055
53.52,1.0,-0.073,0.005,0.012,-0.011,0.017,-0.002,-1.534,0.024,0.087,52.89,109.1,40.52113,-3.412107,628.3,6,5,325.2,1.055
53.63,1.0,-0.051,-0.023,0.007,-0.043,-0.003,0.006,-1.536,0.026,0.088,52.89,109.1,40.52113,-3.412107,628.3,6,5,325.2,1.055
53.72,1.0,-0.004,-0.016,0.011,-0.033,-0.014,0.008,-1.537,0.026,0.088,52.89,109.1,40.52113,-3.412107,628.3,6,5,325.2,1.055
53.82,1.0,0.094,0.013,0.027,0.027,-0.001,0.015,-1.536,0.02,0.088,52.89,109.1,40.52113,-3.412107,628.3,6,5,325.2,1.055
53.92,1.0,0.027,0.033,-0.011,0.05,0.015,0.009,-1.533,0.017,0.088,52.89,109.1,40.52113,-3.412107,628.3,6,5,325.2,1.055
54.02,1.0,-0.068,0.037,0.001,-0.004,0.028,-0.0,-1.534,0.011,0.088,52.89,109.1,40.52113,-3.412107,628.3,6,5,325.2,1.055
54.12,1.0,-0.063,0.035,0.026,-0.049,0.032,0.012,-1.537,0.008,0.088,52.89,109.1,40.52113,-3.412107,628.3,6,5,325.2,1.055
54.22,1.0,0.031,-0.002,0.016,-0.02,0.024,0.016,-1.538,0.009,0.089,52.89,109.1,40.52113,-3.412107,628.3,6,5,325.2,1.055
54.32,1.0,0.008,0.006,0.012,0.006,0.007,0.016,-1.54,0.013,0.089,52.89,109.1,40.52113,-3.412107,628.3,6,5,325.2,1.055
54.42,1.0,-0.034,-0.002,0.012,-0.011,0.005,0.011,-1.541,0.013,0.089,53.89,107.2,40.521347,-3.412303,628.7,6,5,324.8,1.406
54.52,1.0,0.024,0.001,0.029,-0.011,-0.002,0.018,-1.542,0.012,0.089,53.89,107.2,40.521347,-3.412303,628.7,6,5,324.8,1.406
54.63,1.0,0.018,0.011,0.019,0.02,0.002,0.027,-1.544,0.012,0.089,53.89,107.2,40.521347,-3.412303,628.7,6,5,324.8,1.406
54.73,1.0,0.003,0.034,0.014,0.018,0.023,0.013,-1.545,0.012,0.09,53.89,107.2,40.521347,-3.412303,628.7,6,5,324.8,1.406
54.83,1.0,-0.019,0.004,0.041,-0.004,0.014,0.03,-1.547,0.012,0.09,53.89,107.2,40.521347,-3.412303,628.7,6,5,324.8,1.406
54.93,1.0,0.003,0.031,0.039,-0.002,0.017,0.04,-1.55,0.011,0.09,53.89,107.2,40.521347,-3.412303,628.7,6,5,324.8,1.406
55.03,1.0,-0.037,0.01,0.031,-0.017,0.02,0.031,-1.553,0.014,0.09,53.89,107.2,40.521347,-3.412303,628.7,6,5,324.8,1.406
55.13,1.0,0.019,-0.003,0.033,-0.009,0.008,0.031,-1.556,0.016,0.09,53.89,107.2,40.521347,-3.412303,628.7,6,5,324.8,1.406
55.24,1.0,0.011,0.005,0.015,0.005,0.006,0.025,-1.559,0.016,0.09,53.89,107.2,40.521347,-3.412303,628.7,6,5,324.8,1.406
55.33,1.0,-0.04,0.009,0.019,-0.012,0.008,0.02,-1.561,0.014,0.09,53.89,107.2,40.521347,-3.412303,628.7,6,5,324.8,1.406
55.43,1.0,-0.053,0.012,0.012,-0.036,0.007,0.018,-1.562,0.012,0.09,54.89,106.9,40.521572,-3.412506,629.4,6,5,325.2,0.352
55.53,1.0,-0.035,0.012,0.028,-0.036,0.012,0.016,-1.564,0.012,0.09,54.89,106.9,40.521572,-3.412506,629.4,6,5,325.2,0.352
55.63,1.0,0.019,0.033,0.027,-0.015,0.02,0.027,-1.565,0.011,0.09,54.89,106.9,40.521572,-3.412506,629.4,6,5,325.2,0.352
55.73,1.0,-0.01,-0.017,-0.003,-0.001,0.011,0.016,-1.565,0.011,0.09,54.89,106.9,40.521572,-3.412506,629.4,6,5,325.2,0.352
55.83,1.0,-0.023,0.004,0.017,-0.018,0.003,0.01,-1.566,0.012,0.09,54.89,106.9,40.521572,-3.412506,629.4,6,5,325.2,0.352
55.93,1.0,0.015,-0.005,0.012,-0.008,-0.002,0.012,-1.568,0.01,0.09,54.89,106.9,40.521572,-3.412506,629.4,6,5,325.2,0.352
56.03,1.0,-0.01,0.005,0.02,-0.005,-0.001,0.015,-1.569,0.008,0.091,54.89,106.9,40.521572,-3.412506,629.4,6,5,325.2,0.352
56.13,1.0,-0.034,-0.003,0.004,-0.017,0.001,0.012,-1.571,0.01,0.091,54.89,106.9,40.521572,-3.412506,629.4,6,5,325.2,0.352
56.24,1.0,-0.044,-0.003,-0.009,-0.026,-0.001,0.001,-1.572,0.012,0.092,54.89,106.9,40.521572,-3.412506,629.4,6,5,325.2,0.352
56.33,1.0,-0.01,-0.022,0.026,-0.034,-0.012,0.007,-1.575,0.013,0.092,54.89,106.9,40.521572,-3.412506,629.4,6,5,325.2,0.352
56.44,1.0,0.009,0.01,0.002,-0.002,-0.007,0.015,-1.576,0.014,0.093,55.99,107.5,40.522015,-3.412914,630.9,6,5,324.8,0.352
56.53,1.0,-0.022,0.008,-0.003,-0.004,0.004,0.002,-1.576,0.018,0.094,55.99,107.5,40.522015,-3.412914,630.9,6,5,324.8,0.352
56.63,1.0,-0.044,-0.003,0.012,-0.029,0.001,0.006,-1.577,0.019,0.094,55.99,107.5,40.522015,-3.412914,630.9,6,5,324.8,0.352
56.73,1.0,-0.015,-0.014,0.004,-0.028,-0.005,0.005,-1.578,0.02,0.095,55.99,107.5,40.522015,-3.412914,630.9,6,5,324.8,0.352
56.83,1.0,-0.027,-0.01,0.007,-0.024,-0.012,0.007,-1.578,0.018,0.096,55.99,107.5,40.522015,-3.412914,630.9,6,5,324.8,0.352
56.93,1.0,-0.02,-0.006,-0.007,-0.019,-0.01,-0.0,-1.578,0.017,0.096,55.99,107.5,40.522015,-3.412914,630.9,6,5,324.8,0.352
57.03,1.0,-0.003,-0.011,0.007,-0.016,-0.005,0.003,-1.58,0.014,0.097,55.99,107.5,40.522015,-3.412914,630.9,6,5,324.8,0.352
57.13,1.0,0.018,0.003,0.004,0.002,-0.003,0.005,-1.579,0.014,0.097,55.99,107.5,40.522015,-3.412914,630.9,6,5,324.8,0.352
57.24,1.0,0.0,-0.0,0.005,0.009,-0.001,0.003,-1.58,0.014,0.098,55.99,107.5,40.522015,-3.412914,630.9,6,5,324.8,0.352
57.34,1.0,-0.044,0.003,-0.003,-0.021,0.0,0.001,-1.581,0.014,0.098,55.99,107.5,40.522015,-3.412914,630.9,6,5,324.8,0.352
57.44,1.0,0.008,-0.009,0.023,-0.018,-0.0,0.011,-1.581,0.015,0.099,56.900000000000006,107.5,40.522015,-3.412914,630.9,6,5,324.8,0.352
57.54,1.0,-0.031,0.001,-0.015,-0.007,-0.001,-0.0,-1.58,0.015,0.1,56.900000000000006,107.5,40.522015,-3.412914,630.9,6,5,324.8,0.352
57.64,1.0,-0.066,-0.004,0.011,-0.044,-0.005,0.002,-1.581,0.014,0.1,56.900000000000006,107.5,40.522015,-3.412914,630.9,6,5,324.8,0.352
57.74,1.0,-0.061,-0.026,-0.027,-0.056,-0.013,-0.006,-1.582,0.015,0.101,56.900000000000006,107.5,40.522015,-3.412914,630.9,6,5,324.8,0.352
57.84,1.0,-0.081,-0.038,-0.01,-0.066,-0.028,-0.016,-1.583,0.015,0.102,56.900000000000006,107.5,40.522015,-3.412914,630.9,6,5,324.8,0.352
57.94,1.0,-0.05,-0.02,0.012,-0.067,-0.027,0.003,-1.585,0.011,0.102,56.900000000000006,107.5,40.522015,-3.412914,630.9,6,5,324.8,0.352
58.04,1.0,-0.052,0.013,-0.014,-0.053,-0.01,-0.004,-1.586,0.009,0.102,56.900000000000006,107.5,40.522015,-3.412914,630.9,6,5,324.8,0.352
58.14,1.0,-0.034,-0.022,-0.009,-0.047,-0.006,-0.012,-1.588,0.005,0.103,56.900000000000006,107.5,40.522015,-3.412914,630.9,6,5,324.8,0.352
58.24,1.0,-0.008,-0.054,0.006,-0.027,-0.031,0.0,-1.59,0.003,0.105,56.900000000000006,107.5,40.522015,-3.412914,630.9,6,5,324.8,0.352
58.34,1.0,-0.039,-0.035,-0.002,-0.025,-0.037,-0.002,-1.591,0.001,0.106,56.900000000000006,107.5,40.522015,-3.412914,630.9,6,5,324.8,0.352
58.44,1.0,-0.001,0.006,0.008,-0.021,-0.019,0.005,-1.589,-0.0,0.108,57.900000000000006,107.5,40.522232,-3.413118,631.5,6,5,324.8,0.0
58.54,1.0,0.025,-0.015,-0.022,0.005,-0.01,-0.008,-1.587,-0.0,0.109,57.900000000000006,107.5,40.522232,-3.413118,631.5,6,5,324.8,0.0
58.64,1.0,0.011,-0.032,-0.002,0.012,-0.023,-0.011,-1.587,0.003,0.111,57.900000000000006,107.5,40.522232,-3.413118,631.5,6,5,324.8,0.0
58.75,1.0,-0.049,-0.014,0.02,-0.009,-0.025,0.006,-1.59,0.004,0.113,57.900000000000006,107.5,40.522232,-3.413118,631.5,6,5,324.8,0.0
58.85,1.0,-0.079,-0.035,-0.026,-0.051,-0.027,-0.005,-1.589,0.006,0.115,57.900000000000006,107.5,40.522232,-3.413118,631.5,6,5,324.8,0.0
58.94,1.0,-0.006,-0.07,0.017,-0.046,-0.042,0.002,-1.586,0.009,0.118,57.900000000000006,107.5,40.522232,-3.413118,631.5,6,5,324.8,0.0
59.04,1.0,0.025,-0.07,-0.033,0.007,-0.056,-0.013,-1.584,0.01,0.121,57.900000000000006,107.5,40.522232,-3.413118,631.5,6,5,324.8,0.0
59.14,1.0,-0.023,-0.087,0.026,-0.013,-0.075,-0.003,-1.588,0.015,0.124,57.900000000000006,107.5,40.522232,-3.413118,631.5,6,5,324.8,0.0
59.24,1.0,-0.001,-0.091,0.001,-0.006,-0.085,0.013,-1.59,0.022,0.127,57.900000000000006,107.5,40.522232,-3.413118,631.5,6,5,324.8,0.0
59.35,1.0,-0.003,-0.068,-0.006,-0.007,-0.081,-0.005,-1.589,0.023,0.13,57.900000000000006,107.5,40.522232,-3.413118,631.5,6,5,324.8,0.0
59.44,1.0,-0.014,-0.038,0.007,-0.009,-0.056,-0.0,-1.591,0.022,0.133,58.96,104.5,40.522457,-3.413284,632.6,6,5,328.4,3.516
59.54,1.0,-0.051,-0.068,0.005,-0.022,-0.056,0.006,-1.593,0.024,0.137,58.96,104.5,40.522457,-3.413284,632.6,6,5,328.4,3.516
59.65,1.0,-0.043,-0.075,0.005,-0.047,-0.072,0.004,-1.594,0.029,0.142,58.96,104.5,40.522457,-3.413284,632.6,6,5,328.4,3.516
59.75,1.0,-0.001,-0.072,0.001,-0.025,-0.072,0.003,-1.593,0.032,0.146,58.96,104.5,40.522457,-3.413284,632.6,6,5,328.4,3.516
59.85,1.0,0.024,-0.038,-0.008,0.0,-0.058,-0.003,-1.592,0.036,0.15,58.96,104.5,40.522457,-3.413284,632.6,6,5,328.4,3.516
59.95,1.0,-0.033,-0.049,0.014,-0.001,-0.045,0.007,-1.595,0.038,0.153,58.96,104.5,40.522457,-3.413284,632.6,6,5,328.4,3.516
60.05,1.0,-0.056,-0.048,-0.019,-0.032,-0.053,-0.002,-1.595,0.038,0.157,58.96,104.5,40.522457,-3.413284,632.6,6,5,328.4,3.516
60.15,1.0,-0.029,-0.027,-0.02,-0.039,-0.039,-0.016,-1.595,0.036,0.16,58.96,104.5,40.522457,-3.413284,632.6,6,5,328.4,3.516
60.25,1.0,0.015,-0.025,0.0,-0.017,-0.029,-0.007,-1.598,0.036,0.164,58.96,104.5,40.522457,-3.413284,632.6,6,5,328.4,3.516
60.35,1.0,-0.007,-0.01,-0.03,-0.004,-0.02,-0.018,-1.595,0.041,0.168,58.96,104.5,40.522457,-3.413284,632.6,6,5,328.4,3.516
60.45,1.0,-0.029,-0.02,-0.005,-0.014,-0.017,-0.013,-1.592,0.044,0.172,59.93000000000001,107.5,40.522667,-3.413532,633.5,6,5,322.0,6.328
60.55,1.0,0.01,-0.035,-0.026,-0.007,-0.029,-0.017,-1.591,0.047,0.176,59.93000000000001,107.5,40.522667,-3.413532,633.5,6,5,322.0,6.328
60.65,1.0,-0.015,-0.002,-0.014,-0.003,-0.019,-0.018,-1.591,0.047,0.18,59.93000000000001,107.5,40.522667,-3.413532,633.5,6,5,322.0,6.328
60.75,1.0,-0.038,-0.018,-0.013,-0.028,-0.015,-0.015,-1.591,0.045,0.183,59.93000000000001,107.5,40.522667,-3.413532,633.5,6,5,322.0,6.328
60.85,1.0,-0.032,-0.034,-0.035,-0.026,-0.02,-0.022,-1.589,0.044,0.187,59.93000000000001,107.5,40.522667,-3.413532,633.5,6,5,322.0,6.328
60.96,1.0,-0.009,-0.022,-0.013,-0.02,-0.026,-0.022,-1.588,0.043,0.191,59.93000000000001,107.5,40.522667,-3.413532,633.5,6,5,322.0,6.328
61.05,1.0,0.01,-0.027,-0.002,-0.005,-0.025,-0.01,-1.587,0.04,0.195,59.93000000000001,107.5,40.522667,-3.413532,633.5,6,5,322.0,6.328
61.15,1.0,-0.003,-0.059,-0.005,-0.002,-0.041,-0.01,-1.584,0.04,0.199,59.93000000000001,107.5,40.522667,-3.413532,633.5,6,5,322.0,6.328
61.25,1.0,0.011,-0.019,0.001,0.002,-0.039,-0.002,-1.586,0.039,0.203,59.93000000000001,107.5,40.522667,-3.413532,633.5,6,5,322.0,6.328
61.35,1.0,0.01,-0.012,-0.023,0.008,-0.024,-0.012,-1.585,0.036,0.207,59.93000000000001,107.5,40.522667,-3.413532,633.5,6,5,322.0,6.328
61.45,1.0,-0.01,-0.013,-0.01,0.005,-0.014,-0.014,-1.584,0.035,0.211,60.900000000000006,107.6,40.522877,-3.413747,634.3,6,5,320.3,8.086
61.56,1.0,-0.035,-0.012,0.002,-0.016,-0.01,-0.005,-1.585,0.036,0.215,60.900000000000006,107.6,40.522877,-3.413747,634.3,6,5,320.3,8.086
61.66,1.0,-0.018,-0.016,-0.01,-0.026,-0.015,-0.006,-1.584,0.035,0.219,60.900000000000006,107.6,40.522877,-3.413747,634.3,6,5,320.3,8.086
61.75,1.0,0.006,-0.028,0.006,-0.013,-0.02,-0.001,-1.584,0.034,0.222,60.900000000000006,107.6,40.522877,-3.413747,634.3,6,5,320.3,8.086
61.85,1.0,0.044,-0.002,-0.004,0.019,-0.018,-0.001,-1.582,0.031,0.226,60.900000000000006,107.6,40.522877,-3.413747,634.3,6,5,320.3,8.086
61.95,1.0,0.024,0.029,-0.003,0.026,0.008,-0.003,-1.581,0.024,0.23,60.900000000000006,107.6,40.522877,-3.413747,634.3,6,5,320.3,8.086
62.05,1.0,0.02,-0.016,0.002,0.023,0.006,-0.001,-1.581,0.027,0.234,60.900000000000006,107.6,40.522877,-3.413747,634.3,6,5,320.3,8.086
62.15,1.0,-0.048,-0.043,-0.013,-0.007,-0.02,-0.005,-1.58,0.03,0.238,60.900000000000006,107.6,40.522877,-3.413747,634.3,6,5,320.3,8.086
62.27,1.0,0.006,-0.01,0.008,-0.012,-0.026,-0.002,-1.58,0.03,0.242,60.900000000000006,107.6,40.522877,-3.413747,634.3,6,5,320.3,8.086
62.36,1.0,0.067,0.031,0.017,0.026,0.0,0.01,-1.579,0.028,0.246,60.900000000000006,107.6,40.522877,-3.413747,634.3,6,5,320.3,8.086
62.46,1.0,0.082,0.001,-0.024,0.066,0.014,-0.005,-1.575,0.031,0.249,61.92,107.6,40.523075,-3.413988,635.7,6,5,318.2,3.867
62.56,1.0,-0.039,-0.038,-0.016,0.025,-0.012,-0.013,-1.574,0.035,0.254,61.92,107.6,40.523075,-3.413988,635.7,6,5,318.2,3.867
62.66,1.0,-0.158,-0.011,0.0,-0.066,-0.021,-0.009,-1.577,0.036,0.258,61.92,107.6,40.523075,-3.413988,635.7,6,5,318.2,3.867
62.76,1.0,-0.129,0.01,0.017,-0.121,0.002,0.002,-1.579,0.036,0.262,61.92,107.6,40.523075,-3.413988,635.7,6,5,318.2,3.867
62.87,1.0,-0.03,0.002,-0.002,-0.083,-0.001,0.007,-1.58,0.036,0.265,61.92,107.6,40.523075,-3.413988,635.7,6,5,318.2,3.867
62.97,1.0,0.057,0.022,0.029,-0.017,0.002,0.009,-1.58,0.038,0.268,61.92,107.6,40.523075,-3.413988,635.7,6,5,318.2,3.867
63.06,1.0,0.112,-0.003,0.018,0.06,0.012,0.023,-1.582,0.036,0.272,61.92,107.6,40.523075,-3.413988,635.7,6,5,318.2,3.867
63.16,1.0,0.034,-0.013,-0.022,0.064,-0.001,0.003,-1.579,0.036,0.276,61.92,107.6,40.523075,-3.413988,635.7,6,5,318.2,3.867
63.26,1.0,-0.096,-0.018,0.014,-0.012,-0.012,-0.001,-1.579,0.032,0.28,61.92,107.6,40.523075,-3.413988,635.7,6,5,318.2,3.867
63.36,1.0,-0.072,-0.007,0.022,-0.055,-0.01,0.015,-1.58,0.033,0.283,61.92,107.6,40.523075,-3.413988,635.7,6,5,318.2,3.867
63.47,1.0,-0.078,-0.031,-0.036,-0.068,-0.021,-0.007,-1.58,0.029,0.286,62.910000000000004,107.3,40.52327,-3.414233,636.8,6,5,315.0,5.273
63.56,1.0,0.006,0.024,0.037,-0.049,-0.006,0.007,-1.582,0.026,0.289,62.910000000000004,107.3,40.52327,-3.414233,636.8,6,5,315.0,5.273
63.66,1.0,0.032,0.024,0.008,0.003,0.015,0.011,-1.583,0.025,0.292,62.910000000000004,107.3,40.52327,-3.414233,636.8,6,5,315.0,5.273
63.76,1.0,0.029,0.003,0.023,0.02,0.011,0.018,-1.584,0.023,0.295,62.910000000000004,107.3,40.52327,-3.414233,636.8,6,5,315.0,5.273
63.87,1.0,-0.009,-0.029,0.006,0.008,-0.008,0.014,-1.584,0.026,0.299,62.910000000000004,107.3,40.52327,-3.414233,636.8,6,5,315.0,5.273
63.96,1.0,0.013,-0.015,0.012,0.007,-0.011,0.01,-1.583,0.028,0.304,62.910000000000004,107.3,40.52327,-3.414233,636.8,6,5,315.0,5.273
64.07,1.0,0.033,-0.006,0.002,0.017,-0.014,0.005,-1.582,0.031,0.308,62.910000000000004,107.3,40.52327,-3.414233,636.8,6,5,315.0,5.273
64.17,1.0,0.071,-0.012,0.011,0.047,-0.01,0.01,-1.582,0.032,0.311,62.910000000000004,107.3,40.52327,-3.414233,636.8,6,5,315.0,5.273
64.26,1.0,-0.012,0.017,-0.0,0.028,0.001,0.004,-1.58,0.034,0.315,62.910000000000004,107.3,40.52327,-3.414233,636.8,6,5,315.0,5.273
64.36,1.0,-0.017,-0.01,0.017,0.001,-0.0,0.01,-1.582,0.035,0.319,62.910000000000004,107.3,40.52327,-3.414233,636.8,6,5,315.0,5.273
64.46,1.0,0.02,-0.013,0.002,0.007,-0.011,0.004,-1.581,0.037,0.322,63.92,107.7,40.523457,-3.414495,637.8,6,5,312.9,5.273
64.56,1.0,-0.013,-0.022,0.014,0.001,-0.013,0.011,-1.582,0.038,0.326,63.92,107.7,40.523457,-3.414495,637.8,6,5,312.9,5.273
64.68,1.0,0.007,-0.001,0.001,0.002,-0.011,0.008,-1.58,0.037,0.33,63.92,107.7,40.523457,-3.414495,637.8,6,5,312.9,5.273
64.77,1.0,-0.016,-0.014,0.01,-0.006,-0.008,0.006,-1.581,0.035,0.334,63.92,107.7,40.523457,-3.414495,637.8,6,5,312.9,5.273
64.87,1.0,0.024,0.004,0.032,0.001,-0.005,0.016,-1.583,0.032,0.337,63.92,107.7,40.523457,-3.414495,637.8,6,5,312.9,5.273
64.97,1.0,0.027,0.007,0.002,0.018,-0.0,0.016,-1.584,0.033,0.341,63.92,107.7,40.523457,-3.414495,637.8,6,5,312.9,5.273
65.07,1.0,-0.044,0.02,0.01,-0.007,0.013,0.01,-1.585,0.032,0.344,63.92,107.7,40.523457,-3.414495,637.8,6,5,312.9,5.273
65.17,1.0,-0.006,-0.008,0.009,-0.016,0.002,0.015,-1.585,0.032,0.348,63.92,107.7,40.523457,-3.414495,637.8,6,5,312.9,5.273
65.27,1.0,-0.037,0.018,-0.009,-0.015,0.008,-0.003,-1.585,0.034,0.351,63.92,107.7,40.523457,-3.414495,637.8,6,5,312.9,5.273
65.37,1.0,-0.005,-0.004,0.033,-0.025,0.007,0.012,-1.589,0.035,0.355,63.92,107.7,40.523457,-3.414495,637.8,6,5,312.9,5.273
65.47,1.0,0.021,-0.019,-0.004,0.003,-0.008,0.011,-1.589,0.035,0.358,64.95,107.3,40.523636,-3.414755,639.3,6,5,310.1,4.922
65.57,1.0,-0.027,-0.014,0.003,-0.012,-0.013,0.002,-1.59,0.034,0.361,64.95,107.3,40.523636,-3.414755,639.3,6,5,310.1,4.922
65.67,1.0,0.007,-0.024,0.029,-0.007,-0.018,0.017,-1.593,0.033,0.365,64.95,107.3,40.523636,-3.414755,639.3,6,5,310.1,4.922
65.78,1.0,0.022,0.008,0.005,0.019,-0.01,0.018,-1.593,0.031,0.369,64.95,107.3,40.523636,-3.414755,639.3,6,5,310.1,4.922
65.88,1.0,0.024,-0.047,0.029,0.022,-0.01,0.012,-1.591,0.031,0.372,64.95,107.3,40.523636,-3.414755,639.3,6,5,310.1,4.922
65.97,1.0,0.066,-0.046,0.009,0.037,-0.046,0.02,-1.589,0.03,0.376,64.95,107.3,40.523636,-3.414755,639.3,6,5,310.1,4.922
66.07,1.0,0.015,-0.038,0.037,0.03,-0.037,0.021,-1.59,0.032,0.38,64.95,107.3,40.523636,-3.414755,639.3,6,5,310.1,4.922
66.18,1.0,-0.052,-0.027,0.016,-0.009,-0.033,0.022,-1.592,0.033,0.384,64.95,107.3,40.523636,-3.414755,639.3,6,5,310.1,4.922
66.28,1.0,-0.04,-0.025,0.01,-0.033,-0.03,0.019,-1.595,0.033,0.388,64.95,107.3,40.523636,-3.414755,639.3,6,5,310.1,4.922
66.37,1.0,0.024,-0.027,0.003,-0.002,-0.026,0.006,-1.595,0.034,0.391,64.95,107.3,40.523636,-3.414755,639.3,6,5,310.1,4.922
66.47,1.0,0.018,-0.046,0.024,0.011,-0.036,0.016,-1.597,0.04,0.395,65.92,108.8,40.523804,-3.415022,639.8,6,5,307.6,5.273
66.57,1.0,-0.015,-0.017,-0.005,0.002,-0.029,0.011,-1.597,0.043,0.399,65.92,108.8,40.523804,-3.415022,639.8,6,5,307.6,5.273
66.67,1.0,0.0,-0.001,0.009,-0.012,-0.015,0.001,-1.595,0.046,0.403,65.92,108.8,40.523804,-3.415022,639.8,6,5,307.6,5.273
66.78,1.0,0.001,0.005,-0.04,0.003,-0.006,-0.005,-1.593,0.047,0.406,65.92,108.8,40.523804,-3.415022,639.8,6,5,307.6,5.273
66.88,1.0,-0.031,0.014,-0.048,-0.009,0.005,-0.037,-1.593,0.046,0.409,65.92,108.8,40.523804,-3.415022,639.8,6,5,307.6,5.273
66.99,1.0,-0.014,0.038,-0.07,-0.016,0.019,-0.051,-1.592,0.045,0.412,65.92,108.8,40.523804,-3.415022,639.8,6,5,307.6,5.273
67.09,1.0,-0.019,0.021,-0.059,-0.024,0.031,-0.059,-1.586,0.043,0.414,65.92,108.8,40.523804,-3.415022,639.8,6,5,307.6,5.273
67.18,1.0,0.017,0.004,-0.062,-0.001,0.012,-0.061,-1.58,0.044,0.416,65.92,108.8,40.523804,-3.415022,639.8,6,5,307.6,5.273
67.28,1.0,-0.001,0.021,-0.059,0.002,0.017,-0.064,-1.574,0.039,0.418,65.92,108.8,40.523804,-3.415022,639.8,6,5,307.6,5.273
67.38,1.0,0.037,0.043,-0.048,0.016,0.025,-0.051,-1.571,0.035,0.421,65.92,108.8,40.523804,-3.415022,639.8,6,5,307.6,5.273
67.48,1.0,0.05,0.019,-0.067,0.036,0.026,-0.06,-1.564,0.034,0.423,66.91,110.1,40.523956,-3.415304,641.0,6,5,306.2,3.867
67.58,1.0,-0.029,0.018,-0.057,0.018,0.021,-0.06,-1.559,0.036,0.426,66.91,110.1,40.523956,-3.415304,641.0,6,5,306.2,3.867
67.68,1.0,-0.016,0.058,-0.037,-0.01,0.036,-0.051,-1.556,0.034,0.428,66.91,110.1,40.523956,-3.415304,641.0,6,5,306.2,3.867
67.78,1.0,0.001,0.039,-0.049,-0.008,0.046,-0.045,-1.552,0.03,0.43,66.91,110.1,40.523956,-3.415304,641.0,6,5,306.2,3.867
67.88,1.0,0.021,0.026,-0.059,-0.002,0.031,-0.049,-1.547,0.031,0.431,66.91,110.1,40.523956,-3.415304,641.0,6,5,306.2,3.867
67.99,1.0,0.041,0.024,-0.062,0.029,0.03,-0.063,-1.543,0.03,0.433,66.91,110.1,40.523956,-3.415304,641.0,6,5,306.2,3.867
68.08,1.0,-0.008,0.024,-0.057,0.018,0.027,-0.057,-1.539,0.029,0.436,66.91,110.1,40.523956,-3.415304,641.0,6,5,306.2,3.867
68.18,1.0,-0.025,-0.012,-0.022,-0.01,0.011,-0.041,-1.536,0.03,0.438,66.91,110.1,40.523956,-3.415304,641.0,6,5,306.2,3.867
68.28,1.0,0.002,0.012,-0.046,-0.006,0.004,-0.043,-1.531,0.028,0.44,66.91,110.1,40.523956,-3.415304,641.0,6,5,306.2,3.867
68.38,1.0,-0.009,0.017,-0.025,-0.005,0.012,-0.034,-1.527,0.027,0.442,66.91,110.1,40.523956,-3.415304,641.0,6,5,306.2,3.867
68.48,1.0,-0.008,0.008,-0.026,-0.005,0.01,-0.028,-1.525,0.029,0.445,67.89,108.3,40.52412,-3.415602,642.1,6,5,303.0,4.57
68.58,1.0,-0.034,-0.008,-0.039,-0.015,0.005,-0.035,-1.523,0.028,0.447,67.89,108.3,40.52412,-3.415602,642.1,6,5,303.0,4.57
68.68,1.0,-0.032,0.007,-0.002,-0.033,0.003,-0.022,-1.522,0.026,0.449,67.89,108.3,40.52412,-3.415602,642.1,6,5,303.0,4.57
68.78,1.0,0.038,0.006,-0.022,-0.011,0.003,-0.017,-1.519,0.024,0.451,67.89,108.3,40.52412,-3.415602,642.1,6,5,303.0,4.57
68.88,1.0,0.057,0.013,-0.016,0.037,0.006,-0.016,-1.516,0.025,0.453,67.89,108.3,40.52412,-3.415602,642.1,6,5,303.0,4.57
68.98,1.0,-0.003,-0.002,-0.021,0.029,0.006,-0.02,-1.514,0.027,0.455,67.89,108.3,40.52412,-3.415602,642.1,6,5,303.0,4.57
69.08,1.0,-0.012,0.022,0.009,0.006,0.011,-0.01,-1.514,0.027,0.457,67.89,108.3,40.52412,-3.415602,642.1,6,5,303.0,4.57
69.19,1.0,-0.017,0.007,-0.019,-0.013,0.012,-0.008,-1.513,0.028,0.459,67.89,108.3,40.52412,-3.415602,642.1,6,5,303.0,4.57
69.28,1.0,-0.016,-0.025,-0.018,-0.016,-0.006,-0.012,-1.511,0.03,0.461,67.89,108.3,40.52412,-3.415602,642.1,6,5,303.0,4.57
69.39,1.0,-0.026,0.002,-0.017,-0.021,-0.006,-0.018,-1.509,0.03,0.463,67.89,108.3,40.52412,-3.415602,642.1,6,5,303.0,4.57
69.49,1.0,-0.011,0.009,-0.01,-0.02,-0.002,-0.016,-1.509,0.027,0.466,68.9,106.2,40.524269,-3.415896,641.6,6,5,300.6,5.625
69.58,1.0,0.001,0.037,-0.021,-0.008,0.019,-0.014,-1.508,0.025,0.468,68.9,106.2,40.524269,-3.415896,641.6,6,5,300.6,5.625
69.69,1.0,-0.037,0.027,-0.022,-0.016,0.029,-0.022,-1.506,0.022,0.469,68.9,106.2,40.524269,-3.415896,641.6,6,5,300.6,5.625
69.79,1.0,-0.044,-0.003,-0.007,-0.033,0.015,-0.013,-1.506,0.022,0.472,68.9,106.2,40.524269,-3.415896,641.6,6,5,300.6,5.625
69.9,1.0,0.003,0.016,-0.007,-0.021,0.011,-0.009,-1.505,0.022,0.474,68.9,106.2,40.524269,-3.415896,641.6,6,5,300.6,5.625
69.99,1.0,0.028,0.001,-0.008,0.003,0.007,-0.009,-1.504,0.024,0.476,68.9,106.2,40.524269,-3.415896,641.6,6,5,300.6,5.625
70.09,1.0,0.015,-0.012,-0.008,0.017,-0.001,-0.009,-1.504,0.027,0.478,68.9,106.2,40.524269,-3.415896,641.6,6,5,300.6,5.625
70.19,1.0,-0.007,-0.005,-0.0,0.009,-0.006,-0.005,-1.503,0.027,0.481,68.9,106.2,40.524269,-3.415896,641.6,6,5,300.6,5.625
70.29,1.0,-0.017,0.006,0.007,-0.006,-0.002,-0.0,-1.504,0.027,0.484,68.9,106.2,40.524269,-3.415896,641.6,6,5,300.6,5.625
70.39,1.0,0.003,-0.011,-0.011,-0.005,-0.003,0.001,-1.504,0.029,0.486,68.9,106.2,40.524269,-3.415896,641.6,6,5,300.6,5.625
70.49,1.0,-0.013,-0.004,0.001,-0.009,-0.003,-0.005,-1.503,0.029,0.489,69.93,104.4,40.524403,-3.416199,641.8,6,5,298.5,4.57
70.59,1.0,0.008,-0.031,0.005,-0.007,-0.016,0.001,-1.503,0.03,0.491,69.93,104.4,40.524403,-3.416199,641.8,6,5,298.5,4.57
70.69,1.0,0.029,-0.012,-0.012,0.015,-0.02,-0.003,-1.501,0.033,0.494,69.93,104.4,40.524403,-3.416199,641.8,6,5,298.5,4.57
70.79,1.0,0.018,-0.002,-0.005,0.02,-0.009,-0.007,-1.5,0.03,0.496,69.93,104.4,40.524403,-3.416199,641.8,6,5,298.5,4.57
70.9,1.0,0.002,-0.004,0.005,0.014,-0.005,-0.002,-1.5,0.032,0.499,69.93,104.4,40.524403,-3.416199,641.8,6,5,298.5,4.57
70.99,1.0,-0.067,-0.006,-0.013,-0.02,-0.006,-0.003,-1.5,0.033,0.501,69.93,104.4,40.524403,-3.416199,641.8,6,5,298.5,4.57
71.1,1.0,-0.051,0.007,-0.009,-0.048,-0.0,-0.01,-1.5,0.031,0.503,69.93,104.4,40.524403,-3.416199,641.8,6,5,298.5,4.57
71.19,1.0,-0.03,-0.014,0.007,-0.041,-0.002,-0.002,-1.5,0.033,0.505,69.93,104.4,40.524403,-3.416199,641.8,6,5,298.5,4.57
71.29,1.0,0.018,0.001,0.007,-0.016,-0.006,0.004,-1.5,0.034,0.508,69.93,104.4,40.524403,-3.416199,641.8,6,5,298.5,4.57
71.39,1.0,0.048,0.018,-0.002,0.02,0.004,0.003,-1.498,0.033,0.511,69.93,104.4,40.524403,-3.416199,641.8,6,5,298.5,4.57
71.49,1.0,0.034,-0.017,-0.002,0.035,0.002,-0.003,-1.499,0.034,0.514,71.01,101.3,40.524624,-3.416811,641.6,6,5,293.6,4.219
71.59,1.0,0.021,0.002,0.005,0.026,-0.007,0.003,-1.499,0.032,0.516,71.01,101.3,40.524624,-3.416811,641.6,6,5,293.6,4.219
71.72,1.0,0.005,0.011,0.003,0.017,0.004,0.003,-1.498,0.032,0.518,71.01,101.3,40.524624,-3.416811,641.6,6,5,293.6,4.219
71.79,1.0,-0.01,0.017,-0.014,-0.002,0.012,-0.002,-1.496,0.033,0.521,71.01,101.3,40.524624,-3.416811,641.6,6,5,293.6,4.219
71.89,1.0,0.012,-0.001,-0.009,0.005,0.011,-0.009,-1.495,0.035,0.523,71.01,101.3,40.524624,-3.416811,641.6,6,5,293.6,4.219
71.99,1.0,0.045,0.049,-0.011,0.026,0.018,-0.011,-1.494,0.034,0.525,71.01,101.3,40.524624,-3.416811,641.6,6,5,293.6,4.219
72.1,1.0,0.005,0.023,-0.007,0.018,0.028,-0.011,-1.494,0.032,0.528,71.01,101.3,40.524624,-3.416811,641.6,6,5,293.6,4.219
72.2,1.0,0.015,0.007,0.005,0.016,0.019,-0.002,-1.495,0.032,0.53,71.01,101.3,40.524624,-3.416811,641.6,6,5,293.6,4.219
72.3,1.0,0.064,0.017,-0.011,0.034,0.018,-0.006,-1.492,0.031,0.532,71.01,101.3,40.524624,-3.416811,641.6,6,5,293.6,4.219
72.4,1.0,0.057,-0.007,0.001,0.047,0.005,-0.001,-1.492,0.033,0.534,71.01,101.3,40.524624,-3.416811,641.6,6,5,293.6,4.219
72.5,1.0,0.05,0.033,0.003,0.057,0.015,-0.001,-1.492,0.036,0.536,71.93,101.3,40.524624,-3.416811,641.6,6,5,293.6,4.922
72.6,1.0,-0.013,0.037,0.018,0.023,0.028,0.006,-1.491,0.034,0.538,71.93,101.3,40.524624,-3.416811,641.6,6,5,293.6,4.922
72.7,1.0,0.001,0.05,0.001,0.002,0.037,0.01,-1.492,0.033,0.54,71.93,101.3,40.524624,-3.416811,641.6,6,5,293.6,4.922
72.81,1.0,0.039,0.035,0.016,0.018,0.037,0.014,-1.491,0.025,0.541,71.93,101.3,40.524624,-3.416811,641.6,6,5,293.6,4.922
72.9,1.0,0.052,0.078,-0.016,0.043,0.054,-0.006,-1.489,0.022,0.542,71.93,101.3,40.524624,-3.416811,641.6,6,5,293.6,4.922
73.0,1.0,0.002,0.058,0.018,0.025,0.062,0.008,-1.492,0.021,0.543,71.93,101.3,40.524624,-3.416811,641.6,6,5,293.6,4.922
73.1,1.0,-0.03,0.037,0.011,-0.006,0.052,0.009,-1.494,0.02,0.544,71.93,101.3,40.524624,-3.416811,641.6,6,5,293.6,4.922
73.2,1.0,0.006,0.047,0.018,-0.002,0.051,0.014,-1.495,0.023,0.545,71.93,101.3,40.524624,-3.416811,641.6,6,5,293.6,4.922
73.3,1.0,0.066,0.065,0.01,0.028,0.051,0.012,-1.497,0.028,0.545,71.93,101.3,40.524624,-3.416811,641.6,6,5,293.6,4.922
73.41,1.0,0.052,0.042,-0.004,0.046,0.05,0.007,-1.495,0.03,0.546,71.93,101.3,40.524624,-3.416811,641.6,6,5,293.6,4.922
73.51,1.0,-0.033,0.05,-0.013,0.02,0.049,-0.002,-1.495,0.035,0.546,72.91,99.7,40.524719,-3.417124,641.1,6,5,290.7,5.625
73.6,1.0,-0.078,0.084,-0.005,-0.033,0.06,-0.007,-1.496,0.031,0.546,72.91,99.7,40.524719,-3.417124,641.1,6,5,290.7,5.625
73.7,1.0,-0.04,0.013,0.034,-0.052,0.055,0.006,-1.496,0.033,0.546,72.91,99.7,40.524719,-3.417124,641.1,6,5,290.7,5.625
73.8,1.0,0.079,-0.003,0.026,0.003,0.014,0.027,-1.494,0.035,0.547,72.91,99.7,40.524719,-3.417124,641.1,6,5,290.7,5.625
73.9,1.0,0.106,0.039,-0.011,0.065,0.01,0.004,-1.491,0.036,0.547,72.91,99.7,40.524719,-3.417124,641.1,6,5,290.7,5.625
74.0,1.0,0.034,0.061,0.006,0.069,0.052,0.007,-1.491,0.036,0.547,72.91,99.7,40.524719,-3.417124,641.1,6,5,290.7,5.625
74.1,1.0,-0.057,0.072,-0.0,0.011,0.067,0.004,-1.492,0.038,0.546,72.91,99.7,40.524719,-3.417124,641.1,6,5,290.7,5.625
74.2,1.0,-0.149,0.029,-0.007,-0.074,0.049,-0.004,-1.493,0.038,0.546,72.91,99.7,40.524719,-3.417124,641.1,6,5,290.7,5.625
74.3,1.0,-0.084,0.032,0.001,-0.101,0.039,-0.003,-1.494,0.037,0.546,72.91,99.7,40.524719,-3.417124,641.1,6,5,290.7,5.625
74.41,1.0,-0.06,0.025,-0.015,-0.081,0.029,-0.008,-1.494,0.033,0.546,72.91,99.7,40.524719,-3.417124,641.1,6,5,290.7,5.625
74.5,1.0,0.017,0.05,0.041,-0.036,0.037,0.013,-1.5,0.031,0.547,73.93,99.1,40.524803,-3.417439,640.5,6,5,289.3,4.219
74.61,1.0,0.099,0.073,0.006,0.037,0.061,0.015,-1.501,0.032,0.546,73.93,99.1,40.524803,-3.417439,640.5,6,5,289.3,4.219
74.71,1.0,0.039,0.066,0.005,0.049,0.061,0.011,-1.503,0.034,0.546,73.93,99.1,40.524803,-3.417439,640.5,6,5,289.3,4.219
74.81,1.0,-0.023,0.068,0.011,0.02,0.063,0.007,-1.503,0.035,0.546,73.93,99.1,40.524803,-3.417439,640.5,6,5,289.3,4.219
74.91,1.0,0.001,0.053,-0.002,0.0,0.062,0.007,-1.502,0.031,0.546,73.93,99.1,40.524803,-3.417439,640.5,6,5,289.3,4.219
75.01,1.0,-0.022,0.042,-0.012,-0.007,0.049,-0.004,-1.5,0.025,0.546,73.93,99.1,40.524803,-3.417439,640.5,6,5,289.3,4.219
75.11,1.0,-0.04,0.079,-0.002,-0.027,0.056,-0.005,-1.501,0.02,0.544,73.93,99.1,40.524803,-3.417439,640.5,6,5,289.3,4.219
75.21,1.0,-0.071,0.097,-0.009,-0.05,0.081,-0.007,-1.503,0.013,0.542,73.93,99.1,40.524803,-3.417439,640.5,6,5,289.3,4.219
75.31,1.0,-0.017,0.102,0.021,-0.04,0.091,0.004,-1.506,0.007,0.54,73.93,99.1,40.524803,-3.417439,640.5,6,5,289.3,4.219
75.41,1.0,0.019,0.099,-0.004,-0.008,0.114,0.005,-1.507,0.01,0.537,73.93,99.1,40.524803,-3.417439,640.5,6,5,289.3,4.219
75.51,1.0,-0.022,0.043,0.027,-0.01,0.07,0.015,-1.507,0.014,0.534,74.91,98.6,40.524868,-3.417746,639.4,6,5,287.9,2.812
75.62,1.0,0.0,0.048,0.026,-0.01,0.051,0.022,-1.507,0.014,0.532,74.91,98.6,40.524868,-3.417746,639.4,6,5,287.9,2.812
75.72,1.0,0.021,0.04,0.022,0.004,0.048,0.022,-1.507,0.009,0.529,74.91,98.6,40.524868,-3.417746,639.4,6,5,287.9,2.812
75.81,1.0,0.016,0.031,0.006,0.017,0.043,0.018,-1.508,0.013,0.528,74.91,98.6,40.524868,-3.417746,639.4,6,5,287.9,2.812
75.91,1.0,-0.03,0.034,0.012,-0.002,0.037,0.009,-1.508,0.012,0.527,74.91,98.6,40.524868,-3.417746,639.4,6,5,287.9,2.812
76.01,1.0,-0.011,0.01,0.02,-0.012,0.023,0.018,-1.51,0.008,0.526,74.91,98.6,40.524868,-3.417746,639.4,6,5,287.9,2.812
76.11,1.0,-0.027,-0.008,-0.0,-0.02,0.006,0.009,-1.51,0.01,0.525,74.91,98.6,40.524868,-3.417746,639.4,6,5,287.9,2.812
76.22,1.0,-0.041,0.005,0.008,-0.033,0.002,0.01,-1.512,0.013,0.524,74.91,98.6,40.524868,-3.417746,639.4,6,5,287.9,2.812
76.31,1.0,-0.02,0.021,-0.012,-0.03,0.009,-0.002,-1.512,0.014,0.523,74.91,98.6,40.524868,-3.417746,639.4,6,5,287.9,2.812
76.42,1.0,-0.033,0.003,-0.002,-0.025,0.011,-0.003,-1.512,0.016,0.522,74.91,98.6,40.524868,-3.417746,639.4,6,5,287.9,2.812
76.51,1.0,0.036,0.053,-0.01,-0.002,0.025,-0.008,-1.51,0.014,0.521,75.9,98.1,40.52494,-3.418057,638.9,6,5,287.2,2.109
76.61,1.0,0.019,0.023,-0.042,0.015,0.03,-0.019,-1.506,0.01,0.519,75.9,98.1,40.52494,-3.418057,638.9,6,5,287.2,2.109
76.71,1.0,-0.005,0.05,-0.017,0.007,0.036,-0.028,-1.503,0.011,0.517,75.9,98.1,40.52494,-3.418057,638.9,6,5,287.2,2.109
76.81,1.0,0.031,0.08,-0.018,0.014,0.057,-0.017,-1.502,0.013,0.514,75.9,98.1,40.52494,-3.418057,638.9,6,5,287.2,2.109
76.92,1.0,0.054,0.096,-0.05,0.034,0.083,-0.034,-1.497,0.008,0.511,75.9,98.1,40.52494,-3.418057,638.9,6,5,287.2,2.109
77.01,1.0,0.051,0.091,-0.028,0.043,0.086,-0.034,-1.495,0.009,0.508,75.9,98.1,40.52494,-3.418057,638.9,6,5,287.2,2.109
77.11,1.0,0.0,0.079,-0.037,0.033,0.085,-0.035,-1.495,0.01,0.504,75.9,98.1,40.52494,-3.418057,638.9,6,5,287.2,2.109
77.21,1.0,-0.058,0.071,-0.006,-0.009,0.084,-0.027,-1.496,0.012,0.501,75.9,98.1,40.52494,-3.418057,638.9,6,5,287.2,2.109
77.32,1.0,-0.037,0.093,0.003,-0.036,0.081,-0.006,-1.496,0.014,0.498,75.9,98.1,40.52494,-3.418057,638.9,6,5,287.2,2.109
77.42,1.0,-0.015,0.012,0.01,-0.031,0.054,0.001,-1.497,0.018,0.494,75.9,98.1,40.52494,-3.418057,638.9,6,5,287.2,2.109
77.53,1.0,0.001,0.036,0.019,-0.013,0.037,0.014,-1.496,0.021,0.491,76.9,97.9,40.524998,-3.418366,638.4,4,5,285.8,2.109
77.62,1.0,0.021,0.033,0.008,0.003,0.04,0.007,-1.495,0.02,0.488,76.9,97.9,40.524998,-3.418366,638.4,4,5,285.8,2.109
77.72,1.0,0.008,0.039,-0.013,0.011,0.033,0.008,-1.494,0.016,0.485,76.9,97.9,40.524998,-3.418366,638.4,4,5,285.8,2.109
77.82,1.0,-0.016,0.039,-0.006,-0.003,0.032,-0.01,-1.494,0.019,0.481,76.9,97.9,40.524998,-3.418366,638.4,4,5,285.8,2.109
77.92,1.0,-0.022,0.006,0.023,-0.016,0.025,0.01,-1.493,0.019,0.478,76.9,97.9,40.524998,-3.418366,638.4,4,5,285.8,2.109
78.02,1.0,-0.022,0.047,-0.034,-0.015,0.037,-0.008,-1.492,0.02,0.475,76.9,97.9,40.524998,-3.418366,638.4,4,5,285.8,2.109
78.12,1.0,-0.009,0.004,0.022,-0.019,0.027,-0.004,-1.493,0.019,0.473,76.9,97.9,40.524998,-3.418366,638.4,4,5,285.8,2.109
78.22,1.0,0.029,-0.041,0.019,0.004,-0.015,0.018,-1.492,0.016,0.471,76.9,97.9,40.524998,-3.418366,638.4,4,5,285.8,2.109
78.32,1.0,0.016,0.06,-0.005,0.019,0.009,0.003,-1.492,0.012,0.469,76.9,97.9,40.524998,-3.418366,638.4,4,5,285.8,2.109
78.42,1.0,-0.03,0.099,0.005,-0.004,0.064,0.004,-1.493,0.012,0.466,76.9,97.9,40.524998,-3.418366,638.4,4,5,285.8,2.109
78.53,1.0,-0.027,0.079,0.003,-0.018,0.082,0.003,-1.494,0.016,0.463,77.89,96.1,40.525063,-3.418669,636.8,4,5,286.2,1.055
78.62,1.0,-0.03,0.047,0.008,-0.028,0.059,0.005,-1.494,0.019,0.46,77.89,96.1,40.525063,-3.418669,636.8,4,5,286.2,1.055
78.72,1.0,0.018,0.019,0.029,-0.01,0.044,0.016,-1.493,0.022,0.457,77.89,96.1,40.525063,-3.418669,636.8,4,5,286.2,1.055
78.82,1.0,0.011,0.017,0.001,0.009,0.025,0.015,-1.493,0.025,0.454,77.89,96.1,40.525063,-3.418669,636.8,4,5,286.2,1.055
78.92,1.0,-0.01,-0.005,0.02,0.001,0.016,0.01,-1.491,0.013,0.451,77.89,96.1,40.525063,-3.418669,636.8,4,5,286.2,1.055
79.02,1.0,-0.009,0.016,0.032,-0.008,0.006,0.024,-1.495,0.004,0.448,77.89,96.1,40.525063,-3.418669,636.8,4,5,286.2,1.055
79.12,1.0,-0.018,0.013,0.008,-0.011,0.014,0.019,-1.496,0.005,0.445,77.89,96.1,40.525063,-3.418669,636.8,4,5,286.2,1.055
79.23,1.0,0.001,0.035,-0.009,-0.007,0.024,0.004,-1.496,0.011,0.442,77.89,96.1,40.525063,-3.418669,636.8,4,5,286.2,1.055
79.33,1.0,-0.005,0.017,-0.011,-0.007,0.021,-0.003,-1.497,0.017,0.439,77.89,96.1,40.525063,-3.418669,636.8,4,5,286.2,1.055
79.42,1.0,-0.026,0.02,-0.047,-0.013,0.016,-0.024,-1.492,0.013,0.436,77.89,96.1,40.525063,-3.418669,636.8,4,5,286.2,1.055
79.52,1.0,-0.005,0.02,-0.044,-0.015,0.02,-0.035,-1.486,0.01,0.433,78.91,95.7,40.525131,-3.418975,635.1,4,5,286.2,0.352
79.62,1.0,-0.018,0.042,-0.061,-0.012,0.03,-0.049,-1.478,0.006,0.429,78.91,95.7,40.525131,-3.418975,635.1,4,5,286.2,0.352
79.73,1.0,-0.037,0.02,-0.045,-0.025,0.034,-0.053,-1.475,0.009,0.425,78.91,95.7,40.525131,-3.418975,635.1,4,5,286.2,0.352
79.83,1.0,-0.003,0.049,-0.051,-0.02,0.03,-0.046,-1.473,0.013,0.422,78.91,95.7,40.525131,-3.418975,635.1,4,5,286.2,0.352
79.93,1.0,0.008,0.066,-0.032,-0.003,0.051,-0.046,-1.47,0.01,0.417,78.91,95.7,40.525131,-3.418975,635.1,4,5,286.2,0.352
80.03,1.0,0.015,0.064,-0.023,0.007,0.06,-0.031,-1.469,0.004,0.413,78.91,95.7,40.525131,-3.418975,635.1,4,5,286.2,0.352
80.13,1.0,0.01,0.048,0.03,0.007,0.052,-0.006,-1.47,-0.001,0.409,78.91,95.7,40.525131,-3.418975,635.1,4,5,286.2,0.352
80.23,1.0,0.026,0.012,0.04,0.02,0.038,0.023,-1.474,0.001,0.404,78.91,95.7,40.525131,-3.418975,635.1,4,5,286.2,0.352
80.33,1.0,-0.009,-0.023,0.018,0.012,0.01,0.023,-1.475,0.001,0.401,78.91,95.7,40.525131,-3.418975,635.1,4,5,286.2,0.352
80.43,1.0,-0.058,-0.017,0.038,-0.024,-0.011,0.028,-1.478,0.003,0.398,78.91,95.7,40.525131,-3.418975,635.1,4,5,286.2,0.352
80.54,1.0,-0.025,0.003,0.024,-0.034,-0.007,0.03,-1.483,0.008,0.395,79.89,94.9,40.525196,-3.419267,633.8,6,5,286.5,0.352
80.63,1.0,-0.024,0.002,0.01,-0.025,-0.001,0.02,-1.485,0.009,0.392,79.89,94.9,40.525196,-3.419267,633.8,6,5,286.5,0.352
80.73,1.0,-0.011,0.011,0.032,-0.023,0.007,0.022,-1.488,0.005,0.388,79.89,94.9,40.525196,-3.419267,633.8,6,5,286.5,0.352
80.83,1.0,-0.016,0.045,0.023,-0.015,0.022,0.025,-1.491,0.0,0.384,79.89,94.9,40.525196,-3.419267,633.8,6,5,286.5,0.352
80.93,1.0,0.011,0.005,0.039,-0.002,0.021,0.03,-1.494,0.001,0.38,79.89,94.9,40.525196,-3.419267,633.8,6,5,286.5,0.352
81.03,1.0,-0.002,0.003,0.03,0.001,0.01,0.033,-1.497,0.002,0.376,79.89,94.9,40.525196,-3.419267,633.8,6,5,286.5,0.352
81.13,1.0,-0.004,0.019,0.013,-0.004,0.009,0.025,-1.499,0.002,0.372,79.89,94.9,40.525196,-3.419267,633.8,6,5,286.5,0.352
81.23,1.0,-0.02,0.023,0.028,-0.012,0.021,0.023,-1.502,0.0,0.368,79.89,94.9,40.525196,-3.419267,633.8,6,5,286.5,0.352
81.33,1.0,0.006,0.016,0.019,-0.012,0.015,0.023,-1.504,0.0,0.364,79.89,94.9,40.525196,-3.419267,633.8,6,5,286.5,0.352
81.43,1.0,-0.011,0.021,0.011,-0.003,0.018,0.016,-1.505,-0.0,0.36,79.89,94.9,40.525196,-3.419267,633.8,6,5,286.5,0.352
81.53,1.0,-0.051,0.019,-0.017,-0.017,0.022,0.003,-1.506,-0.005,0.355,80.89,93.1,40.525257,-3.419561,632.5,6,5,287.2,1.055
81.63,1.0,-0.122,0.02,-0.031,-0.072,0.018,-0.02,-1.509,-0.007,0.35,80.89,93.1,40.525257,-3.419561,632.5,6,5,287.2,1.055
81.74,1.0,-0.052,0.066,-0.011,-0.081,0.036,-0.012,-1.511,-0.01,0.345,80.89,93.1,40.525257,-3.419561,632.5,6,5,287.2,1.055
81.83,1.0,0.052,0.073,-0.042,-0.016,0.06,-0.026,-1.506,-0.014,0.338,80.89,93.1,40.525257,-3.419561,632.5,6,5,287.2,1.055
81.93,1.0,0.063,0.071,-0.052,0.035,0.071,-0.039,-1.501,-0.016,0.332,80.89,93.1,40.525257,-3.419561,632.5,6,5,287.2,1.055
82.03,1.0,-0.006,0.055,-0.034,0.023,0.06,-0.042,-1.498,-0.017,0.325,80.89,93.1,40.525257,-3.419561,632.5,6,5,287.2,1.055
82.13,1.0,-0.042,0.049,-0.035,-0.013,0.058,-0.038,-1.495,-0.02,0.319,80.89,93.1,40.525257,-3.419561,632.5,6,5,287.2,1.055
82.23,1.0,-0.038,0.053,-0.043,-0.027,0.054,-0.038,-1.49,-0.023,0.312,80.89,93.1,40.525257,-3.419561,632.5,6,5,287.2,1.055
82.33,1.0,-0.009,0.036,-0.027,-0.022,0.045,-0.036,-1.487,-0.029,0.306,80.89,93.1,40.525257,-3.419561,632.5,6,5,287.2,1.055
82.44,1.0,-0.032,0.032,-0.044,-0.023,0.037,-0.036,-1.484,-0.032,0.3,80.89,93.1,40.525257,-3.419561,632.5,6,5,287.2,1.055
82.54,1.0,-0.058,0.03,-0.032,-0.037,0.035,-0.037,-1.483,-0.032,0.293,81.91,92.1,40.525326,-3.419853,631.9,6,5,288.3,1.758
82.64,1.0,-0.069,0.032,0.011,-0.058,0.031,-0.018,-1.486,-0.035,0.287,81.91,92.1,40.525326,-3.419853,631.9,6,5,288.3,1.758
82.74,1.0,-0.036,0.019,0.022,-0.052,0.028,0.006,-1.489,-0.038,0.28,81.91,92.1,40.525326,-3.419853,631.9,6,5,288.3,1.758
82.84,1.0,-0.0,0.014,0.023,-0.026,0.022,0.015,-1.492,-0.038,0.274,81.91,92.1,40.525326,-3.419853,631.9,6,5,288.3,1.758
82.94,1.0,0.016,-0.007,0.026,-0.006,0.007,0.021,-1.494,-0.036,0.269,81.91,92.1,40.525326,-3.419853,631.9,6,5,288.3,1.758
83.04,1.0,0.016,-0.043,0.019,0.009,-0.018,0.024,-1.496,-0.032,0.265,81.91,92.1,40.525326,-3.419853,631.9,6,5,288.3,1.758
83.14,1.0,-0.0,-0.041,0.005,0.012,-0.03,0.013,-1.497,-0.027,0.261,81.91,92.1,40.525326,-3.419853,631.9,6,5,288.3,1.758
83.24,1.0,-0.014,-0.054,0.011,-0.004,-0.043,0.011,-1.499,-0.022,0.257,81.91,92.1,40.525326,-3.419853,631.9,6,5,288.3,1.758
83.34,1.0,-0.015,-0.041,0.019,-0.012,-0.047,0.015,-1.502,-0.018,0.253,81.91,92.1,40.525326,-3.419853,631.9,6,5,288.3,1.758
83.44,1.0,-0.016,-0.026,0.021,-0.013,-0.038,0.018,-1.504,-0.016,0.249,81.91,92.1,40.525326,-3.419853,631.9,6,5,288.3,1.758
83.54,1.0,-0.03,-0.005,0.009,-0.021,-0.022,0.015,-1.507,-0.015,0.245,82.98,89.3,40.52549,-3.420415,630.5,6,5,292.1,4.219
83.64,1.0,-0.024,-0.015,0.004,-0.024,-0.016,0.01,-1.509,-0.015,0.242,82.98,89.3,40.52549,-3.420415,630.5,6,5,292.1,4.219
83.74,1.0,-0.063,-0.003,0.002,-0.042,-0.008,0.005,-1.51,-0.012,0.238,82.98,89.3,40.52549,-3.420415,630.5,6,5,292.1,4.219
83.84,1.0,-0.051,-0.013,0.018,-0.055,-0.01,0.008,-1.512,-0.009,0.234,82.98,89.3,40.52549,-3.420415,630.5,6,5,292.1,4.219
83.94,1.0,0.006,-0.027,-0.007,-0.027,-0.017,0.004,-1.512,-0.008,0.23,82.98,89.3,40.52549,-3.420415,630.5,6,5,292.1,4.219
84.05,1.0,0.037,-0.021,-0.0,0.008,-0.023,0.0,-1.511,-0.008,0.227,82.98,89.3,40.52549,-3.420415,630.5,6,5,292.1,4.219
84.15,1.0,-0.001,-0.008,-0.006,0.012,-0.017,-0.002,-1.511,-0.009,0.223,82.98,89.3,40.52549,-3.420415,630.5,6,5,292.1,4.219
84.24,1.0,-0.028,-0.004,0.015,-0.006,-0.008,0.002,-1.512,-0.009,0.219,82.98,89.3,40.52549,-3.420415,630.5,6,5,292.1,4.219
84.34,1.0,-0.013,0.0,-0.003,-0.014,-0.006,0.005,-1.513,-0.006,0.216,82.98,89.3,40.52549,-3.420415,630.5,6,5,292.1,4.219
84.44,1.0,-0.017,0.061,-0.008,-0.019,0.021,-0.005,-1.514,-0.006,0.211,82.98,89.3,40.52549,-3.420415,630.5,6,5,292.1,4.219
84.54,1.0,-0.018,0.016,0.004,-0.017,0.034,-0.001,-1.515,-0.009,0.206,83.9,89.3,40.52549,-3.420415,630.5,6,5,292.1,3.867
84.65,1.0,0.001,0.015,0.002,-0.009,0.021,0.002,-1.516,-0.015,0.2,83.9,89.3,40.52549,-3.420415,630.5,6,5,292.1,3.867
84.74,1.0,0.024,0.021,0.011,0.006,0.017,0.004,-1.516,-0.018,0.194,83.9,89.3,40.52549,-3.420415,630.5,6,5,292.1,3.867
84.85,1.0,0.009,0.027,-0.008,0.015,0.023,0.002,-1.516,-0.022,0.189,83.9,89.3,40.52549,-3.420415,630.5,6,5,292.1,3.867
84.95,1.0,-0.032,0.005,-0.018,-0.007,0.015,-0.012,-1.518,-0.024,0.183,83.9,89.3,40.52549,-3.420415,630.5,6,5,292.1,3.867
85.05,1.0,-0.013,-0.023,0.011,-0.02,-0.001,-0.003,-1.518,-0.025,0.179,83.9,89.3,40.52549,-3.420415,630.5,6,5,292.1,3.867
85.15,1.0,0.036,-0.009,-0.014,0.004,-0.006,0.0,-1.517,-0.024,0.176,83.9,89.3,40.52549,-3.420415,630.5,6,5,292.1,3.867
85.26,1.0,0.036,-0.031,0.002,0.035,-0.018,-0.004,-1.516,-0.024,0.173,83.9,89.3,40.52549,-3.420415,630.5,6,5,292.1,3.867
85.35,1.0,0.001,-0.054,-0.009,0.016,-0.037,0.001,-1.515,-0.026,0.169,83.9,89.3,40.52549,-3.420415,630.5,6,5,292.1,3.867
85.45,1.0,0.003,-0.018,-0.002,0.014,-0.038,-0.003,-1.516,-0.026,0.166,83.9,89.3,40.52549,-3.420415,630.5,6,5,292.1,3.867
85.55,1.0,-0.058,0.011,0.001,-0.024,-0.007,-0.012,-1.518,-0.026,0.163,84.97,89.0,40.525677,-3.420944,629.7,6,5,295.7,2.461
85.65,1.0,-0.103,-0.025,-0.038,-0.068,-0.019,-0.01,-1.519,-0.028,0.159,84.97,89.0,40.525677,-3.420944,629.7,6,5,295.7,2.461
85.76,1.0,-0.11,0.013,-0.03,-0.093,-0.006,-0.031,-1.522,-0.032,0.156,84.97,89.0,40.525677,-3.420944,629.7,6,5,295.7,2.461
85.85,1.0,-0.038,0.088,0.001,-0.082,0.048,-0.014,-1.526,-0.034,0.151,84.97,89.0,40.525677,-3.420944,629.7,6,5,295.7,2.461
85.95,1.0,0.021,0.042,0.0,-0.019,0.05,-0.008,-1.527,-0.033,0.146,84.97,89.0,40.525677,-3.420944,629.7,6,5,295.7,2.461
86.05,1.0,0.066,0.031,0.017,0.023,0.044,0.005,-1.527,-0.031,0.141,84.97,89.0,40.525677,-3.420944,629.7,6,5,295.7,2.461
86.15,1.0,0.036,-0.003,-0.022,0.036,0.008,-0.006,-1.526,-0.032,0.136,84.97,89.0,40.525677,-3.420944,629.7,6,5,295.7,2.461
86.26,1.0,0.04,-0.022,-0.013,0.04,-0.0,-0.009,-1.526,-0.034,0.131,84.97,89.0,40.525677,-3.420944,629.7,6,5,295.7,2.461
86.35,1.0,-0.012,-0.004,-0.005,0.021,-0.006,-0.009,-1.526,-0.038,0.126,84.97,89.0,40.525677,-3.420944,629.7,6,5,295.7,2.461
86.45,1.0,-0.013,-0.011,-0.014,-0.0,-0.009,-0.009,-1.522,-0.042,0.122,84.97,89.0,40.525677,-3.420944,629.7,6,5,295.7,2.461
86.55,1.0,-0.079,0.034,-0.019,-0.038,0.017,-0.015,-1.52,-0.041,0.118,86.01,87.9,40.52578,-3.421197,628.6,6,5,298.1,3.516
86.65,1.0,-0.064,-0.055,0.006,-0.061,-0.013,-0.008,-1.521,-0.039,0.113,86.01,87.9,40.52578,-3.421197,628.6,6,5,298.1,3.516
86.75,1.0,-0.017,0.014,-0.002,-0.047,-0.007,-0.001,-1.522,-0.039,0.109,86.01,87.9,40.52578,-3.421197,628.6,6,5,298.1,3.516
86.85,1.0,0.039,0.012,-0.004,-0.001,0.001,-0.004,-1.522,-0.039,0.105,86.01,87.9,40.52578,-3.421197,628.6,6,5,298.1,3.516
87.05,1.0,-0.011,0.02,-0.013,0.001,-0.01,-0.009,-1.524,-0.044,0.096,86.01,87.9,40.52578,-3.421197,628.6,6,5,298.1,3.516
87.15,1.0,0.008,0.039,-0.004,-0.002,0.022,-0.006,-1.524,-0.045,0.091,86.01,87.9,40.52578,-3.421197,628.6,6,5,298.1,3.516
87.25,1.0,0.011,0.03,-0.012,0.008,0.032,-0.007,-1.523,-0.047,0.086,86.01,87.9,40.52578,-3.421197,628.6,6,5,298.1,3.516
87.36,1.0,-0.009,0.018,-0.018,0.003,0.024,-0.014,-1.521,-0.047,0.082,86.01,87.9,40.52578,-3.421197,628.6,6,5,298.1,3.516
87.46,1.0,-0.04,-0.004,-0.009,-0.014,0.012,-0.014,-1.52,-0.044,0.076,86.01,87.9,40.52578,-3.421197,628.6,6,5,298.1,3.516
87.56,1.0,-0.035,0.02,0.007,-0.037,0.011,-0.004,-1.521,-0.049,0.07,86.01,87.9,40.52578,-3.421197,628.6,6,5,298.1,3.516
87.66,1.0,-0.0,0.032,0.005,-0.02,0.02,0.004,-1.521,-0.054,0.064,86.91,87.9,40.52578,-3.421197,628.6,6,5,298.1,4.219
87.76,1.0,0.01,0.046,-0.008,-0.004,0.031,-0.0,-1.521,-0.054,0.057,86.91,87.9,40.52578,-3.421197,628.6,6,5,298.1,4.219
87.86,1.0,-0.013,0.06,-0.009,-0.002,0.05,-0.007,-1.522,-0.056,0.05,86.91,87.9,40.52578,-3.421197,628.6,6,5,298.1,4.219
87.97,1.0,-0.024,0.052,-0.0,-0.013,0.054,-0.009,-1.522,-0.063,0.044,86.91,87.9,40.52578,-3.421197,628.6,6,5,298.1,4.219
88.06,1.0,-0.013,0.035,0.002,-0.018,0.047,0.004,-1.52,-0.071,0.037,86.91,87.9,40.52578,-3.421197,628.6,6,5,298.1,4.219
88.16,1.0,0.029,0.031,-0.005,-0.002,0.039,0.001,-1.519,-0.077,0.031,86.91,87.9,40.52578,-3.421197,628.6,6,5,298.1,4.219
88.26,1.0,0.001,-0.01,0.016,0.013,0.013,0.005,-1.52,-0.077,0.025,86.91,87.9,40.52578,-3.421197,628.6,6,5,298.1,4.219
88.36,1.0,-0.053,0.004,-0.02,-0.019,0.007,-0.006,-1.521,-0.078,0.019,86.91,87.9,40.52578,-3.421197,628.6,6,5,298.1,4.219
88.46,1.0,-0.045,-0.012,0.02,-0.035,-0.003,0.001,-1.522,-0.079,0.014,86.91,87.9,40.52578,-3.421197,628.6,6,5,298.1,4.219
88.56,1.0,0.0,-0.03,-0.013,-0.021,-0.014,-0.0,-1.523,-0.076,0.009,86.91,87.9,40.52578,-3.421197,628.6,6,5,298.1,4.219
88.67,1.0,-0.006,-0.005,-0.019,-0.011,-0.018,-0.007,-1.522,-0.07,0.005,87.91,87.5,40.52589,-3.421448,628.2,4,5,300.9,5.273
88.76,1.0,-0.044,-0.084,-0.003,-0.026,-0.042,-0.011,-1.523,-0.07,0.001,87.91,87.5,40.52589,-3.421448,628.2,4,5,300.9,5.273
88.86,1.0,-0.031,-0.056,0.0,-0.035,-0.055,-0.004,-1.524,-0.071,-0.003,87.91,87.5,40.52589,-3.421448,628.2,4,5,300.9,5.273
88.96,1.0,0.003,-0.015,-0.012,-0.018,-0.038,-0.008,-1.524,-0.072,-0.007,87.91,87.5,40.52589,-3.421448,628.2,4,5,300.9,5.273
89.07,1.0,0.023,0.003,-0.02,0.008,-0.019,-0.015,-1.522,-0.068,-0.012,87.91,87.5,40.52589,-3.421448,628.2,4,5,300.9,5.273
89.16,1.0,-0.031,0.029,-0.01,-0.006,0.005,-0.014,-1.521,-0.072,-0.016,87.91,87.5,40.52589,-3.421448,628.2,4,5,300.9,5.273
89.27,1.0,-0.04,-0.022,-0.006,-0.027,-0.001,-0.008,-1.521,-0.078,-0.022,87.91,87.5,40.52589,-3.421448,628.2,4,5,300.9,5.273
89.36,1.0,-0.03,0.01,-0.011,-0.031,-0.002,-0.008,-1.521,-0.08,-0.027,87.91,87.5,40.52589,-3.421448,628.2,4,5,300.9,5.273
89.46,1.0,-0.027,0.006,-0.014,-0.028,0.01,-0.011,-1.521,-0.077,-0.033,87.91,87.5,40.52589,-3.421448,628.2,4,5,300.9,5.273
89.56,1.0,-0.019,0.03,0.006,-0.028,0.014,-0.005,-1.521,-0.073,-0.038,87.91,87.5,40.52589,-3.421448,628.2,4,5,300.9,5.273
89.67,1.0,-0.024,0.007,-0.013,-0.023,0.017,-0.01,-1.521,-0.072,-0.043,88.98,87.1,40.526142,-3.421921,627.3,4,5,304.5,5.625
89.76,1.0,0.02,-0.053,0.013,-0.006,-0.015,-0.001,-1.522,-0.072,-0.048,88.98,87.1,40.526142,-3.421921,627.3,4,5,304.5,5.625
89.88,1.0,0.004,-0.037,0.001,0.009,-0.03,0.006,-1.522,-0.074,-0.054,88.98,87.1,40.526142,-3.421921,627.3,4,5,304.5,5.625
89.97,1.0,-0.033,-0.026,-0.002,-0.009,-0.033,0.002,-1.522,-0.076,-0.059,88.98,87.1,40.526142,-3.421921,627.3,4,5,304.5,5.625
90.07,1.0,-0.04,-0.02,-0.008,-0.031,-0.027,-0.003,-1.522,-0.074,-0.063,88.98,87.1,40.526142,-3.421921,627.3,4,5,304.5,5.625
90.17,1.0,-0.001,-0.015,0.0,-0.022,-0.023,-0.004,-1.523,-0.076,-0.068,88.98,87.1,40.526142,-3.421921,627.3,4,5,304.5,5.625
90.27,1.0,0.014,-0.011,-0.013,0.001,-0.016,-0.006,-1.521,-0.077,-0.072,88.98,87.1,40.526142,-3.421921,627.3,4,5,304.5,5.625
90.37,1.0,-0.007,0.007,-0.021,-0.0,0.003,-0.016,-1.518,-0.078,-0.076,88.98,87.1,40.526142,-3.421921,627.3,4,5,304.5,5.625
90.47,1.0,-0.006,-0.027,0.008,-0.005,-0.019,-0.005,-1.518,-0.079,-0.081,88.98,87.1,40.526142,-3.421921,627.3,4,5,304.5,5.625
90.57,1.0,-0.048,-0.046,0.002,-0.025,-0.033,0.001,-1.518,-0.079,-0.085,88.98,87.1,40.526142,-3.421921,627.3,4,5,304.5,5.625
90.67,1.0,-0.066,-0.007,-0.019,-0.043,-0.018,-0.006,-1.519,-0.078,-0.089,89.91,87.1,40.526142,-3.421921,627.3,4,5,304.5,3.516
90.77,1.0,-0.064,-0.054,0.007,-0.058,-0.028,-0.008,-1.522,-0.076,-0.094,89.91,87.1,40.526142,-3.421921,627.3,4,5,304.5,3.516
90.87,1.0,-0.018,-0.098,0.003,-0.049,-0.073,0.002,-1.524,-0.075,-0.099,89.91,87.1,40.526142,-3.421921,627.3,4,5,304.5,3.516
90.97,1.0,0.037,-0.084,-0.001,-0.0,-0.077,0.001,-1.524,-0.078,-0.103,89.91,87.1,40.526142,-3.421921,627.3,4,5,304.5,3.516
91.08,1.0,-0.052,-0.047,-0.01,-0.009,-0.064,-0.004,-1.525,-0.08,-0.107,89.91,87.1,40.526142,-3.421921,627.3,4,5,304.5,3.516
91.17,1.0,-0.032,-0.022,0.002,-0.038,-0.047,-0.002,-1.526,-0.08,-0.111,89.91,87.1,40.526142,-3.421921,627.3,4,5,304.5,3.516
91.27,1.0,-0.029,-0.066,-0.012,-0.026,-0.047,-0.004,-1.526,-0.081,-0.114,89.91,87.1,40.526142,-3.421921,627.3,4,5,304.5,3.516
91.37,1.0,-0.019,-0.043,-0.022,-0.026,-0.051,-0.014,-1.524,-0.075,-0.116,89.91,87.1,40.526142,-3.421921,627.3,4,5,304.5,3.516
91.47,1.0,-0.043,-0.071,-0.01,-0.025,-0.059,-0.015,-1.526,-0.07,-0.119,89.91,87.1,40.526142,-3.421921,627.3,4,5,304.5,3.516
91.58,1.0,-0.028,-0.04,0.002,-0.033,-0.052,-0.007,-1.527,-0.069,-0.123,89.91,87.1,40.526142,-3.421921,627.3,4,5,304.5,3.516
91.67,1.0,-0.008,-0.039,0.012,-0.026,-0.039,0.003,-1.53,-0.064,-0.127,90.9,86.0,40.526268,-3.422138,626.5,6,5,309.7,5.977
91.77,1.0,0.006,-0.051,0.005,-0.006,-0.051,0.006,-1.531,-0.064,-0.13,90.9,86.0,40.526268,-3.422138,626.5,6,5,309.7,5.977
91.87,1.0,-0.033,-0.045,-0.006,-0.012,-0.048,0.001,-1.532,-0.067,-0.134,90.9,86.0,40.526268,-3.422138,626.5,6,5,309.7,5.977
91.98,1.0,-0.041,-0.018,-0.01,-0.029,-0.033,-0.005,-1.533,-0.065,-0.138,90.9,86.0,40.526268,-3.422138,626.5,6,5,309.7,5.977
92.08,1.0,-0.033,-0.021,-0.007,-0.038,-0.024,-0.008,-1.534,-0.063,-0.141,90.9,86.0,40.526268,-3.422138,626.5,6,5,309.7,5.977
92.19,1.0,-0.023,-0.036,-0.007,-0.027,-0.029,-0.004,-1.534,-0.06,-0.144,90.9,86.0,40.526268,-3.422138,626.5,6,5,309.7,5.977
92.29,1.0,-0.016,-0.019,-0.032,-0.022,-0.029,-0.018,-1.531,-0.054,-0.147,90.9,86.0,40.526268,-3.422138,626.5,6,5,309.7,5.977
92.38,1.0,-0.035,-0.024,-0.025,-0.025,-0.02,-0.026,-1.53,-0.049,-0.15,90.9,86.0,40.526268,-3.422138,626.5,6,5,309.7,5.977
92.48,1.0,-0.017,-0.026,-0.009,-0.026,-0.027,-0.015,-1.529,-0.047,-0.153,90.9,86.0,40.526268,-3.422138,626.5,6,5,309.7,5.977
92.58,1.0,0.007,-0.003,-0.023,-0.013,-0.014,-0.021,-1.528,-0.041,-0.157,90.9,86.0,40.526268,-3.422138,626.5,6,5,309.7,5.977
92.68,1.0,0.005,-0.024,-0.023,-0.005,-0.013,-0.021,-1.527,-0.038,-0.16,91.93,85.6,40.526409,-3.422347,626.0,4,5,312.2,7.734
92.79,1.0,-0.029,-0.05,0.001,-0.004,-0.032,-0.009,-1.528,-0.039,-0.163,91.93,85.6,40.526409,-3.422347,626.0,4,5,312.2,7.734
92.88,1.0,-0.03,-0.019,-0.005,-0.027,-0.034,-0.006,-1.528,-0.04,-0.166,91.93,85.6,40.526409,-3.422347,626.0,4,5,312.2,7.734
92.98,1.0,0.013,0.075,-0.022,-0.009,0.014,-0.014,-1.528,-0.041,-0.17,91.93,85.6,40.526409,-3.422347,626.0,4,5,312.2,7.734
93.08,1.0,0.004,0.041,-0.018,0.007,0.044,-0.018,-1.528,-0.041,-0.175,91.93,85.6,40.526409,-3.422347,626.0,4,5,312.2,7.734
93.19,1.0,-0.018,0.045,-0.018,-0.002,0.041,-0.016,-1.528,-0.043,-0.18,91.93,85.6,40.526409,-3.422347,626.0,4,5,312.2,7.734
93.28,1.0,-0.028,0.037,-0.02,-0.022,0.035,-0.019,-1.527,-0.05,-0.185,91.93,85.6,40.526409,-3.422347,626.0,4,5,312.2,7.734
93.38,1.0,-0.0,0.007,-0.001,-0.015,0.028,-0.013,-1.528,-0.052,-0.189,91.93,85.6,40.526409,-3.422347,626.0,4,5,312.2,7.734
93.48,1.0,-0.011,-0.006,0.0,-0.011,0.011,-0.006,-1.527,-0.052,-0.193,91.93,85.6,40.526409,-3.422347,626.0,4,5,312.2,7.734
93.58,1.0,-0.002,-0.012,0.001,-0.007,-0.006,0.0,-1.528,-0.048,-0.196,91.93,85.6,40.526409,-3.422347,626.0,4,5,312.2,7.734
93.68,1.0,-0.005,0.005,0.006,-0.002,0.005,0.001,-1.529,-0.044,-0.199,92.91,85.5,40.526566,-3.422556,625.4,4,5,313.9,4.219
93.79,1.0,-0.009,0.003,0.002,-0.004,-0.0,0.004,-1.529,-0.048,-0.202,92.91,85.5,40.526566,-3.422556,625.4,4,5,313.9,4.219
93.88,1.0,-0.021,-0.023,-0.001,-0.015,-0.007,0.002,-1.53,-0.047,-0.204,92.91,85.5,40.526566,-3.422556,625.4,4,5,313.9,4.219
93.99,1.0,-0.003,-0.039,0.001,-0.013,-0.029,0.0,-1.53,-0.041,-0.206,92.91,85.5,40.526566,-3.422556,625.4,4,5,313.9,4.219
94.08,1.0,-0.009,-0.03,-0.0,-0.005,-0.028,0.002,-1.531,-0.041,-0.208,92.91,85.5,40.526566,-3.422556,625.4,4,5,313.9,4.219
94.18,1.0,-0.024,-0.05,0.002,-0.014,-0.037,-0.001,-1.529,-0.041,-0.21,92.91,85.5,40.526566,-3.422556,625.4,4,5,313.9,4.219
94.28,1.0,0.005,-0.016,-0.002,-0.008,-0.03,0.001,-1.531,-0.034,-0.211,92.91,85.5,40.526566,-3.422556,625.4,4,5,313.9,4.219
94.38,1.0,-0.003,-0.024,0.005,-0.004,-0.031,-0.0,-1.532,-0.034,-0.213,92.91,85.5,40.526566,-3.422556,625.4,4,5,313.9,4.219
94.48,1.0,-0.025,-0.067,0.022,-0.011,-0.038,0.01,-1.532,-0.034,-0.214,92.91,85.5,40.526566,-3.422556,625.4,4,5,313.9,4.219
94.6,1.0,0.012,-0.062,0.011,-0.011,-0.057,0.012,-1.532,-0.034,-0.215,92.91,85.5,40.526566,-3.422556,625.4,4,5,313.9,4.219
94.69,1.0,-0.001,-0.052,0.003,0.001,-0.063,0.011,-1.531,-0.035,-0.216,93.93,85.0,40.526722,-3.422748,625.0,4,5,316.8,4.57
94.78,1.0,-0.012,-0.025,0.005,-0.006,-0.043,0.005,-1.531,-0.036,-0.218,93.93,85.0,40.526722,-3.422748,625.0,4,5,316.8,4.57
94.89,1.0,-0.031,-0.047,0.017,-0.016,-0.035,0.011,-1.531,-0.037,-0.22,93.93,85.0,40.526722,-3.422748,625.0,4,5,316.8,4.57
94.99,1.0,-0.016,-0.042,0.011,-0.02,-0.043,0.012,-1.532,-0.039,-0.222,93.93,85.0,40.526722,-3.422748,625.0,4,5,316.8,4.57
95.09,1.0,-0.003,0.033,0.002,-0.006,-0.016,0.009,-1.532,-0.04,-0.225,93.93,85.0,40.526722,-3.422748,625.0,4,5,316.8,4.57
95.19,1.0,-0.013,0.066,-0.007,-0.014,0.034,-0.001,-1.533,-0.041,-0.228,93.93,85.0,40.526722,-3.422748,625.0,4,5,316.8,4.57
95.29,1.0,-0.017,0.023,0.012,-0.017,0.039,0.005,-1.534,-0.04,-0.231,93.93,85.0,40.526722,-3.422748,625.0,4,5,316.8,4.57
95.39,1.0,-0.015,0.021,0.015,-0.014,0.038,0.006,-1.534,-0.039,-0.233,93.93,85.0,40.526722,-3.422748,625.0,4,5,316.8,4.57
95.49,1.0,0.004,-0.016,0.015,-0.009,-0.002,0.015,-1.534,-0.038,-0.236,93.93,85.0,40.526722,-3.422748,625.0,4,5,316.8,4.57
95.6,1.0,-0.011,-0.033,0.002,-0.004,-0.02,0.009,-1.534,-0.039,-0.239,93.93,85.0,40.526722,-3.422748,625.0,4,5,316.8,4.57
95.69,1.0,-0.04,-0.026,0.006,-0.019,-0.022,0.006,-1.534,-0.04,-0.242,94.93,84.8,40.526867,-3.422936,623.8,6,5,318.9,4.922
95.8,1.0,-0.031,0.017,0.011,-0.029,-0.006,0.009,-1.535,-0.042,-0.245,94.93,84.8,40.526867,-3.422936,623.8,6,5,318.9,4.922
95.89,1.0,-0.016,-0.022,0.017,-0.027,-0.009,0.013,-1.535,-0.043,-0.249,94.93,84.8,40.526867,-3.422936,623.8,6,5,318.9,4.922
95.99,1.0,-0.012,-0.024,0.006,-0.017,-0.019,0.012,-1.535,-0.044,-0.252,94.93,84.8,40.526867,-3.422936,623.8,6,5,318.9,4.922
96.09,1.0,-0.034,-0.014,0.004,-0.024,-0.019,0.006,-1.536,-0.045,-0.256,94.93,84.8,40.526867,-3.422936,623.8,6,5,318.9,4.922
96.19,1.0,-0.048,0.036,0.007,-0.036,0.006,0.005,-1.537,-0.046,-0.26,94.93,84.8,40.526867,-3.422936,623.8,6,5,318.9,4.922
96.29,1.0,-0.015,0.043,0.012,-0.029,0.027,0.008,-1.537,-0.046,-0.263,94.93,84.8,40.526867,-3.422936,623.8,6,5,318.9,4.922
96.4,1.0,0.001,0.033,0.003,-0.012,0.034,0.008,-1.537,-0.047,-0.267,94.93,84.8,40.526867,-3.422936,623.8,6,5,318.9,4.922
96.49,1.0,-0.003,0.021,0.001,-0.007,0.029,0.002,-1.538,-0.048,-0.271,94.93,84.8,40.526867,-3.422936,623.8,6,5,318.9,4.922
96.59,1.0,-0.022,0.036,0.005,-0.013,0.03,0.004,-1.539,-0.048,-0.274,94.93,84.8,40.526867,-3.422936,623.8,6,5,318.9,4.922
96.69,1.0,0.006,0.031,0.001,-0.009,0.022,0.004,-1.538,-0.049,-0.278,95.95,86.5,40.527031,-3.423129,623.6,6,5,320.6,3.867
96.8,1.0,0.002,-0.032,0.004,0.003,0.01,0.001,-1.538,-0.05,-0.282,95.95,86.5,40.527031,-3.423129,623.6,6,5,320.6,3.867
96.99,1.0,-0.018,0.067,-0.025,-0.004,0.037,-0.013,-1.539,-0.051,-0.289,95.95,86.5,40.527031,-3.423129,623.6,6,5,320.6,3.867
97.09,1.0,-0.033,0.037,-0.017,-0.02,0.05,-0.017,-1.539,-0.05,-0.293,95.95,86.5,40.527031,-3.423129,623.6,6,5,320.6,3.867
97.19,1.0,-0.051,-0.042,-0.001,-0.036,0.001,-0.01,-1.54,-0.049,-0.296,95.95,86.5,40.527031,-3.423129,623.6,6,5,320.6,3.867
97.3,1.0,-0.024,-0.026,-0.021,-0.033,-0.019,-0.016,-1.54,-0.049,-0.298,95.95,86.5,40.527031,-3.423129,623.6,6,5,320.6,3.867
97.4,1.0,-0.013,-0.005,-0.003,-0.024,-0.011,-0.009,-1.541,-0.049,-0.301,95.95,86.5,40.527031,-3.423129,623.6,6,5,320.6,3.867
97.5,1.0,-0.024,-0.009,-0.003,-0.022,-0.013,-0.005,-1.542,-0.045,-0.304,95.95,86.5,40.527031,-3.423129,623.6,6,5,320.6,3.867
97.61,1.0,-0.003,-0.017,-0.007,-0.013,-0.011,-0.005,-1.541,-0.041,-0.307,95.95,86.5,40.527031,-3.423129,623.6,6,5,320.6,3.867
97.7,1.0,0.009,0.006,-0.01,-0.002,-0.007,-0.009,-1.536,-0.051,-0.31,95.95,86.5,40.527031,-3.423129,623.6,6,5,320.6,3.867
97.8,1.0,0.005,0.014,-0.008,0.001,0.005,-0.006,-1.537,-0.051,-0.312,96.9,86.3,40.527206,-3.423306,623.4,6,5,322.7,3.867
97.9,1.0,-0.058,-0.002,-0.026,-0.024,-0.001,-0.017,-1.536,-0.05,-0.315,96.9,86.3,40.527206,-3.423306,623.4,6,5,322.7,3.867
98.0,1.0,-0.067,-0.009,-0.008,-0.05,0.002,-0.015,-1.536,-0.057,-0.317,96.9,86.3,40.527206,-3.423306,623.4,6,5,322.7,3.867
98.1,1.0,-0.018,-0.044,-0.0,-0.041,-0.02,-0.005,-1.536,-0.059,-0.32,96.9,86.3,40.527206,-3.423306,623.4,6,5,322.7,3.867
98.2,1.0,-0.009,-0.003,-0.015,-0.018,-0.023,-0.012,-1.537,-0.06,-0.322,96.9,86.3,40.527206,-3.423306,623.4,6,5,322.7,3.867
98.3,1.0,0.005,-0.001,-0.003,-0.008,-0.006,-0.008,-1.539,-0.061,-0.324,96.9,86.3,40.527206,-3.423306,623.4,6,5,322.7,3.867
98.4,1.0,0.046,-0.004,-0.018,0.019,-0.004,-0.011,-1.538,-0.062,-0.326,96.9,86.3,40.527206,-3.423306,623.4,6,5,322.7,3.867
98.5,1.0,0.015,-0.009,-0.008,0.023,-0.011,-0.011,-1.538,-0.055,-0.328,96.9,86.3,40.527206,-3.423306,623.4,6,5,322.7,3.867
98.6,1.0,-0.029,-0.046,-0.01,-0.0,-0.019,-0.01,-1.538,-0.053,-0.33,96.9,86.3,40.527206,-3.423306,623.4,6,5,322.7,3.867
98.71,1.0,-0.032,-0.043,-0.023,-0.02,-0.035,-0.016,-1.538,-0.054,-0.332,96.9,86.3,40.527206,-3.423306,623.4,6,5,322.7,3.867
98.81,1.0,-0.03,-0.02,-0.027,-0.027,-0.033,-0.024,-1.537,-0.054,-0.334,97.89,86.3,40.527397,-3.423444,622.9,6,5,326.2,5.625
98.9,1.0,-0.047,-0.019,-0.023,-0.039,-0.024,-0.024,-1.534,-0.055,-0.336,97.89,86.3,40.527397,-3.423444,622.9,6,5,326.2,5.625
99.0,1.0,-0.005,-0.008,-0.008,-0.026,-0.014,-0.018,-1.533,-0.051,-0.338,97.89,86.3,40.527397,-3.423444,622.9,6,5,326.2,5.625
99.1,1.0,-0.015,-0.021,-0.026,-0.016,-0.014,-0.017,-1.531,-0.048,-0.339,97.89,86.3,40.527397,-3.423444,622.9,6,5,326.2,5.625
99.2,1.0,0.003,-0.011,-0.025,-0.007,-0.016,-0.023,-1.528,-0.046,-0.341,97.89,86.3,40.527397,-3.423444,622.9,6,5,326.2,5.625
99.31,1.0,-0.019,-0.024,-0.009,-0.01,-0.02,-0.02,-1.528,-0.045,-0.343,97.89,86.3,40.527397,-3.423444,622.9,6,5,326.2,5.625
99.4,1.0,-0.025,-0.021,-0.005,-0.017,-0.022,-0.01,-1.528,-0.048,-0.345,97.89,86.3,40.527397,-3.423444,622.9,6,5,326.2,5.625
99.5,1.0,-0.024,-0.02,-0.019,-0.023,-0.02,-0.013,-1.526,-0.051,-0.347,97.89,86.3,40.527397,-3.423444,622.9,6,5,326.2,5.625
99.6,1.0,0.002,-0.039,-0.008,-0.011,-0.023,-0.013,-1.524,-0.053,-0.348,97.89,86.3,40.527397,-3.423444,622.9,6,5,326.2,5.625
99.71,1.0,0.008,-0.039,-0.012,-0.001,-0.038,-0.009,-1.523,-0.057,-0.35,97.89,86.3,40.527397,-3.423444,622.9,6,5,326.2,5.625
99.82,1.0,0.007,-0.011,-0.013,0.006,-0.024,-0.013,-1.523,-0.057,-0.351,98.89,86.7,40.527588,-3.423585,622.2,6,5,328.0,5.273
99.91,1.0,-0.007,-0.028,-0.007,-0.001,-0.028,-0.01,-1.524,-0.058,-0.351,98.89,86.7,40.527588,-3.423585,622.2,6,5,328.0,5.273
100.01,1.0,-0.01,-0.047,0.004,-0.003,-0.029,-0.005,-1.524,-0.06,-0.352,98.89,86.7,40.527588,-3.423585,622.2,6,5,328.0,5.273
100.11,1.0,-0.006,-0.046,0.001,-0.009,-0.041,-0.0,-1.524,-0.062,-0.352,98.89,86.7,40.527588,-3.423585,622.2,6,5,328.0,5.273
100.21,1.0,0.002,-0.055,-0.007,-0.004,-0.054,0.0,-1.523,-0.063,-0.352,98.89,86.7,40.527588,-3.423585,622.2,6,5,328.0,5.273
100.31,1.0,0.003,-0.052,0.007,0.003,-0.053,-0.003,-1.524,-0.065,-0.353,98.89,86.7,40.527588,-3.423585,622.2,6,5,328.0,5.273
100.41,1.0,-0.036,-0.031,0.002,-0.016,-0.042,0.006,-1.527,-0.056,-0.354,98.89,86.7,40.527588,-3.423585,622.2,6,5,328.0,5.273
100.51,1.0,-0.032,-0.037,-0.003,-0.026,-0.038,0.0,-1.527,-0.056,-0.354,98.89,86.7,40.527588,-3.423585,622.2,6,5,328.0,5.273
100.61,1.0,-0.046,-0.068,-0.01,-0.036,-0.047,-0.006,-1.526,-0.058,-0.354,98.89,86.7,40.527588,-3.423585,622.2,6,5,328.0,5.273
100.71,1.0,-0.009,-0.04,0.009,-0.028,-0.052,-0.002,-1.525,-0.06,-0.354,98.89,86.7,40.527588,-3.423585,622.2,6,5,328.0,5.273
100.81,1.0,-0.002,-0.046,-0.005,-0.008,-0.044,-0.0,-1.525,-0.057,-0.354,99.89,85.7,40.527779,-3.42373,622.0,6,5,330.1,3.867
100.91,1.0,-0.008,-0.048,-0.008,-0.012,-0.049,-0.004,-1.524,-0.058,-0.355,99.89,85.7,40.527779,-3.42373,622.0,6,5,330.1,3.867
101.01,1.0,-0.015,-0.001,-0.02,-0.011,-0.03,-0.01,-1.523,-0.054,-0.355,99.89,85.7,40.527779,-3.42373,622.0,6,5,330.1,3.867
101.11,1.0,0.005,-0.054,0.004,-0.004,-0.03,-0.008,-1.523,-0.047,-0.355,99.89,85.7,40.527779,-3.42373,622.0,6,5,330.1,3.867
101.21,1.0,-0.018,-0.029,-0.016,-0.007,-0.036,-0.008,-1.524,-0.047,-0.355,99.89,85.7,40.527779,-3.42373,622.0,6,5,330.1,3.867
101.31,1.0,-0.019,0.016,-0.019,-0.015,-0.01,-0.015,-1.524,-0.049,-0.355,99.89,85.7,40.527779,-3.42373,622.0,6,5,330.1,3.867
101.41,1.0,0.012,-0.014,-0.001,-0.006,-0.009,-0.008,-1.524,-0.05,-0.355,99.89,85.7,40.527779,-3.42373,622.0,6,5,330.1,3.867
101.51,1.0,-0.02,-0.006,-0.027,-0.005,-0.004,-0.014,-1.524,-0.052,-0.355,99.89,85.7,40.527779,-3.42373,622.0,6,5,330.1,3.867
101.62,1.0,-0.039,-0.056,-0.002,-0.024,-0.031,-0.014,-1.525,-0.054,-0.355,99.89,85.7,40.527779,-3.42373,622.0,6,5,330.1,3.867
101.71,1.0,-0.022,-0.08,-0.001,-0.03,-0.057,-0.005,-1.524,-0.055,-0.355,99.89,85.7,40.527779,-3.42373,622.0,6,5,330.1,3.867
101.81,1.0,-0.001,-0.048,-0.02,-0.012,-0.056,-0.01,-1.523,-0.055,-0.355,100.92,85.4,40.527969,-3.423861,621.4,6,5,331.5,3.516
101.91,1.0,-0.024,-0.042,-0.008,-0.017,-0.051,-0.013,-1.523,-0.05,-0.354,100.92,85.4,40.527969,-3.423861,621.4,6,5,331.5,3.516
102.01,1.0,-0.041,-0.023,-0.019,-0.027,-0.038,-0.013,-1.522,-0.045,-0.354,100.92,85.4,40.527969,-3.423861,621.4,6,5,331.5,3.516
102.11,1.0,-0.021,-0.06,0.006,-0.029,-0.041,-0.009,-1.521,-0.041,-0.353,100.92,85.4,40.527969,-3.423861,621.4,6,5,331.5,3.516
102.21,1.0,-0.005,-0.04,-0.018,-0.013,-0.048,-0.007,-1.519,-0.033,-0.351,100.92,85.4,40.527969,-3.423861,621.4,6,5,331.5,3.516
102.31,1.0,-0.005,-0.036,-0.009,-0.011,-0.038,-0.012,-1.52,-0.032,-0.35,100.92,85.4,40.527969,-3.423861,621.4,6,5,331.5,3.516
102.41,1.0,-0.015,-0.02,-0.006,-0.01,-0.031,-0.007,-1.52,-0.026,-0.349,100.92,85.4,40.527969,-3.423861,621.4,6,5,331.5,3.516
102.52,1.0,0.004,-0.013,-0.022,-0.007,-0.026,-0.011,-1.52,-0.023,-0.348,100.92,85.4,40.527969,-3.423861,621.4,6,5,331.5,3.516
102.69,1.0,0.001,-0.014,-0.01,-0.002,-0.017,-0.014,-1.517,-0.03,-0.347,100.92,85.4,40.527969,-3.423861,621.4,6,5,331.5,3.516
102.72,1.0,-0.029,-0.015,-0.009,-0.011,-0.015,-0.012,-1.515,-0.034,-0.345,100.92,85.4,40.527969,-3.423861,621.4,6,5,331.5,3.516
102.82,1.0,-0.019,-0.003,-0.013,-0.018,-0.006,-0.012,-1.514,-0.035,-0.345,101.89,84.6,40.528164,-3.423991,620.9,6,5,332.6,2.461
102.92,1.0,0.001,0.003,-0.003,-0.013,-0.005,-0.009,-1.514,-0.036,-0.344,101.89,84.6,40.528164,-3.423991,620.9,6,5,332.6,2.461
103.02,1.0,-0.015,-0.018,-0.006,-0.009,-0.003,-0.007,-1.513,-0.044,-0.343,101.89,84.6,40.528164,-3.423991,620.9,6,5,332.6,2.461
103.12,1.0,-0.009,-0.031,0.009,-0.009,-0.013,0.0,-1.511,-0.048,-0.342,101.89,84.6,40.528164,-3.423991,620.9,6,5,332.6,2.461
103.22,1.0,-0.013,-0.043,0.004,-0.013,-0.033,0.004,-1.511,-0.049,-0.341,101.89,84.6,40.528164,-3.423991,620.9,6,5,332.6,2.461
103.32,1.0,0.012,-0.028,0.015,-0.004,-0.04,0.011,-1.511,-0.051,-0.34,101.89,84.6,40.528164,-3.423991,620.9,6,5,332.6,2.461
103.42,1.0,0.009,-0.007,-0.007,0.008,-0.021,0.002,-1.511,-0.052,-0.339,101.89,84.6,40.528164,-3.423991,620.9,6,5,332.6,2.461
103.52,1.0,0.0,-0.015,0.012,0.003,-0.012,0.006,-1.51,-0.056,-0.338,101.89,84.6,40.528164,-3.423991,620.9,6,5,332.6,2.461
103.62,1.0,0.002,-0.058,0.005,-0.002,-0.035,0.007,-1.509,-0.058,-0.336,101.89,84.6,40.528164,-3.423991,620.9,6,5,332.6,2.461
103.72,1.0,-0.01,-0.101,0.002,-0.005,-0.068,0.003,-1.509,-0.058,-0.335,101.89,84.6,40.528164,-3.423991,620.9,6,5,332.6,2.461
103.83,1.0,-0.019,-0.059,0.004,-0.003,-0.069,0.004,-1.508,-0.055,-0.332,102.89,84.7,40.528355,-3.424115,620.6,6,5,333.6,2.109
103.93,1.0,-0.044,-0.061,0.003,-0.029,-0.065,0.006,-1.51,-0.048,-0.329,102.89,84.7,40.528355,-3.424115,620.6,6,5,333.6,2.109
104.03,1.0,-0.039,-0.048,-0.01,-0.033,-0.058,-0.002,-1.509,-0.042,-0.326,102.89,84.7,40.528355,-3.424115,620.6,6,5,333.6,2.109
104.12,1.0,-0.034,-0.022,-0.01,-0.038,-0.041,-0.006,-1.509,-0.029,-0.323,102.89,84.7,40.528355,-3.424115,620.6,6,5,333.6,2.109
104.22,1.0,-0.013,-0.064,-0.003,-0.021,-0.04,-0.008,-1.51,-0.02,-0.32,102.89,84.7,40.528355,-3.424115,620.6,6,5,333.6,2.109
104.32,1.0,-0.013,-0.031,0.013,-0.016,-0.049,0.003,-1.511,-0.019,-0.317,102.89,84.7,40.528355,-3.424115,620.6,6,5,333.6,2.109
104.42,1.0,-0.031,-0.008,-0.01,-0.021,-0.026,0.0,-1.512,-0.021,-0.314,102.89,84.7,40.528355,-3.424115,620.6,6,5,333.6,2.109
104.53,1.0,-0.027,-0.029,-0.002,-0.029,-0.026,-0.004,-1.514,-0.019,-0.311,102.89,84.7,40.528355,-3.424115,620.6,6,5,333.6,2.109
104.62,1.0,0.022,-0.038,0.007,-0.009,-0.03,0.001,-1.514,-0.015,-0.308,102.89,84.7,40.528355,-3.424115,620.6,6,5,333.6,2.109
